"rt","response_type","key_press","response","avg_frame_time","center_x","center_y","trial_type","trial_index","time_elapsed","internal_node_id","pid","sid","phase","guide","targ","resp","stimulus","is5","stim"
"8760","key"," "," ","17.18783170254403","500","250","psychophysics","0","8794","0.0-0.0","5b6a87d2cda8590001db8e07","6213ce141f8fb6164227a068","","","","","","",""
"6093","key"," "," ","17.367942857142854","500","250","psychophysics","1","14890","0.0-1.0","5b6a87d2cda8590001db8e07","6213ce141f8fb6164227a068","","","","","","",""
"4108","key"," "," ","16.665999999999997","500","250","psychophysics","2","19001","0.0-2.0","5b6a87d2cda8590001db8e07","6213ce141f8fb6164227a068","","","","","","",""
"2668","key"," "," ","17.203612903225793","500","250","psychophysics","3","21686","0.0-3.0","5b6a87d2cda8590001db8e07","6213ce141f8fb6164227a068","","","","","","",""
"3303","key"," "," ","16.751030612244904","500","250","psychophysics","4","24995","0.0-4.0","5b6a87d2cda8590001db8e07","6213ce141f8fb6164227a068","","","","","","",""
"7850","key"," "," ","16.772833333333345","500","250","psychophysics","5","32849","0.0-5.0","5b6a87d2cda8590001db8e07","6213ce141f8fb6164227a068","","","","","","",""
"3905","key"," "," ","16.666","500","250","psychophysics","6","36757","0.0-6.0","5b6a87d2cda8590001db8e07","6213ce141f8fb6164227a068","","","","","","",""
"3492","key"," "," ","16.666000000000015","500","250","psychophysics","7","40252","0.0-7.0","5b6a87d2cda8590001db8e07","6213ce141f8fb6164227a068","","","","","","",""
"13183","key"," "," ","16.666000000000004","500","250","psychophysics","8","53450","0.0-8.0","5b6a87d2cda8590001db8e07","6213ce141f8fb6164227a068","0","0","43","39","","",""
"4027","key"," "," ","16.666000000000004","500","250","psychophysics","9","57480","0.0-9.0","5b6a87d2cda8590001db8e07","6213ce141f8fb6164227a068","","","","","","",""
"4239","key"," "," ","16.665999999999997","500","250","psychophysics","10","61725","0.0-10.0","5b6a87d2cda8590001db8e07","6213ce141f8fb6164227a068","","","","","","",""
"4310","key"," "," ","16.666000000000004","500","250","psychophysics","11","66042","0.0-11.0","5b6a87d2cda8590001db8e07","6213ce141f8fb6164227a068","","","","","","",""
"4554","key"," "," ","16.665999999999997","500","250","psychophysics","12","70601","0.0-12.0","5b6a87d2cda8590001db8e07","6213ce141f8fb6164227a068","","","","","","",""
"3186","key"," "," ","16.666000000000043","500","250","psychophysics","13","73792","0.0-13.0","5b6a87d2cda8590001db8e07","6213ce141f8fb6164227a068","","","","","","",""
"2830","key"," "," ","16.666000000000007","500","250","psychophysics","14","76629","0.0-14.0","5b6a87d2cda8590001db8e07","6213ce141f8fb6164227a068","","","","","","",""
"3030","key"," "," ","16.66600000000001","500","250","psychophysics","15","79662","0.0-15.0","5b6a87d2cda8590001db8e07","6213ce141f8fb6164227a068","","","","","","",""
"3344","key"," "," ","16.665999999999997","500","250","psychophysics","16","83008","0.0-16.0","5b6a87d2cda8590001db8e07","6213ce141f8fb6164227a068","","","","","","",""
"15587","key"," "," ","16.666000000000007","500","250","psychophysics","17","98610","0.0-17.0","5b6a87d2cda8590001db8e07","6213ce141f8fb6164227a068","1","0","53","50","","",""
"12342","key"," "," ","16.665999999999997","500","250","psychophysics","18","110957","0.0-18.0","5b6a87d2cda8590001db8e07","6213ce141f8fb6164227a068","1","5","28","34","","",""
"12153","key"," "," ","16.665999999999993","500","250","psychophysics","19","123113","0.0-19.0","5b6a87d2cda8590001db8e07","6213ce141f8fb6164227a068","1","0","45","46","","",""
"9932","key"," "," ","16.665999999999983","500","250","psychophysics","20","133048","0.0-20.0","5b6a87d2cda8590001db8e07","6213ce141f8fb6164227a068","1","5","23","33","","",""
"12508","key"," "," ","16.666000000000004","500","250","psychophysics","21","145559","0.0-21.0","5b6a87d2cda8590001db8e07","6213ce141f8fb6164227a068","1","0","56","62","","",""
"10819","key"," "," ","16.665999999999993","500","250","psychophysics","22","156383","0.0-22.0","5b6a87d2cda8590001db8e07","6213ce141f8fb6164227a068","1","5","38","54","","",""
"6500","key"," "," ","16.666000000000057","500","250","psychophysics","23","162886","0.0-23.0","5b6a87d2cda8590001db8e07","6213ce141f8fb6164227a068","1","0","42","48","","",""
"8757","key"," "," ","16.66599999999999","500","250","psychophysics","24","171647","0.0-24.0","5b6a87d2cda8590001db8e07","6213ce141f8fb6164227a068","1","5","37","50","","",""
"5946","key"," "," ","16.76015819209037","500","250","psychophysics","25","177597","0.0-25.0","5b6a87d2cda8590001db8e07","6213ce141f8fb6164227a068","1","0","37","48","","",""
"8699","key"," "," ","16.666000000000007","500","250","psychophysics","26","186299","0.0-26.0","5b6a87d2cda8590001db8e07","6213ce141f8fb6164227a068","1","5","58","69","","",""
"6098","key"," "," ","16.66600000000007","500","250","psychophysics","27","192400","0.0-27.0","5b6a87d2cda8590001db8e07","6213ce141f8fb6164227a068","1","0","36","48","","",""
"10139","key"," "," ","16.66599999999998","500","250","psychophysics","28","202542","0.0-28.0","5b6a87d2cda8590001db8e07","6213ce141f8fb6164227a068","1","5","49","62","","",""
"5791","key"," "," ","16.66600000000004","500","250","psychophysics","29","208339","0.0-29.0","5b6a87d2cda8590001db8e07","6213ce141f8fb6164227a068","1","0","32","39","","",""
"7331","key"," "," ","16.66599999999995","500","250","psychophysics","30","215676","0.0-30.0","5b6a87d2cda8590001db8e07","6213ce141f8fb6164227a068","1","5","25","33","","",""
"6709","key"," "," ","16.66599999999998","500","250","psychophysics","31","222388","0.0-31.0","5b6a87d2cda8590001db8e07","6213ce141f8fb6164227a068","1","0","33","39","","",""
"10065","key"," "," ","16.665999999999993","500","250","psychophysics","32","232460","0.0-32.0","5b6a87d2cda8590001db8e07","6213ce141f8fb6164227a068","1","5","59","69","","",""
"4416","key"," "," ","16.665999999999976","500","250","psychophysics","33","236878","0.0-33.0","5b6a87d2cda8590001db8e07","6213ce141f8fb6164227a068","1","0","28","32","","",""
"9161","key"," "," ","16.665999999999983","500","250","psychophysics","34","246043","0.0-34.0","5b6a87d2cda8590001db8e07","6213ce141f8fb6164227a068","1","5","46","62","","",""
"7388","key"," "," ","16.666000000000007","500","250","psychophysics","35","253434","0.0-35.0","5b6a87d2cda8590001db8e07","6213ce141f8fb6164227a068","1","0","29","36","","",""
"8835","key"," "," ","16.66599999999997","500","250","psychophysics","36","262272","0.0-36.0","5b6a87d2cda8590001db8e07","6213ce141f8fb6164227a068","1","5","49","63","","",""
"3991","key"," "," ","16.949676595744677","500","250","psychophysics","37","266269","0.0-37.0","5b6a87d2cda8590001db8e07","6213ce141f8fb6164227a068","","","","","","",""
"4420","key"," "," ","16.666000000000086","500","250","psychophysics","38","270693","0.0-38.0","5b6a87d2cda8590001db8e07","6213ce141f8fb6164227a068","","","","","","",""
"2772","key"," "," ","16.666000000000246","500","250","psychophysics","39","273469","0.0-39.0","5b6a87d2cda8590001db8e07","6213ce141f8fb6164227a068","","","","","","",""
"7108","key"," "," ","16.705214117647095","500","250","psychophysics","40","280589","0.0-40.0","5b6a87d2cda8590001db8e07","6213ce141f8fb6164227a068","2","0","24","26","","",""
"4533","key"," "," ","16.666000000000007","500","250","psychophysics","41","285125","0.0-41.0","5b6a87d2cda8590001db8e07","6213ce141f8fb6164227a068","","","","","","",""
"10503","key"," "," ","16.665999999999983","500","250","psychophysics","42","295631","0.0-42.0","5b6a87d2cda8590001db8e07","6213ce141f8fb6164227a068","2","0","49","54","","",""
"3054","key"," "," ","16.665999999999997","500","250","psychophysics","43","298687","0.0-43.0","5b6a87d2cda8590001db8e07","6213ce141f8fb6164227a068","","","","","","",""
"7915","key"," "," ","16.666000000000075","500","250","psychophysics","44","306608","0.0-44.0","5b6a87d2cda8590001db8e07","6213ce141f8fb6164227a068","2","0","37","39","","",""
"3268","key"," "," ","16.665999999999976","500","250","psychophysics","45","309879","0.0-45.0","5b6a87d2cda8590001db8e07","6213ce141f8fb6164227a068","","","","","","",""
"5581","key"," "," ","16.666000000000054","500","250","psychophysics","46","315457","0.0-46.0","5b6a87d2cda8590001db8e07","6213ce141f8fb6164227a068","2","0","30","35","","",""
"3165","key"," "," ","16.666000000000057","500","250","psychophysics","47","318619","0.0-47.0","5b6a87d2cda8590001db8e07","6213ce141f8fb6164227a068","","","","","","",""
"4445","key"," "," ","16.665999999999848","500","250","psychophysics","48","323061","0.0-48.0","5b6a87d2cda8590001db8e07","6213ce141f8fb6164227a068","2","0","24","28","","",""
"2833","key"," "," ","16.66600000000002","500","250","psychophysics","49","325894","0.0-49.0","5b6a87d2cda8590001db8e07","6213ce141f8fb6164227a068","","","","","","",""
"3971","key"," "," ","16.666000000000018","500","250","psychophysics","50","329864","0.0-50.0","5b6a87d2cda8590001db8e07","6213ce141f8fb6164227a068","2","0","21","27","","",""
"3695","key"," "," ","16.66599999999994","500","250","psychophysics","51","333561","0.0-51.0","5b6a87d2cda8590001db8e07","6213ce141f8fb6164227a068","","","","","","",""
"4540","key"," "," ","16.666000000000007","500","250","psychophysics","52","338100","0.0-52.0","5b6a87d2cda8590001db8e07","6213ce141f8fb6164227a068","2","0","44","46","","",""
"1446","key"," "," ","16.666000000000146","500","250","psychophysics","53","339556","0.0-53.0","5b6a87d2cda8590001db8e07","6213ce141f8fb6164227a068","","","","","","",""
"4666","key"," "," ","16.666000000000047","500","250","psychophysics","54","344224","0.0-54.0","5b6a87d2cda8590001db8e07","6213ce141f8fb6164227a068","2","0","43","47","","",""
"1463","key"," "," ","16.66599999999978","500","250","psychophysics","55","345688","0.0-55.0","5b6a87d2cda8590001db8e07","6213ce141f8fb6164227a068","","","","","","",""
"3497","key"," "," ","16.665999999999933","500","250","psychophysics","56","349197","0.0-56.0","5b6a87d2cda8590001db8e07","6213ce141f8fb6164227a068","2","0","24","33","","",""
"1498","key"," "," ","16.66600000000038","500","250","psychophysics","57","350698","0.0-57.0","5b6a87d2cda8590001db8e07","6213ce141f8fb6164227a068","","","","","","",""
"6293","key"," "," ","16.665999999999986","500","250","psychophysics","58","356993","0.0-58.0","5b6a87d2cda8590001db8e07","6213ce141f8fb6164227a068","2","0","58","61","","",""
"1372","key"," "," ","16.665999999999954","500","250","psychophysics","59","358367","0.0-59.0","5b6a87d2cda8590001db8e07","6213ce141f8fb6164227a068","","","","","","",""
"5185","key"," "," ","16.719935275080786","500","250","psychophysics","60","363554","0.0-60.0","5b6a87d2cda8590001db8e07","6213ce141f8fb6164227a068","2","0","52","52","","",""
"1019","key"," "," ","16.665999999999823","500","250","psychophysics","61","364579","0.0-61.0","5b6a87d2cda8590001db8e07","6213ce141f8fb6164227a068","","","","","","",""
"4035","key"," "," ","16.666000000000217","500","250","psychophysics","62","368617","0.0-62.0","5b6a87d2cda8590001db8e07","6213ce141f8fb6164227a068","2","0","29","38","","",""
"1262","key"," "," ","16.666000000000157","500","250","psychophysics","63","369882","0.0-63.0","5b6a87d2cda8590001db8e07","6213ce141f8fb6164227a068","","","","","","",""
"5893","key"," "," ","16.665999999999993","500","250","psychophysics","64","375777","0.0-64.0","5b6a87d2cda8590001db8e07","6213ce141f8fb6164227a068","2","0","54","54","","",""
"928","key"," "," ","16.666000000000086","500","250","psychophysics","65","376707","0.0-65.0","5b6a87d2cda8590001db8e07","6213ce141f8fb6164227a068","","","","","","",""
"3811","key"," "," ","16.665999999999876","500","250","psychophysics","66","380531","0.0-66.0","5b6a87d2cda8590001db8e07","6213ce141f8fb6164227a068","2","0","24","30","","",""
"961","key"," "," ","16.665999999999446","500","250","psychophysics","67","381495","0.0-67.0","5b6a87d2cda8590001db8e07","6213ce141f8fb6164227a068","","","","","","",""
"5060","key"," "," ","16.66599999999984","500","250","psychophysics","68","386558","0.0-68.0","5b6a87d2cda8590001db8e07","6213ce141f8fb6164227a068","2","0","43","46","","",""
"1153","key"," "," ","16.666000000000007","500","250","psychophysics","69","387714","0.0-69.0","5b6a87d2cda8590001db8e07","6213ce141f8fb6164227a068","","","","","","",""
"3547","key"," "," ","16.66599999999991","500","250","psychophysics","70","391264","0.0-70.0","5b6a87d2cda8590001db8e07","6213ce141f8fb6164227a068","","","","","","",""
"3066","key"," "," ","16.666000000000142","500","250","psychophysics","71","394332","0.0-71.0","5b6a87d2cda8590001db8e07","6213ce141f8fb6164227a068","","","","","","",""
"7548","key"," "," ","16.665999999999887","500","250","psychophysics","72","401882","0.0-72.0","5b6a87d2cda8590001db8e07","6213ce141f8fb6164227a068","3","5","32","34","","",""
"4090","key"," "," ","16.734303278688458","500","250","psychophysics","73","405976","0.0-73.0","5b6a87d2cda8590001db8e07","6213ce141f8fb6164227a068","3","0","24","29","","",""
"4415","key"," "," ","16.665999999999865","500","250","psychophysics","74","410394","0.0-74.0","5b6a87d2cda8590001db8e07","6213ce141f8fb6164227a068","3","5","32","37","","",""
"6401","key"," "," ","16.665999999999947","500","250","psychophysics","75","416799","0.0-75.0","5b6a87d2cda8590001db8e07","6213ce141f8fb6164227a068","3","0","49","56","","",""
"6082","key"," "," ","16.66599999999991","500","250","psychophysics","76","422895","0.0-76.0","5b6a87d2cda8590001db8e07","6213ce141f8fb6164227a068","3","5","56","55","","",""
"7695","key"," "," ","16.66600000000003","500","250","psychophysics","77","430593","0.0-77.0","5b6a87d2cda8590001db8e07","6213ce141f8fb6164227a068","3","0","58","63","","",""
"5855","key"," "," ","16.761781609195502","500","250","psychophysics","78","436451","0.0-78.0","5b6a87d2cda8590001db8e07","6213ce141f8fb6164227a068","3","5","50","56","","",""
"7724","key"," "," ","16.666000000000015","500","250","psychophysics","79","444178","0.0-79.0","5b6a87d2cda8590001db8e07","6213ce141f8fb6164227a068","3","0","20","27","","",""
"6726","key"," "," ","16.665999999999965","500","250","psychophysics","80","450907","0.0-80.0","5b6a87d2cda8590001db8e07","6213ce141f8fb6164227a068","3","5","46","54","","",""
"5966","key"," "," ","16.66600000000013","500","250","psychophysics","81","456876","0.0-81.0","5b6a87d2cda8590001db8e07","6213ce141f8fb6164227a068","3","0","54","53","","",""
"4404","key"," "," ","16.665999999999983","500","250","psychophysics","82","461284","0.0-82.0","5b6a87d2cda8590001db8e07","6213ce141f8fb6164227a068","3","5","29","31","","",""
"6921","key"," "," ","16.666000000000032","500","250","psychophysics","83","468208","0.0-83.0","5b6a87d2cda8590001db8e07","6213ce141f8fb6164227a068","3","0","51","54","","",""
"10509","key"," "," ","16.666000000000025","500","250","psychophysics","84","478721","0.0-84.0","5b6a87d2cda8590001db8e07","6213ce141f8fb6164227a068","3","5","51","50","","",""
"6035","key"," "," ","16.6660000000001","500","250","psychophysics","85","484761","0.0-85.0","5b6a87d2cda8590001db8e07","6213ce141f8fb6164227a068","3","0","30","35","","",""
"5758","key"," "," ","16.666000000000054","500","250","psychophysics","86","490523","0.0-86.0","5b6a87d2cda8590001db8e07","6213ce141f8fb6164227a068","3","5","24","28","","",""
"4403","key"," "," ","16.92338996139017","500","250","psychophysics","87","494929","0.0-87.0","5b6a87d2cda8590001db8e07","6213ce141f8fb6164227a068","3","0","26","27","","",""
"8025","key"," "," ","16.700720833333374","500","250","psychophysics","88","502957","0.0-88.0","5b6a87d2cda8590001db8e07","6213ce141f8fb6164227a068","3","5","52","50","","",""
"5815","key"," "," ","16.81092173913055","500","250","psychophysics","89","508776","0.0-89.0","5b6a87d2cda8590001db8e07","6213ce141f8fb6164227a068","3","0","40","42","","",""
"7400","key"," "," ","16.666","500","250","psychophysics","90","516178","0.0-90.0","5b6a87d2cda8590001db8e07","6213ce141f8fb6164227a068","3","5","54","55","","",""
"3735","key"," "," ","16.66599999999992","500","250","psychophysics","91","519916","0.0-91.0","5b6a87d2cda8590001db8e07","6213ce141f8fb6164227a068","3","0","21","22","","",""
"3463","key"," "," ","16.66599999999983","500","250","psychophysics","92","523381","0.0-92.0","5b6a87d2cda8590001db8e07","6213ce141f8fb6164227a068","","","","","","",""
"21327","","","v","","","","html-keyboard-response","93","544710","0.0-93.0","5b6a87d2cda8590001db8e07","6213ce141f8fb6164227a068","","","","","<p> In this part of the experiment, we are going present digits 1, 2, 3, 4, 6, 7, 8, and 9.  Notice that 5 is missing.  Your job is to say whether the presented digit is less than or greater than 5.  For example, 3 is less than 5 and 7 is greater than 5.  If the digit is less than 5, press the v key; if it is greater than 5, press the n key. We are going to do 200 of these in total, but only 50 righ now. They go real fast.</p>  <br><br>  Ready? (press v or n)","",""
"3688","key","n","n","16.666000000000324","500","250","psychophysics","94","548404","0.0-94.0","5b6a87d2cda8590001db8e07","6213ce141f8fb6164227a068","4","","","","","1","8"
"null","","","null","","","","html-keyboard-response","95","548908","0.0-95.0","5b6a87d2cda8590001db8e07","6213ce141f8fb6164227a068","","","","","<p style=""color:darkgreen;font-size:24px;"">Correct :)</p>","",""
"3237","key","n","n","16.66600000000014","500","250","psychophysics","96","552149","0.0-96.0","5b6a87d2cda8590001db8e07","6213ce141f8fb6164227a068","4","","","","","1","6"
"null","","","null","","","","html-keyboard-response","97","552653","0.0-97.0","5b6a87d2cda8590001db8e07","6213ce141f8fb6164227a068","","","","","<p style=""color:darkgreen;font-size:24px;"">Correct :)</p>","",""
"2606","key","n","n","16.665999999999677","500","250","psychophysics","98","555264","0.0-98.0","5b6a87d2cda8590001db8e07","6213ce141f8fb6164227a068","4","","","","","1","7"
"null","","","null","","","","html-keyboard-response","99","555767","0.0-99.0","5b6a87d2cda8590001db8e07","6213ce141f8fb6164227a068","","","","","<p style=""color:darkgreen;font-size:24px;"">Correct :)</p>","",""
"2615","key","n","n","16.66600000000022","500","250","psychophysics","100","558387","0.0-100.0","5b6a87d2cda8590001db8e07","6213ce141f8fb6164227a068","4","","","","","1","9"
"null","","","null","","","","html-keyboard-response","101","558889","0.0-101.0","5b6a87d2cda8590001db8e07","6213ce141f8fb6164227a068","","","","","<p style=""color:darkgreen;font-size:24px;"">Correct :)</p>","",""
"2507","key","v","v","16.666000000000157","500","250","psychophysics","102","561399","0.0-102.0","5b6a87d2cda8590001db8e07","6213ce141f8fb6164227a068","4","","","","","1","4"
"null","","","null","","","","html-keyboard-response","103","561901","0.0-103.0","5b6a87d2cda8590001db8e07","6213ce141f8fb6164227a068","","","","","<p style=""color:darkgreen;font-size:24px;"">Correct :)</p>","",""
"2468","key","n","n","16.665999999999798","500","250","psychophysics","104","564374","0.0-104.0","5b6a87d2cda8590001db8e07","6213ce141f8fb6164227a068","4","","","","","1","9"
"null","","","null","","","","html-keyboard-response","105","564877","0.0-105.0","5b6a87d2cda8590001db8e07","6213ce141f8fb6164227a068","","","","","<p style=""color:darkgreen;font-size:24px;"">Correct :)</p>","",""
"2561","key","v","v","16.666000000000086","500","250","psychophysics","106","567442","0.0-106.0","5b6a87d2cda8590001db8e07","6213ce141f8fb6164227a068","4","","","","","1","1"
"null","","","null","","","","html-keyboard-response","107","567944","0.0-107.0","5b6a87d2cda8590001db8e07","6213ce141f8fb6164227a068","","","","","<p style=""color:darkgreen;font-size:24px;"">Correct :)</p>","",""
"2452","key","n","n","17.618342857143475","500","250","psychophysics","108","570411","0.0-108.0","5b6a87d2cda8590001db8e07","6213ce141f8fb6164227a068","4","","","","","1","8"
"null","","","null","","","","html-keyboard-response","109","570914","0.0-109.0","5b6a87d2cda8590001db8e07","6213ce141f8fb6164227a068","","","","","<p style=""color:darkgreen;font-size:24px;"">Correct :)</p>","",""
"2460","key","n","n","16.665999999999798","500","250","psychophysics","110","573380","0.0-110.0","5b6a87d2cda8590001db8e07","6213ce141f8fb6164227a068","4","","","","","1","8"
"null","","","null","","","","html-keyboard-response","111","573882","0.0-111.0","5b6a87d2cda8590001db8e07","6213ce141f8fb6164227a068","","","","","<p style=""color:darkgreen;font-size:24px;"">Correct :)</p>","",""
"2521","key","v","v","16.6660000000005","500","250","psychophysics","112","576408","0.0-112.0","5b6a87d2cda8590001db8e07","6213ce141f8fb6164227a068","4","","","","","1","4"
"null","","","null","","","","html-keyboard-response","113","576910","0.0-113.0","5b6a87d2cda8590001db8e07","6213ce141f8fb6164227a068","","","","","<p style=""color:darkgreen;font-size:24px;"">Correct :)</p>","",""
"2386","key","n","n","16.666000000000086","500","250","psychophysics","114","579301","0.0-114.0","5b6a87d2cda8590001db8e07","6213ce141f8fb6164227a068","4","","","","","1","6"
"null","","","null","","","","html-keyboard-response","115","579805","0.0-115.0","5b6a87d2cda8590001db8e07","6213ce141f8fb6164227a068","","","","","<p style=""color:darkgreen;font-size:24px;"">Correct :)</p>","",""
"2446","key","v","v","16.66600000000001","500","250","psychophysics","116","582257","0.0-116.0","5b6a87d2cda8590001db8e07","6213ce141f8fb6164227a068","4","","","","","1","4"
"null","","","null","","","","html-keyboard-response","117","582765","0.0-117.0","5b6a87d2cda8590001db8e07","6213ce141f8fb6164227a068","","","","","<p style=""color:darkgreen;font-size:24px;"">Correct :)</p>","",""
"2528","key","v","v","16.666000000000714","500","250","psychophysics","118","585299","0.0-118.0","5b6a87d2cda8590001db8e07","6213ce141f8fb6164227a068","4","","","","","1","2"
"null","","","null","","","","html-keyboard-response","119","585804","0.0-119.0","5b6a87d2cda8590001db8e07","6213ce141f8fb6164227a068","","","","","<p style=""color:darkgreen;font-size:24px;"">Correct :)</p>","",""
"2483","key","v","v","16.66600000000037","500","250","psychophysics","120","588291","0.0-120.0","5b6a87d2cda8590001db8e07","6213ce141f8fb6164227a068","4","","","","","1","2"
"null","","","null","","","","html-keyboard-response","121","588793","0.0-121.0","5b6a87d2cda8590001db8e07","6213ce141f8fb6164227a068","","","","","<p style=""color:darkgreen;font-size:24px;"">Correct :)</p>","",""
"2475","key","n","n","16.66599999999959","500","250","psychophysics","122","591273","0.0-122.0","5b6a87d2cda8590001db8e07","6213ce141f8fb6164227a068","4","","","","","1","4"
"null","","","null","","","","html-keyboard-response","123","591775","0.0-123.0","5b6a87d2cda8590001db8e07","6213ce141f8fb6164227a068","","","","","<p style=""color:red;font-size:24px;"">Error :(</p>","",""
"2420","key","n","n","16.666000000000448","500","250","psychophysics","124","594200","0.0-124.0","5b6a87d2cda8590001db8e07","6213ce141f8fb6164227a068","4","","","","","1","7"
"null","","","null","","","","html-keyboard-response","125","594702","0.0-125.0","5b6a87d2cda8590001db8e07","6213ce141f8fb6164227a068","","","","","<p style=""color:darkgreen;font-size:24px;"">Correct :)</p>","",""
"2489","key","v","v","16.666000000000157","500","250","psychophysics","126","597203","0.0-126.0","5b6a87d2cda8590001db8e07","6213ce141f8fb6164227a068","4","","","","","1","4"
"null","","","null","","","","html-keyboard-response","127","597705","0.0-127.0","5b6a87d2cda8590001db8e07","6213ce141f8fb6164227a068","","","","","<p style=""color:darkgreen;font-size:24px;"">Correct :)</p>","",""
"2438","key","v","v","16.66600000000023","500","250","psychophysics","128","600148","0.0-128.0","5b6a87d2cda8590001db8e07","6213ce141f8fb6164227a068","4","","","","","1","3"
"null","","","null","","","","html-keyboard-response","129","600650","0.0-129.0","5b6a87d2cda8590001db8e07","6213ce141f8fb6164227a068","","","","","<p style=""color:darkgreen;font-size:24px;"">Correct :)</p>","",""
"2557","key","v","v","16.66600000000029","500","250","psychophysics","130","603213","0.0-130.0","5b6a87d2cda8590001db8e07","6213ce141f8fb6164227a068","4","","","","","1","2"
"null","","","null","","","","html-keyboard-response","131","603716","0.0-131.0","5b6a87d2cda8590001db8e07","6213ce141f8fb6164227a068","","","","","<p style=""color:darkgreen;font-size:24px;"">Correct :)</p>","",""
"2555","key","n","n","16.66600000000029","500","250","psychophysics","132","606277","0.0-132.0","5b6a87d2cda8590001db8e07","6213ce141f8fb6164227a068","4","","","","","1","8"
"null","","","null","","","","html-keyboard-response","133","606778","0.0-133.0","5b6a87d2cda8590001db8e07","6213ce141f8fb6164227a068","","","","","<p style=""color:darkgreen;font-size:24px;"">Correct :)</p>","",""
"2460","key","n","n","16.665999999999798","500","250","psychophysics","134","609243","0.0-134.0","5b6a87d2cda8590001db8e07","6213ce141f8fb6164227a068","4","","","","","1","9"
"null","","","null","","","","html-keyboard-response","135","609747","0.0-135.0","5b6a87d2cda8590001db8e07","6213ce141f8fb6164227a068","","","","","<p style=""color:darkgreen;font-size:24px;"">Correct :)</p>","",""
"2430","key","v","v","16.66600000000001","500","250","psychophysics","136","612192","0.0-136.0","5b6a87d2cda8590001db8e07","6213ce141f8fb6164227a068","4","","","","","1","2"
"null","","","null","","","","html-keyboard-response","137","612693","0.0-137.0","5b6a87d2cda8590001db8e07","6213ce141f8fb6164227a068","","","","","<p style=""color:darkgreen;font-size:24px;"">Correct :)</p>","",""
"2470","key","n","n","16.665999999999798","500","250","psychophysics","138","615170","0.0-138.0","5b6a87d2cda8590001db8e07","6213ce141f8fb6164227a068","4","","","","","1","8"
"null","","","null","","","","html-keyboard-response","139","615673","0.0-139.0","5b6a87d2cda8590001db8e07","6213ce141f8fb6164227a068","","","","","<p style=""color:darkgreen;font-size:24px;"">Correct :)</p>","",""
"2515","key","v","v","16.665999999999944","500","250","psychophysics","140","618192","0.0-140.0","5b6a87d2cda8590001db8e07","6213ce141f8fb6164227a068","4","","","","","1","4"
"null","","","null","","","","html-keyboard-response","141","618697","0.0-141.0","5b6a87d2cda8590001db8e07","6213ce141f8fb6164227a068","","","","","<p style=""color:darkgreen;font-size:24px;"">Correct :)</p>","",""
"2494","key","n","n","16.66599999999938","500","250","psychophysics","142","621195","0.0-142.0","5b6a87d2cda8590001db8e07","6213ce141f8fb6164227a068","4","","","","","1","6"
"null","","","null","","","","html-keyboard-response","143","621700","0.0-143.0","5b6a87d2cda8590001db8e07","6213ce141f8fb6164227a068","","","","","<p style=""color:darkgreen;font-size:24px;"">Correct :)</p>","",""
"2572","key","v","v","16.666000000000086","500","250","psychophysics","144","624277","0.0-144.0","5b6a87d2cda8590001db8e07","6213ce141f8fb6164227a068","4","","","","","1","4"
"null","","","null","","","","html-keyboard-response","145","624779","0.0-145.0","5b6a87d2cda8590001db8e07","6213ce141f8fb6164227a068","","","","","<p style=""color:darkgreen;font-size:24px;"">Correct :)</p>","",""
"2460","key","n","n","16.665999999999798","500","250","psychophysics","146","627244","0.0-146.0","5b6a87d2cda8590001db8e07","6213ce141f8fb6164227a068","4","","","","","1","8"
"null","","","null","","","","html-keyboard-response","147","627748","0.0-147.0","5b6a87d2cda8590001db8e07","6213ce141f8fb6164227a068","","","","","<p style=""color:darkgreen;font-size:24px;"">Correct :)</p>","",""
"2507","key","v","v","16.66599999999938","500","250","psychophysics","148","630257","0.0-148.0","5b6a87d2cda8590001db8e07","6213ce141f8fb6164227a068","4","","","","","1","2"
"null","","","null","","","","html-keyboard-response","149","630761","0.0-149.0","5b6a87d2cda8590001db8e07","6213ce141f8fb6164227a068","","","","","<p style=""color:darkgreen;font-size:24px;"">Correct :)</p>","",""
"2495","key","n","n","16.66599999999938","500","250","psychophysics","150","633262","0.0-150.0","5b6a87d2cda8590001db8e07","6213ce141f8fb6164227a068","4","","","","","1","7"
"null","","","null","","","","html-keyboard-response","151","633764","0.0-151.0","5b6a87d2cda8590001db8e07","6213ce141f8fb6164227a068","","","","","<p style=""color:darkgreen;font-size:24px;"">Correct :)</p>","",""
"2422","key","v","v","16.665999999999645","500","250","psychophysics","152","636192","0.0-152.0","5b6a87d2cda8590001db8e07","6213ce141f8fb6164227a068","4","","","","","1","2"
"null","","","null","","","","html-keyboard-response","153","636694","0.0-153.0","5b6a87d2cda8590001db8e07","6213ce141f8fb6164227a068","","","","","<p style=""color:darkgreen;font-size:24px;"">Correct :)</p>","",""
"2433","key","v","v","16.66600000000001","500","250","psychophysics","154","639140","0.0-154.0","5b6a87d2cda8590001db8e07","6213ce141f8fb6164227a068","4","","","","","1","4"
"null","","","null","","","","html-keyboard-response","155","639642","0.0-155.0","5b6a87d2cda8590001db8e07","6213ce141f8fb6164227a068","","","","","<p style=""color:darkgreen;font-size:24px;"">Correct :)</p>","",""
"2461","key","v","v","16.665999999999798","500","250","psychophysics","156","642107","0.0-156.0","5b6a87d2cda8590001db8e07","6213ce141f8fb6164227a068","4","","","","","1","4"
"null","","","null","","","","html-keyboard-response","157","642609","0.0-157.0","5b6a87d2cda8590001db8e07","6213ce141f8fb6164227a068","","","","","<p style=""color:darkgreen;font-size:24px;"">Correct :)</p>","",""
"2526","key","v","v","16.665999999999737","500","250","psychophysics","158","645138","0.0-158.0","5b6a87d2cda8590001db8e07","6213ce141f8fb6164227a068","4","","","","","1","4"
"null","","","null","","","","html-keyboard-response","159","645642","0.0-159.0","5b6a87d2cda8590001db8e07","6213ce141f8fb6164227a068","","","","","<p style=""color:darkgreen;font-size:24px;"">Correct :)</p>","",""
"2468","key","v","v","16.66600000000037","500","250","psychophysics","160","648122","0.0-160.0","5b6a87d2cda8590001db8e07","6213ce141f8fb6164227a068","4","","","","","1","2"
"null","","","null","","","","html-keyboard-response","161","648624","0.0-161.0","5b6a87d2cda8590001db8e07","6213ce141f8fb6164227a068","","","","","<p style=""color:darkgreen;font-size:24px;"">Correct :)</p>","",""
"2398","key","v","v","16.665999999999865","500","250","psychophysics","162","651027","0.0-162.0","5b6a87d2cda8590001db8e07","6213ce141f8fb6164227a068","4","","","","","1","4"
"null","","","null","","","","html-keyboard-response","163","651530","0.0-163.0","5b6a87d2cda8590001db8e07","6213ce141f8fb6164227a068","","","","","<p style=""color:darkgreen;font-size:24px;"">Correct :)</p>","",""
"2577","key","n","n","16.666000000000086","500","250","psychophysics","164","654116","0.0-164.0","5b6a87d2cda8590001db8e07","6213ce141f8fb6164227a068","4","","","","","1","9"
"null","","","null","","","","html-keyboard-response","165","654618","0.0-165.0","5b6a87d2cda8590001db8e07","6213ce141f8fb6164227a068","","","","","<p style=""color:darkgreen;font-size:24px;"">Correct :)</p>","",""
"2483","key","n","n","16.66600000000037","500","250","psychophysics","166","657106","0.0-166.0","5b6a87d2cda8590001db8e07","6213ce141f8fb6164227a068","4","","","","","1","8"
"null","","","null","","","","html-keyboard-response","167","657610","0.0-167.0","5b6a87d2cda8590001db8e07","6213ce141f8fb6164227a068","","","","","<p style=""color:darkgreen;font-size:24px;"">Correct :)</p>","",""
"2562","key","v","v","16.666000000000086","500","250","psychophysics","168","660176","0.0-168.0","5b6a87d2cda8590001db8e07","6213ce141f8fb6164227a068","4","","","","","1","3"
"null","","","null","","","","html-keyboard-response","169","660679","0.0-169.0","5b6a87d2cda8590001db8e07","6213ce141f8fb6164227a068","","","","","<p style=""color:darkgreen;font-size:24px;"">Correct :)</p>","",""
"2506","key","n","n","16.665999999999944","500","250","psychophysics","170","663189","0.0-170.0","5b6a87d2cda8590001db8e07","6213ce141f8fb6164227a068","4","","","","","1","9"
"null","","","null","","","","html-keyboard-response","171","663691","0.0-171.0","5b6a87d2cda8590001db8e07","6213ce141f8fb6164227a068","","","","","<p style=""color:darkgreen;font-size:24px;"">Correct :)</p>","",""
"2403","key","v","v","16.665999999999865","500","250","psychophysics","172","666099","0.0-172.0","5b6a87d2cda8590001db8e07","6213ce141f8fb6164227a068","4","","","","","1","2"
"null","","","null","","","","html-keyboard-response","173","666603","0.0-173.0","5b6a87d2cda8590001db8e07","6213ce141f8fb6164227a068","","","","","<p style=""color:darkgreen;font-size:24px;"">Correct :)</p>","",""
"2448","key","n","n","16.66600000000001","500","250","psychophysics","174","669063","0.0-174.0","5b6a87d2cda8590001db8e07","6213ce141f8fb6164227a068","4","","","","","1","8"
"null","","","null","","","","html-keyboard-response","175","669568","0.0-175.0","5b6a87d2cda8590001db8e07","6213ce141f8fb6164227a068","","","","","<p style=""color:darkgreen;font-size:24px;"">Correct :)</p>","",""
"2467","key","n","n","16.665999999999798","500","250","psychophysics","176","672041","0.0-176.0","5b6a87d2cda8590001db8e07","6213ce141f8fb6164227a068","4","","","","","1","7"
"null","","","null","","","","html-keyboard-response","177","672546","0.0-177.0","5b6a87d2cda8590001db8e07","6213ce141f8fb6164227a068","","","","","<p style=""color:darkgreen;font-size:24px;"">Correct :)</p>","",""
"2616","key","n","n","16.66600000000022","500","250","psychophysics","178","675168","0.0-178.0","5b6a87d2cda8590001db8e07","6213ce141f8fb6164227a068","4","","","","","1","4"
"null","","","null","","","","html-keyboard-response","179","675671","0.0-179.0","5b6a87d2cda8590001db8e07","6213ce141f8fb6164227a068","","","","","<p style=""color:red;font-size:24px;"">Error :(</p>","",""
"2415","key","n","n","16.665999999999645","500","250","psychophysics","180","678091","0.0-180.0","5b6a87d2cda8590001db8e07","6213ce141f8fb6164227a068","4","","","","","1","7"
"null","","","null","","","","html-keyboard-response","181","678593","0.0-181.0","5b6a87d2cda8590001db8e07","6213ce141f8fb6164227a068","","","","","<p style=""color:darkgreen;font-size:24px;"">Correct :)</p>","",""
"2444","key","n","n","16.66600000000001","500","250","psychophysics","182","681041","0.0-182.0","5b6a87d2cda8590001db8e07","6213ce141f8fb6164227a068","4","","","","","1","9"
"null","","","null","","","","html-keyboard-response","183","681543","0.0-183.0","5b6a87d2cda8590001db8e07","6213ce141f8fb6164227a068","","","","","<p style=""color:darkgreen;font-size:24px;"">Correct :)</p>","",""
"2418","key","n","n","16.666000000000448","500","250","psychophysics","184","683967","0.0-184.0","5b6a87d2cda8590001db8e07","6213ce141f8fb6164227a068","4","","","","","1","7"
"null","","","null","","","","html-keyboard-response","185","684469","0.0-185.0","5b6a87d2cda8590001db8e07","6213ce141f8fb6164227a068","","","","","<p style=""color:darkgreen;font-size:24px;"">Correct :)</p>","",""
"2382","key","n","n","16.666000000000086","500","250","psychophysics","186","686857","0.0-186.0","5b6a87d2cda8590001db8e07","6213ce141f8fb6164227a068","4","","","","","1","6"
"null","","","null","","","","html-keyboard-response","187","687360","0.0-187.0","5b6a87d2cda8590001db8e07","6213ce141f8fb6164227a068","","","","","<p style=""color:darkgreen;font-size:24px;"">Correct :)</p>","",""
"2415","key","n","n","16.666000000000448","500","250","psychophysics","188","689780","0.0-188.0","5b6a87d2cda8590001db8e07","6213ce141f8fb6164227a068","4","","","","","1","6"
"null","","","null","","","","html-keyboard-response","189","690283","0.0-189.0","5b6a87d2cda8590001db8e07","6213ce141f8fb6164227a068","","","","","<p style=""color:darkgreen;font-size:24px;"">Correct :)</p>","",""
"2434","key","v","v","16.66600000000023","500","250","psychophysics","190","692720","0.0-190.0","5b6a87d2cda8590001db8e07","6213ce141f8fb6164227a068","4","","","","","1","4"
"null","","","null","","","","html-keyboard-response","191","693222","0.0-191.0","5b6a87d2cda8590001db8e07","6213ce141f8fb6164227a068","","","","","<p style=""color:darkgreen;font-size:24px;"">Correct :)</p>","",""
"2517","key","n","n","16.665999999999737","500","250","psychophysics","192","695752","0.0-192.0","5b6a87d2cda8590001db8e07","6213ce141f8fb6164227a068","4","","","","","1","8"
"null","","","null","","","","html-keyboard-response","193","696256","0.0-193.0","5b6a87d2cda8590001db8e07","6213ce141f8fb6164227a068","","","","","<p style=""color:darkgreen;font-size:24px;"">Correct :)</p>","",""
"12722","","","v","","","","html-keyboard-response","194","708979","0.0-194.0","5b6a87d2cda8590001db8e07","6213ce141f8fb6164227a068","","","","","<p> Ok, now we are going present the same digits as before.  Your job is to say whether the digit is even or odd  If the digit is odd, press to v key; if it is even, press the n key. We are going to do 50 of these.  </p>  <br><br>  Ready? (press v or n)","",""
"2813","key","n","n","16.66600000000002","500","250","psychophysics","195","711799","0.0-195.0","5b6a87d2cda8590001db8e07","6213ce141f8fb6164227a068","5","","","","","0","4"
"null","","","null","","","","html-keyboard-response","196","712300","0.0-196.0","5b6a87d2cda8590001db8e07","6213ce141f8fb6164227a068","","","","","<p style=""color:darkgreen;font-size:24px;"">Correct :)</p>","",""
"2630","key","n","n","16.666000000000018","500","250","psychophysics","197","714935","0.0-197.0","5b6a87d2cda8590001db8e07","6213ce141f8fb6164227a068","5","","","","","0","8"
"null","","","null","","","","html-keyboard-response","198","715437","0.0-198.0","5b6a87d2cda8590001db8e07","6213ce141f8fb6164227a068","","","","","<p style=""color:darkgreen;font-size:24px;"">Correct :)</p>","",""
"2505","key","n","n","16.665999999999944","500","250","psychophysics","199","717954","0.0-199.0","5b6a87d2cda8590001db8e07","6213ce141f8fb6164227a068","5","","","","","0","9"
"null","","","null","","","","html-keyboard-response","200","718456","0.0-200.0","5b6a87d2cda8590001db8e07","6213ce141f8fb6164227a068","","","","","<p style=""color:red;font-size:24px;"">Error :(</p>","",""
"2805","key","v","v","16.66600000000021","500","250","psychophysics","201","721266","0.0-201.0","5b6a87d2cda8590001db8e07","6213ce141f8fb6164227a068","5","","","","","0","7"
"null","","","null","","","","html-keyboard-response","202","721770","0.0-202.0","5b6a87d2cda8590001db8e07","6213ce141f8fb6164227a068","","","","","<p style=""color:darkgreen;font-size:24px;"">Correct :)</p>","",""
"2536","key","n","n","16.665999999999737","500","250","psychophysics","203","724309","0.0-203.0","5b6a87d2cda8590001db8e07","6213ce141f8fb6164227a068","5","","","","","0","4"
"null","","","null","","","","html-keyboard-response","204","724812","0.0-204.0","5b6a87d2cda8590001db8e07","6213ce141f8fb6164227a068","","","","","<p style=""color:darkgreen;font-size:24px;"">Correct :)</p>","",""
"2660","key","n","n","16.66599999999982","500","250","psychophysics","205","727483","0.0-205.0","5b6a87d2cda8590001db8e07","6213ce141f8fb6164227a068","5","","","","","0","9"
"null","","","null","","","","html-keyboard-response","206","727985","0.0-206.0","5b6a87d2cda8590001db8e07","6213ce141f8fb6164227a068","","","","","<p style=""color:red;font-size:24px;"">Error :(</p>","",""
"2735","key","n","n","16.666000000000277","500","250","psychophysics","207","730725","0.0-207.0","5b6a87d2cda8590001db8e07","6213ce141f8fb6164227a068","5","","","","","0","4"
"null","","","null","","","","html-keyboard-response","208","731228","0.0-208.0","5b6a87d2cda8590001db8e07","6213ce141f8fb6164227a068","","","","","<p style=""color:darkgreen;font-size:24px;"">Correct :)</p>","",""
"2665","key","v","v","16.66600000000035","500","250","psychophysics","209","733898","0.0-209.0","5b6a87d2cda8590001db8e07","6213ce141f8fb6164227a068","5","","","","","0","9"
"null","","","null","","","","html-keyboard-response","210","734402","0.0-210.0","5b6a87d2cda8590001db8e07","6213ce141f8fb6164227a068","","","","","<p style=""color:darkgreen;font-size:24px;"">Correct :)</p>","",""
"2735","key","v","v","16.666000000000277","500","250","psychophysics","211","737142","0.0-211.0","5b6a87d2cda8590001db8e07","6213ce141f8fb6164227a068","5","","","","","0","7"
"null","","","null","","","","html-keyboard-response","212","737644","0.0-212.0","5b6a87d2cda8590001db8e07","6213ce141f8fb6164227a068","","","","","<p style=""color:darkgreen;font-size:24px;"">Correct :)</p>","",""
"2525","key","n","n","16.665999999999737","500","250","psychophysics","213","740174","0.0-213.0","5b6a87d2cda8590001db8e07","6213ce141f8fb6164227a068","5","","","","","0","9"
"null","","","null","","","","html-keyboard-response","214","740679","0.0-214.0","5b6a87d2cda8590001db8e07","6213ce141f8fb6164227a068","","","","","<p style=""color:red;font-size:24px;"">Error :(</p>","",""
"2632","key","n","n","16.666000000000018","500","250","psychophysics","215","743317","0.0-215.0","5b6a87d2cda8590001db8e07","6213ce141f8fb6164227a068","5","","","","","0","6"
"null","","","null","","","","html-keyboard-response","216","743820","0.0-216.0","5b6a87d2cda8590001db8e07","6213ce141f8fb6164227a068","","","","","<p style=""color:darkgreen;font-size:24px;"">Correct :)</p>","",""
"2541","key","n","n","16.66599999999953","500","250","psychophysics","217","746366","0.0-217.0","5b6a87d2cda8590001db8e07","6213ce141f8fb6164227a068","5","","","","","0","6"
"null","","","null","","","","html-keyboard-response","218","746871","0.0-218.0","5b6a87d2cda8590001db8e07","6213ce141f8fb6164227a068","","","","","<p style=""color:darkgreen;font-size:24px;"">Correct :)</p>","",""
"2527","key","v","v","16.665999999999737","500","250","psychophysics","219","749412","0.0-219.0","5b6a87d2cda8590001db8e07","6213ce141f8fb6164227a068","5","","","","","0","3"
"null","","","null","","","","html-keyboard-response","220","749916","0.0-220.0","5b6a87d2cda8590001db8e07","6213ce141f8fb6164227a068","","","","","<p style=""color:darkgreen;font-size:24px;"">Correct :)</p>","",""
"2545","key","v","v","16.6660000000005","500","250","psychophysics","221","752466","0.0-221.0","5b6a87d2cda8590001db8e07","6213ce141f8fb6164227a068","5","","","","","0","7"
"null","","","null","","","","html-keyboard-response","222","752967","0.0-222.0","5b6a87d2cda8590001db8e07","6213ce141f8fb6164227a068","","","","","<p style=""color:darkgreen;font-size:24px;"">Correct :)</p>","",""
"2450","key","n","n","16.66600000000001","500","250","psychophysics","223","755422","0.0-223.0","5b6a87d2cda8590001db8e07","6213ce141f8fb6164227a068","5","","","","","0","8"
"null","","","null","","","","html-keyboard-response","224","755924","0.0-224.0","5b6a87d2cda8590001db8e07","6213ce141f8fb6164227a068","","","","","<p style=""color:darkgreen;font-size:24px;"">Correct :)</p>","",""
"2388","key","v","v","16.665999999999865","500","250","psychophysics","225","758325","0.0-225.0","5b6a87d2cda8590001db8e07","6213ce141f8fb6164227a068","5","","","","","0","7"
"null","","","null","","","","html-keyboard-response","226","758829","0.0-226.0","5b6a87d2cda8590001db8e07","6213ce141f8fb6164227a068","","","","","<p style=""color:darkgreen;font-size:24px;"">Correct :)</p>","",""
"2544","key","n","n","16.66599999999953","500","250","psychophysics","227","761377","0.0-227.0","5b6a87d2cda8590001db8e07","6213ce141f8fb6164227a068","5","","","","","0","6"
"null","","","null","","","","html-keyboard-response","228","761879","0.0-228.0","5b6a87d2cda8590001db8e07","6213ce141f8fb6164227a068","","","","","<p style=""color:darkgreen;font-size:24px;"">Correct :)</p>","",""
"2546","key","n","n","16.665999999999737","500","250","psychophysics","229","764430","0.0-229.0","5b6a87d2cda8590001db8e07","6213ce141f8fb6164227a068","5","","","","","0","8"
"null","","","null","","","","html-keyboard-response","230","764934","0.0-230.0","5b6a87d2cda8590001db8e07","6213ce141f8fb6164227a068","","","","","<p style=""color:darkgreen;font-size:24px;"">Correct :)</p>","",""
"2740","key","n","n","16.666000000000277","500","250","psychophysics","231","767679","0.0-231.0","5b6a87d2cda8590001db8e07","6213ce141f8fb6164227a068","5","","","","","0","6"
"null","","","null","","","","html-keyboard-response","232","768184","0.0-232.0","5b6a87d2cda8590001db8e07","6213ce141f8fb6164227a068","","","","","<p style=""color:darkgreen;font-size:24px;"">Correct :)</p>","",""
"2493","key","v","v","16.666000000000157","500","250","psychophysics","233","770690","0.0-233.0","5b6a87d2cda8590001db8e07","6213ce141f8fb6164227a068","5","","","","","0","1"
"null","","","null","","","","html-keyboard-response","234","771192","0.0-234.0","5b6a87d2cda8590001db8e07","6213ce141f8fb6164227a068","","","","","<p style=""color:darkgreen;font-size:24px;"">Correct :)</p>","",""
"2550","key","n","n","16.66600000000029","500","250","psychophysics","235","773747","0.0-235.0","5b6a87d2cda8590001db8e07","6213ce141f8fb6164227a068","5","","","","","0","8"
"null","","","null","","","","html-keyboard-response","236","774248","0.0-236.0","5b6a87d2cda8590001db8e07","6213ce141f8fb6164227a068","","","","","<p style=""color:darkgreen;font-size:24px;"">Correct :)</p>","",""
"2714","key","v","v","16.666000000000473","500","250","psychophysics","237","776976","0.0-237.0","5b6a87d2cda8590001db8e07","6213ce141f8fb6164227a068","5","","","","","0","4"
"null","","","null","","","","html-keyboard-response","238","777480","0.0-238.0","5b6a87d2cda8590001db8e07","6213ce141f8fb6164227a068","","","","","<p style=""color:red;font-size:24px;"">Error :(</p>","",""
"2539","key","v","v","16.6660000000005","500","250","psychophysics","239","780023","0.0-239.0","5b6a87d2cda8590001db8e07","6213ce141f8fb6164227a068","5","","","","","0","3"
"null","","","null","","","","html-keyboard-response","240","780528","0.0-240.0","5b6a87d2cda8590001db8e07","6213ce141f8fb6164227a068","","","","","<p style=""color:darkgreen;font-size:24px;"">Correct :)</p>","",""
"2525","key","n","n","16.665999999999737","500","250","psychophysics","241","783058","0.0-241.0","5b6a87d2cda8590001db8e07","6213ce141f8fb6164227a068","5","","","","","0","9"
"null","","","null","","","","html-keyboard-response","242","783562","0.0-242.0","5b6a87d2cda8590001db8e07","6213ce141f8fb6164227a068","","","","","<p style=""color:red;font-size:24px;"">Error :(</p>","",""
"2527","key","v","v","16.6660000000005","500","250","psychophysics","243","786094","0.0-243.0","5b6a87d2cda8590001db8e07","6213ce141f8fb6164227a068","5","","","","","0","4"
"null","","","null","","","","html-keyboard-response","244","786596","0.0-244.0","5b6a87d2cda8590001db8e07","6213ce141f8fb6164227a068","","","","","<p style=""color:red;font-size:24px;"">Error :(</p>","",""
"2787","key","v","v","16.665999999999705","500","250","psychophysics","245","789388","0.0-245.0","5b6a87d2cda8590001db8e07","6213ce141f8fb6164227a068","5","","","","","0","9"
"null","","","null","","","","html-keyboard-response","246","789891","0.0-246.0","5b6a87d2cda8590001db8e07","6213ce141f8fb6164227a068","","","","","<p style=""color:darkgreen;font-size:24px;"">Correct :)</p>","",""
"2681","key","n","n","16.665999999999954","500","250","psychophysics","247","792586","0.0-247.0","5b6a87d2cda8590001db8e07","6213ce141f8fb6164227a068","5","","","","","0","2"
"null","","","null","","","","html-keyboard-response","248","793091","0.0-248.0","5b6a87d2cda8590001db8e07","6213ce141f8fb6164227a068","","","","","<p style=""color:darkgreen;font-size:24px;"">Correct :)</p>","",""
"2542","key","n","n","16.66599999999953","500","250","psychophysics","249","795635","0.0-249.0","5b6a87d2cda8590001db8e07","6213ce141f8fb6164227a068","5","","","","","0","6"
"null","","","null","","","","html-keyboard-response","250","796137","0.0-250.0","5b6a87d2cda8590001db8e07","6213ce141f8fb6164227a068","","","","","<p style=""color:darkgreen;font-size:24px;"">Correct :)</p>","",""
"2521","key","v","v","16.665999999999944","500","250","psychophysics","251","798662","0.0-251.0","5b6a87d2cda8590001db8e07","6213ce141f8fb6164227a068","5","","","","","0","1"
"null","","","null","","","","html-keyboard-response","252","799166","0.0-252.0","5b6a87d2cda8590001db8e07","6213ce141f8fb6164227a068","","","","","<p style=""color:darkgreen;font-size:24px;"">Correct :)</p>","",""
"2532","key","n","n","16.665999999999737","500","250","psychophysics","253","801711","0.0-253.0","5b6a87d2cda8590001db8e07","6213ce141f8fb6164227a068","5","","","","","0","4"
"null","","","null","","","","html-keyboard-response","254","802214","0.0-254.0","5b6a87d2cda8590001db8e07","6213ce141f8fb6164227a068","","","","","<p style=""color:darkgreen;font-size:24px;"">Correct :)</p>","",""
"2527","key","n","n","16.665999999999944","500","250","psychophysics","255","804746","0.0-255.0","5b6a87d2cda8590001db8e07","6213ce141f8fb6164227a068","5","","","","","0","6"
"null","","","null","","","","html-keyboard-response","256","805248","0.0-256.0","5b6a87d2cda8590001db8e07","6213ce141f8fb6164227a068","","","","","<p style=""color:darkgreen;font-size:24px;"">Correct :)</p>","",""
"2440","key","v","v","16.66600000000023","500","250","psychophysics","257","807693","0.0-257.0","5b6a87d2cda8590001db8e07","6213ce141f8fb6164227a068","5","","","","","0","1"
"null","","","null","","","","html-keyboard-response","258","808195","0.0-258.0","5b6a87d2cda8590001db8e07","6213ce141f8fb6164227a068","","","","","<p style=""color:darkgreen;font-size:24px;"">Correct :)</p>","",""
"2507","key","n","n","16.665999999999944","500","250","psychophysics","259","810718","0.0-259.0","5b6a87d2cda8590001db8e07","6213ce141f8fb6164227a068","5","","","","","0","2"
"null","","","null","","","","html-keyboard-response","260","811220","0.0-260.0","5b6a87d2cda8590001db8e07","6213ce141f8fb6164227a068","","","","","<p style=""color:darkgreen;font-size:24px;"">Correct :)</p>","",""
"2711","key","v","v","16.66599999999976","500","250","psychophysics","261","813936","0.0-261.0","5b6a87d2cda8590001db8e07","6213ce141f8fb6164227a068","5","","","","","0","9"
"null","","","null","","","","html-keyboard-response","262","814441","0.0-262.0","5b6a87d2cda8590001db8e07","6213ce141f8fb6164227a068","","","","","<p style=""color:darkgreen;font-size:24px;"">Correct :)</p>","",""
"2483","key","v","v","16.66600000000037","500","250","psychophysics","263","816927","0.0-263.0","5b6a87d2cda8590001db8e07","6213ce141f8fb6164227a068","5","","","","","0","1"
"null","","","null","","","","html-keyboard-response","264","817428","0.0-264.0","5b6a87d2cda8590001db8e07","6213ce141f8fb6164227a068","","","","","<p style=""color:darkgreen;font-size:24px;"">Correct :)</p>","",""
"2577","key","v","v","16.66599999999988","500","250","psychophysics","265","820010","0.0-265.0","5b6a87d2cda8590001db8e07","6213ce141f8fb6164227a068","5","","","","","0","3"
"null","","","null","","","","html-keyboard-response","266","820512","0.0-266.0","5b6a87d2cda8590001db8e07","6213ce141f8fb6164227a068","","","","","<p style=""color:darkgreen;font-size:24px;"">Correct :)</p>","",""
"2683","key","v","v","16.66599999999943","500","250","psychophysics","267","823200","0.0-267.0","5b6a87d2cda8590001db8e07","6213ce141f8fb6164227a068","5","","","","","0","1"
"null","","","null","","","","html-keyboard-response","268","823705","0.0-268.0","5b6a87d2cda8590001db8e07","6213ce141f8fb6164227a068","","","","","<p style=""color:darkgreen;font-size:24px;"">Correct :)</p>","",""
"2486","key","n","n","16.66599999999959","500","250","psychophysics","269","826196","0.0-269.0","5b6a87d2cda8590001db8e07","6213ce141f8fb6164227a068","5","","","","","0","2"
"null","","","null","","","","html-keyboard-response","270","826698","0.0-270.0","5b6a87d2cda8590001db8e07","6213ce141f8fb6164227a068","","","","","<p style=""color:darkgreen;font-size:24px;"">Correct :)</p>","",""
"2514","key","v","v","16.666000000000714","500","250","psychophysics","271","829225","0.0-271.0","5b6a87d2cda8590001db8e07","6213ce141f8fb6164227a068","5","","","","","0","3"
"null","","","null","","","","html-keyboard-response","272","829726","0.0-272.0","5b6a87d2cda8590001db8e07","6213ce141f8fb6164227a068","","","","","<p style=""color:darkgreen;font-size:24px;"">Correct :)</p>","",""
"2605","key","v","v","16.665999999999478","500","250","psychophysics","273","832336","0.0-273.0","5b6a87d2cda8590001db8e07","6213ce141f8fb6164227a068","5","","","","","0","9"
"null","","","null","","","","html-keyboard-response","274","832841","0.0-274.0","5b6a87d2cda8590001db8e07","6213ce141f8fb6164227a068","","","","","<p style=""color:darkgreen;font-size:24px;"">Correct :)</p>","",""
"2566","key","n","n","17.110426666665976","500","250","psychophysics","275","835412","0.0-275.0","5b6a87d2cda8590001db8e07","6213ce141f8fb6164227a068","5","","","","","0","6"
"null","","","null","","","","html-keyboard-response","276","835913","0.0-276.0","5b6a87d2cda8590001db8e07","6213ce141f8fb6164227a068","","","","","<p style=""color:darkgreen;font-size:24px;"">Correct :)</p>","",""
"2496","key","v","v","16.666000000000157","500","250","psychophysics","277","838422","0.0-277.0","5b6a87d2cda8590001db8e07","6213ce141f8fb6164227a068","5","","","","","0","3"
"null","","","null","","","","html-keyboard-response","278","838926","0.0-278.0","5b6a87d2cda8590001db8e07","6213ce141f8fb6164227a068","","","","","<p style=""color:darkgreen;font-size:24px;"">Correct :)</p>","",""
"2446","key","v","v","16.66600000000001","500","250","psychophysics","279","841377","0.0-279.0","5b6a87d2cda8590001db8e07","6213ce141f8fb6164227a068","5","","","","","0","1"
"null","","","null","","","","html-keyboard-response","280","841881","0.0-280.0","5b6a87d2cda8590001db8e07","6213ce141f8fb6164227a068","","","","","<p style=""color:darkgreen;font-size:24px;"">Correct :)</p>","",""
"2434","key","v","v","16.66600000000023","500","250","psychophysics","281","844320","0.0-281.0","5b6a87d2cda8590001db8e07","6213ce141f8fb6164227a068","5","","","","","0","1"
"null","","","null","","","","html-keyboard-response","282","844822","0.0-282.0","5b6a87d2cda8590001db8e07","6213ce141f8fb6164227a068","","","","","<p style=""color:darkgreen;font-size:24px;"">Correct :)</p>","",""
"2522","key","n","n","16.665999999999737","500","250","psychophysics","283","847350","0.0-283.0","5b6a87d2cda8590001db8e07","6213ce141f8fb6164227a068","5","","","","","0","8"
"null","","","null","","","","html-keyboard-response","284","847855","0.0-284.0","5b6a87d2cda8590001db8e07","6213ce141f8fb6164227a068","","","","","<p style=""color:darkgreen;font-size:24px;"">Correct :)</p>","",""
"2417","key","v","v","16.665999999999645","500","250","psychophysics","285","850277","0.0-285.0","5b6a87d2cda8590001db8e07","6213ce141f8fb6164227a068","5","","","","","0","1"
"null","","","null","","","","html-keyboard-response","286","850779","0.0-286.0","5b6a87d2cda8590001db8e07","6213ce141f8fb6164227a068","","","","","<p style=""color:darkgreen;font-size:24px;"">Correct :)</p>","",""
"2511","key","n","n","16.665999999999944","500","250","psychophysics","287","853304","0.0-287.0","5b6a87d2cda8590001db8e07","6213ce141f8fb6164227a068","5","","","","","0","6"
"null","","","null","","","","html-keyboard-response","288","853807","0.0-288.0","5b6a87d2cda8590001db8e07","6213ce141f8fb6164227a068","","","","","<p style=""color:darkgreen;font-size:24px;"">Correct :)</p>","",""
"2506","key","v","v","16.665999999999944","500","250","psychophysics","289","856318","0.0-289.0","5b6a87d2cda8590001db8e07","6213ce141f8fb6164227a068","5","","","","","0","9"
"null","","","null","","","","html-keyboard-response","290","856820","0.0-290.0","5b6a87d2cda8590001db8e07","6213ce141f8fb6164227a068","","","","","<p style=""color:darkgreen;font-size:24px;"">Correct :)</p>","",""
"2500","key","v","v","16.666000000000157","500","250","psychophysics","291","859326","0.0-291.0","5b6a87d2cda8590001db8e07","6213ce141f8fb6164227a068","5","","","","","0","1"
"null","","","null","","","","html-keyboard-response","292","859829","0.0-292.0","5b6a87d2cda8590001db8e07","6213ce141f8fb6164227a068","","","","","<p style=""color:darkgreen;font-size:24px;"">Correct :)</p>","",""
"2432","key","v","v","16.66600000000023","500","250","psychophysics","293","862274","0.0-293.0","5b6a87d2cda8590001db8e07","6213ce141f8fb6164227a068","5","","","","","0","3"
"null","","","null","","","","html-keyboard-response","294","862778","0.0-294.0","5b6a87d2cda8590001db8e07","6213ce141f8fb6164227a068","","","","","<p style=""color:darkgreen;font-size:24px;"">Correct :)</p>","",""
"6577","","","v","","","","html-keyboard-response","295","869357","0.0-295.0","5b6a87d2cda8590001db8e07","6213ce141f8fb6164227a068","","","","","<p> Here, the tasks are going to switch.  For some trials, your job is to decide if the digit is less than or greater than 5.  For others, it is to decide if the digit is even or odd.  You will be told which type of trial the current one is.  But, pay attention, the type of trial changes too.  We are going to do 50 of these.  </p>  <br><br>  Ready? (press v or n)","",""
"2717","key","v","v","16.66599999999976","500","250","psychophysics","296","872078","0.0-296.0","5b6a87d2cda8590001db8e07","6213ce141f8fb6164227a068","6","","","","","0","7"
"null","","","null","","","","html-keyboard-response","297","872581","0.0-297.0","5b6a87d2cda8590001db8e07","6213ce141f8fb6164227a068","","","","","<p style=""color:darkgreen;font-size:24px;"">Correct :)</p>","",""
"2941","key","v","v","16.665999999999904","500","250","psychophysics","298","875535","0.0-298.0","5b6a87d2cda8590001db8e07","6213ce141f8fb6164227a068","6","","","","","1","3"
"null","","","null","","","","html-keyboard-response","299","876039","0.0-299.0","5b6a87d2cda8590001db8e07","6213ce141f8fb6164227a068","","","","","<p style=""color:darkgreen;font-size:24px;"">Correct :)</p>","",""
"2594","key","n","n","16.665999999999677","500","250","psychophysics","300","878636","0.0-300.0","5b6a87d2cda8590001db8e07","6213ce141f8fb6164227a068","6","","","","","0","2"
"null","","","null","","","","html-keyboard-response","301","879140","0.0-301.0","5b6a87d2cda8590001db8e07","6213ce141f8fb6164227a068","","","","","<p style=""color:darkgreen;font-size:24px;"">Correct :)</p>","",""
"2752","key","n","n","16.665999999999894","500","250","psychophysics","302","881902","0.0-302.0","5b6a87d2cda8590001db8e07","6213ce141f8fb6164227a068","6","","","","","0","4"
"null","","","null","","","","html-keyboard-response","303","882405","0.0-303.0","5b6a87d2cda8590001db8e07","6213ce141f8fb6164227a068","","","","","<p style=""color:darkgreen;font-size:24px;"">Correct :)</p>","",""
"2944","key","n","n","16.665999999999904","500","250","psychophysics","304","885354","0.0-304.0","5b6a87d2cda8590001db8e07","6213ce141f8fb6164227a068","6","","","","","1","9"
"null","","","null","","","","html-keyboard-response","305","885856","0.0-305.0","5b6a87d2cda8590001db8e07","6213ce141f8fb6164227a068","","","","","<p style=""color:darkgreen;font-size:24px;"">Correct :)</p>","",""
"2715","key","n","n","16.66599999999976","500","250","psychophysics","306","888575","0.0-306.0","5b6a87d2cda8590001db8e07","6213ce141f8fb6164227a068","6","","","","","0","8"
"null","","","null","","","","html-keyboard-response","307","889077","0.0-307.0","5b6a87d2cda8590001db8e07","6213ce141f8fb6164227a068","","","","","<p style=""color:darkgreen;font-size:24px;"">Correct :)</p>","",""
"2694","key","v","v","16.665999999999954","500","250","psychophysics","308","891785","0.0-308.0","5b6a87d2cda8590001db8e07","6213ce141f8fb6164227a068","6","","","","","0","3"
"null","","","null","","","","html-keyboard-response","309","892288","0.0-309.0","5b6a87d2cda8590001db8e07","6213ce141f8fb6164227a068","","","","","<p style=""color:darkgreen;font-size:24px;"">Correct :)</p>","",""
"2533","key","v","v","16.665999999999737","500","250","psychophysics","310","894826","0.0-310.0","5b6a87d2cda8590001db8e07","6213ce141f8fb6164227a068","6","","","","","1","1"
"null","","","null","","","","html-keyboard-response","311","895328","0.0-311.0","5b6a87d2cda8590001db8e07","6213ce141f8fb6164227a068","","","","","<p style=""color:darkgreen;font-size:24px;"">Correct :)</p>","",""
"2637","key","v","v","16.666000000000018","500","250","psychophysics","312","897970","0.0-312.0","5b6a87d2cda8590001db8e07","6213ce141f8fb6164227a068","6","","","","","0","1"
"null","","","null","","","","html-keyboard-response","313","898475","0.0-313.0","5b6a87d2cda8590001db8e07","6213ce141f8fb6164227a068","","","","","<p style=""color:darkgreen;font-size:24px;"">Correct :)</p>","",""
"2535","key","v","v","16.66599999999953","500","250","psychophysics","314","901025","0.0-314.0","5b6a87d2cda8590001db8e07","6213ce141f8fb6164227a068","6","","","","","0","3"
"null","","","null","","","","html-keyboard-response","315","901527","0.0-315.0","5b6a87d2cda8590001db8e07","6213ce141f8fb6164227a068","","","","","<p style=""color:darkgreen;font-size:24px;"">Correct :)</p>","",""
"2569","key","v","v","16.666000000000086","500","250","psychophysics","316","904099","0.0-316.0","5b6a87d2cda8590001db8e07","6213ce141f8fb6164227a068","6","","","","","1","1"
"null","","","null","","","","html-keyboard-response","317","904603","0.0-317.0","5b6a87d2cda8590001db8e07","6213ce141f8fb6164227a068","","","","","<p style=""color:darkgreen;font-size:24px;"">Correct :)</p>","",""
"2640","key","n","n","16.66599999999982","500","250","psychophysics","318","907250","0.0-318.0","5b6a87d2cda8590001db8e07","6213ce141f8fb6164227a068","6","","","","","1","6"
"null","","","null","","","","html-keyboard-response","319","907755","0.0-319.0","5b6a87d2cda8590001db8e07","6213ce141f8fb6164227a068","","","","","<p style=""color:darkgreen;font-size:24px;"">Correct :)</p>","",""
"2654","key","n","n","16.66600000000035","500","250","psychophysics","320","910422","0.0-320.0","5b6a87d2cda8590001db8e07","6213ce141f8fb6164227a068","6","","","","","0","8"
"null","","","null","","","","html-keyboard-response","321","910924","0.0-321.0","5b6a87d2cda8590001db8e07","6213ce141f8fb6164227a068","","","","","<p style=""color:darkgreen;font-size:24px;"">Correct :)</p>","",""
"2620","key","n","n","16.666000000000018","500","250","psychophysics","322","913550","0.0-322.0","5b6a87d2cda8590001db8e07","6213ce141f8fb6164227a068","6","","","","","1","9"
"null","","","null","","","","html-keyboard-response","323","914054","0.0-323.0","5b6a87d2cda8590001db8e07","6213ce141f8fb6164227a068","","","","","<p style=""color:darkgreen;font-size:24px;"">Correct :)</p>","",""
"2400","key","n","n","16.665999999999865","500","250","psychophysics","324","916459","0.0-324.0","5b6a87d2cda8590001db8e07","6213ce141f8fb6164227a068","6","","","","","1","8"
"null","","","null","","","","html-keyboard-response","325","916961","0.0-325.0","5b6a87d2cda8590001db8e07","6213ce141f8fb6164227a068","","","","","<p style=""color:darkgreen;font-size:24px;"">Correct :)</p>","",""
"2543","key","v","v","16.66599999999953","500","250","psychophysics","326","919517","0.0-326.0","5b6a87d2cda8590001db8e07","6213ce141f8fb6164227a068","6","","","","","0","2"
"null","","","null","","","","html-keyboard-response","327","920022","0.0-327.0","5b6a87d2cda8590001db8e07","6213ce141f8fb6164227a068","","","","","<p style=""color:red;font-size:24px;"">Error :(</p>","",""
"2408","key","n","n","16.666000000000448","500","250","psychophysics","328","922435","0.0-328.0","5b6a87d2cda8590001db8e07","6213ce141f8fb6164227a068","6","","","","","1","7"
"null","","","null","","","","html-keyboard-response","329","922939","0.0-329.0","5b6a87d2cda8590001db8e07","6213ce141f8fb6164227a068","","","","","<p style=""color:darkgreen;font-size:24px;"">Correct :)</p>","",""
"2526","key","n","n","16.665999999999737","500","250","psychophysics","330","925471","0.0-330.0","5b6a87d2cda8590001db8e07","6213ce141f8fb6164227a068","6","","","","","0","9"
"null","","","null","","","","html-keyboard-response","331","925974","0.0-331.0","5b6a87d2cda8590001db8e07","6213ce141f8fb6164227a068","","","","","<p style=""color:red;font-size:24px;"">Error :(</p>","",""
"2513","key","v","v","16.666000000000157","500","250","psychophysics","332","928491","0.0-332.0","5b6a87d2cda8590001db8e07","6213ce141f8fb6164227a068","6","","","","","1","3"
"null","","","null","","","","html-keyboard-response","333","928993","0.0-333.0","5b6a87d2cda8590001db8e07","6213ce141f8fb6164227a068","","","","","<p style=""color:darkgreen;font-size:24px;"">Correct :)</p>","",""
"2753","key","v","v","16.665999999999894","500","250","psychophysics","334","931751","0.0-334.0","5b6a87d2cda8590001db8e07","6213ce141f8fb6164227a068","6","","","","","0","7"
"null","","","null","","","","html-keyboard-response","335","932253","0.0-335.0","5b6a87d2cda8590001db8e07","6213ce141f8fb6164227a068","","","","","<p style=""color:darkgreen;font-size:24px;"">Correct :)</p>","",""
"2562","key","n","n","16.666000000000086","500","250","psychophysics","336","934821","0.0-336.0","5b6a87d2cda8590001db8e07","6213ce141f8fb6164227a068","6","","","","","0","8"
"null","","","null","","","","html-keyboard-response","337","935323","0.0-337.0","5b6a87d2cda8590001db8e07","6213ce141f8fb6164227a068","","","","","<p style=""color:darkgreen;font-size:24px;"">Correct :)</p>","",""
"2593","key","v","v","16.666000000000423","500","250","psychophysics","338","937921","0.0-338.0","5b6a87d2cda8590001db8e07","6213ce141f8fb6164227a068","6","","","","","0","3"
"null","","","null","","","","html-keyboard-response","339","938424","0.0-339.0","5b6a87d2cda8590001db8e07","6213ce141f8fb6164227a068","","","","","<p style=""color:darkgreen;font-size:24px;"">Correct :)</p>","",""
"2549","key","v","v","16.66600000000029","500","250","psychophysics","340","940988","0.0-340.0","5b6a87d2cda8590001db8e07","6213ce141f8fb6164227a068","6","","","","","1","1"
"null","","","null","","","","html-keyboard-response","341","941490","0.0-341.0","5b6a87d2cda8590001db8e07","6213ce141f8fb6164227a068","","","","","<p style=""color:darkgreen;font-size:24px;"">Correct :)</p>","",""
"2526","key","v","v","16.665999999999737","500","250","psychophysics","342","944021","0.0-342.0","5b6a87d2cda8590001db8e07","6213ce141f8fb6164227a068","6","","","","","0","1"
"null","","","null","","","","html-keyboard-response","343","944524","0.0-343.0","5b6a87d2cda8590001db8e07","6213ce141f8fb6164227a068","","","","","<p style=""color:darkgreen;font-size:24px;"">Correct :)</p>","",""
"2575","key","n","n","16.66599999999933","500","250","psychophysics","344","947104","0.0-344.0","5b6a87d2cda8590001db8e07","6213ce141f8fb6164227a068","6","","","","","0","8"
"null","","","null","","","","html-keyboard-response","345","947607","0.0-345.0","5b6a87d2cda8590001db8e07","6213ce141f8fb6164227a068","","","","","<p style=""color:darkgreen;font-size:24px;"">Correct :)</p>","",""
"2550","key","v","v","16.66599999999933","500","250","psychophysics","346","950170","0.0-346.0","5b6a87d2cda8590001db8e07","6213ce141f8fb6164227a068","6","","","","","0","7"
"null","","","null","","","","html-keyboard-response","347","950674","0.0-347.0","5b6a87d2cda8590001db8e07","6213ce141f8fb6164227a068","","","","","<p style=""color:darkgreen;font-size:24px;"">Correct :)</p>","",""
"2542","key","n","n","16.66599999999953","500","250","psychophysics","348","953221","0.0-348.0","5b6a87d2cda8590001db8e07","6213ce141f8fb6164227a068","6","","","","","1","6"
"null","","","null","","","","html-keyboard-response","349","953724","0.0-349.0","5b6a87d2cda8590001db8e07","6213ce141f8fb6164227a068","","","","","<p style=""color:darkgreen;font-size:24px;"">Correct :)</p>","",""
"2571","key","n","n","16.666000000000086","500","250","psychophysics","350","956299","0.0-350.0","5b6a87d2cda8590001db8e07","6213ce141f8fb6164227a068","6","","","","","0","7"
"null","","","null","","","","html-keyboard-response","351","956802","0.0-351.0","5b6a87d2cda8590001db8e07","6213ce141f8fb6164227a068","","","","","<p style=""color:red;font-size:24px;"">Error :(</p>","",""
"2510","key","n","n","16.665999999999944","500","250","psychophysics","352","959317","0.0-352.0","5b6a87d2cda8590001db8e07","6213ce141f8fb6164227a068","6","","","","","1","6"
"null","","","null","","","","html-keyboard-response","353","959820","0.0-353.0","5b6a87d2cda8590001db8e07","6213ce141f8fb6164227a068","","","","","<p style=""color:darkgreen;font-size:24px;"">Correct :)</p>","",""
"2551","key","v","v","16.6660000000005","500","250","psychophysics","354","962377","0.0-354.0","5b6a87d2cda8590001db8e07","6213ce141f8fb6164227a068","6","","","","","0","9"
"null","","","null","","","","html-keyboard-response","355","962882","0.0-355.0","5b6a87d2cda8590001db8e07","6213ce141f8fb6164227a068","","","","","<p style=""color:darkgreen;font-size:24px;"">Correct :)</p>","",""
"2587","key","v","v","16.994934210526193","500","250","psychophysics","356","965474","0.0-356.0","5b6a87d2cda8590001db8e07","6213ce141f8fb6164227a068","6","","","","","0","3"
"null","","","null","","","","html-keyboard-response","357","965976","0.0-357.0","5b6a87d2cda8590001db8e07","6213ce141f8fb6164227a068","","","","","<p style=""color:darkgreen;font-size:24px;"">Correct :)</p>","",""
"2545","key","v","v","16.665999999999737","500","250","psychophysics","358","968524","0.0-358.0","5b6a87d2cda8590001db8e07","6213ce141f8fb6164227a068","6","","","","","0","3"
"null","","","null","","","","html-keyboard-response","359","969026","0.0-359.0","5b6a87d2cda8590001db8e07","6213ce141f8fb6164227a068","","","","","<p style=""color:darkgreen;font-size:24px;"">Correct :)</p>","",""
"2623","key","n","n","16.9885677419355","500","250","psychophysics","360","971654","0.0-360.0","5b6a87d2cda8590001db8e07","6213ce141f8fb6164227a068","6","","","","","0","2"
"null","","","null","","","","html-keyboard-response","361","972158","0.0-361.0","5b6a87d2cda8590001db8e07","6213ce141f8fb6164227a068","","","","","<p style=""color:darkgreen;font-size:24px;"">Correct :)</p>","",""
"2694","key","v","v","16.66600000000015","500","250","psychophysics","362","974858","0.0-362.0","5b6a87d2cda8590001db8e07","6213ce141f8fb6164227a068","6","","","","","0","9"
"null","","","null","","","","html-keyboard-response","363","975362","0.0-363.0","5b6a87d2cda8590001db8e07","6213ce141f8fb6164227a068","","","","","<p style=""color:darkgreen;font-size:24px;"">Correct :)</p>","",""
"2737","key","n","n","16.666000000000086","500","250","psychophysics","364","978113","0.0-364.0","5b6a87d2cda8590001db8e07","6213ce141f8fb6164227a068","6","","","","","1","6"
"null","","","null","","","","html-keyboard-response","365","978616","0.0-365.0","5b6a87d2cda8590001db8e07","6213ce141f8fb6164227a068","","","","","<p style=""color:darkgreen;font-size:24px;"">Correct :)</p>","",""
"2632","key","n","n","16.666000000000018","500","250","psychophysics","366","981251","0.0-366.0","5b6a87d2cda8590001db8e07","6213ce141f8fb6164227a068","6","","","","","0","4"
"null","","","null","","","","html-keyboard-response","367","981754","0.0-367.0","5b6a87d2cda8590001db8e07","6213ce141f8fb6164227a068","","","","","<p style=""color:darkgreen;font-size:24px;"">Correct :)</p>","",""
"2575","key","v","v","16.66599999999988","500","250","psychophysics","368","984342","0.0-368.0","5b6a87d2cda8590001db8e07","6213ce141f8fb6164227a068","6","","","","","0","9"
"null","","","null","","","","html-keyboard-response","369","984845","0.0-369.0","5b6a87d2cda8590001db8e07","6213ce141f8fb6164227a068","","","","","<p style=""color:darkgreen;font-size:24px;"">Correct :)</p>","",""
"2512","key","v","v","16.666000000000157","500","250","psychophysics","370","987362","0.0-370.0","5b6a87d2cda8590001db8e07","6213ce141f8fb6164227a068","6","","","","","0","1"
"null","","","null","","","","html-keyboard-response","371","987863","0.0-371.0","5b6a87d2cda8590001db8e07","6213ce141f8fb6164227a068","","","","","<p style=""color:darkgreen;font-size:24px;"">Correct :)</p>","",""
"2487","key","n","n","16.66599999999959","500","250","psychophysics","372","990355","0.0-372.0","5b6a87d2cda8590001db8e07","6213ce141f8fb6164227a068","6","","","","","1","7"
"null","","","null","","","","html-keyboard-response","373","990857","0.0-373.0","5b6a87d2cda8590001db8e07","6213ce141f8fb6164227a068","","","","","<p style=""color:darkgreen;font-size:24px;"">Correct :)</p>","",""
"2561","key","v","v","16.666000000000086","500","250","psychophysics","374","993423","0.0-374.0","5b6a87d2cda8590001db8e07","6213ce141f8fb6164227a068","6","","","","","1","3"
"null","","","null","","","","html-keyboard-response","375","993925","0.0-375.0","5b6a87d2cda8590001db8e07","6213ce141f8fb6164227a068","","","","","<p style=""color:darkgreen;font-size:24px;"">Correct :)</p>","",""
"2474","key","n","n","16.66600000000037","500","250","psychophysics","376","996404","0.0-376.0","5b6a87d2cda8590001db8e07","6213ce141f8fb6164227a068","6","","","","","0","6"
"null","","","null","","","","html-keyboard-response","377","996906","0.0-377.0","5b6a87d2cda8590001db8e07","6213ce141f8fb6164227a068","","","","","<p style=""color:darkgreen;font-size:24px;"">Correct :)</p>","",""
"2739","key","v","v","16.666000000000086","500","250","psychophysics","378","999648","0.0-378.0","5b6a87d2cda8590001db8e07","6213ce141f8fb6164227a068","6","","","","","0","9"
"null","","","null","","","","html-keyboard-response","379","1000152","0.0-379.0","5b6a87d2cda8590001db8e07","6213ce141f8fb6164227a068","","","","","<p style=""color:darkgreen;font-size:24px;"">Correct :)</p>","",""
"2441","key","v","v","16.66600000000001","500","250","psychophysics","380","1002598","0.0-380.0","5b6a87d2cda8590001db8e07","6213ce141f8fb6164227a068","6","","","","","1","3"
"null","","","null","","","","html-keyboard-response","381","1003101","0.0-381.0","5b6a87d2cda8590001db8e07","6213ce141f8fb6164227a068","","","","","<p style=""color:darkgreen;font-size:24px;"">Correct :)</p>","",""
"2445","key","v","v","16.66600000000001","500","250","psychophysics","382","1005559","0.0-382.0","5b6a87d2cda8590001db8e07","6213ce141f8fb6164227a068","6","","","","","1","4"
"null","","","null","","","","html-keyboard-response","383","1006063","0.0-383.0","5b6a87d2cda8590001db8e07","6213ce141f8fb6164227a068","","","","","<p style=""color:darkgreen;font-size:24px;"">Correct :)</p>","",""
"2392","key","v","v","16.666000000000086","500","250","psychophysics","384","1008459","0.0-384.0","5b6a87d2cda8590001db8e07","6213ce141f8fb6164227a068","6","","","","","1","3"
"null","","","null","","","","html-keyboard-response","385","1008963","0.0-385.0","5b6a87d2cda8590001db8e07","6213ce141f8fb6164227a068","","","","","<p style=""color:darkgreen;font-size:24px;"">Correct :)</p>","",""
"2515","key","n","n","16.665999999999944","500","250","psychophysics","386","1011494","0.0-386.0","5b6a87d2cda8590001db8e07","6213ce141f8fb6164227a068","6","","","","","0","4"
"null","","","null","","","","html-keyboard-response","387","1011998","0.0-387.0","5b6a87d2cda8590001db8e07","6213ce141f8fb6164227a068","","","","","<p style=""color:darkgreen;font-size:24px;"">Correct :)</p>","",""
"2513","key","n","n","16.665999999999944","500","250","psychophysics","388","1014516","0.0-388.0","5b6a87d2cda8590001db8e07","6213ce141f8fb6164227a068","6","","","","","1","6"
"null","","","null","","","","html-keyboard-response","389","1015018","0.0-389.0","5b6a87d2cda8590001db8e07","6213ce141f8fb6164227a068","","","","","<p style=""color:darkgreen;font-size:24px;"">Correct :)</p>","",""
"2441","key","v","v","16.66600000000023","500","250","psychophysics","390","1017464","0.0-390.0","5b6a87d2cda8590001db8e07","6213ce141f8fb6164227a068","6","","","","","0","1"
"null","","","null","","","","html-keyboard-response","391","1017966","0.0-391.0","5b6a87d2cda8590001db8e07","6213ce141f8fb6164227a068","","","","","<p style=""color:darkgreen;font-size:24px;"">Correct :)</p>","",""
"2378","key","v","v","16.666000000000086","500","250","psychophysics","392","1020357","0.0-392.0","5b6a87d2cda8590001db8e07","6213ce141f8fb6164227a068","6","","","","","1","3"
"null","","","null","","","","html-keyboard-response","393","1020859","0.0-393.0","5b6a87d2cda8590001db8e07","6213ce141f8fb6164227a068","","","","","<p style=""color:darkgreen;font-size:24px;"">Correct :)</p>","",""
"2502","key","v","v","16.666000000000157","500","250","psychophysics","394","1023367","0.0-394.0","5b6a87d2cda8590001db8e07","6213ce141f8fb6164227a068","6","","","","","0","1"
"null","","","null","","","","html-keyboard-response","395","1023870","0.0-395.0","5b6a87d2cda8590001db8e07","6213ce141f8fb6164227a068","","","","","<p style=""color:darkgreen;font-size:24px;"">Correct :)</p>","",""
"5349","","","v","","","","html-keyboard-response","396","1029220","0.0-396.0","5b6a87d2cda8590001db8e07","6213ce141f8fb6164227a068","","","","","<p> Last set of trials.  Here, the tasks are going to switch once again.  We are going to do 50 of these.  And then you are done with the experiment.  </p>  <br><br>  Ready? (press v or n)","",""
"2460","key","v","v","16.665999999999798","500","250","psychophysics","397","1031683","0.0-397.0","5b6a87d2cda8590001db8e07","6213ce141f8fb6164227a068","7","","","","","1","1"
"null","","","null","","","","html-keyboard-response","398","1032185","0.0-398.0","5b6a87d2cda8590001db8e07","6213ce141f8fb6164227a068","","","","","<p style=""color:darkgreen;font-size:24px;"">Correct :)</p>","",""
"2527","key","n","n","16.665999999999737","500","250","psychophysics","399","1034714","0.0-399.0","5b6a87d2cda8590001db8e07","6213ce141f8fb6164227a068","7","","","","","1","7"
"null","","","null","","","","html-keyboard-response","400","1035216","0.0-400.0","5b6a87d2cda8590001db8e07","6213ce141f8fb6164227a068","","","","","<p style=""color:darkgreen;font-size:24px;"">Correct :)</p>","",""
"2524","key","n","n","16.666000000000714","500","250","psychophysics","401","1037743","0.0-401.0","5b6a87d2cda8590001db8e07","6213ce141f8fb6164227a068","7","","","","","1","6"
"null","","","null","","","","html-keyboard-response","402","1038244","0.0-402.0","5b6a87d2cda8590001db8e07","6213ce141f8fb6164227a068","","","","","<p style=""color:darkgreen;font-size:24px;"">Correct :)</p>","",""
"2444","key","v","v","17.013208333333345","500","250","psychophysics","403","1040705","0.0-403.0","5b6a87d2cda8590001db8e07","6213ce141f8fb6164227a068","7","","","","","1","2"
"null","","","null","","","","html-keyboard-response","404","1041209","0.0-404.0","5b6a87d2cda8590001db8e07","6213ce141f8fb6164227a068","","","","","<p style=""color:darkgreen;font-size:24px;"">Correct :)</p>","",""
"2585","key","n","n","16.66600000000063","500","250","psychophysics","405","1043797","0.0-405.0","5b6a87d2cda8590001db8e07","6213ce141f8fb6164227a068","7","","","","","1","3"
"null","","","null","","","","html-keyboard-response","406","1044299","0.0-406.0","5b6a87d2cda8590001db8e07","6213ce141f8fb6164227a068","","","","","<p style=""color:red;font-size:24px;"">Error :(</p>","",""
"2424","key","v","v","16.665999999999645","500","250","psychophysics","407","1046726","0.0-407.0","5b6a87d2cda8590001db8e07","6213ce141f8fb6164227a068","7","","","","","1","3"
"null","","","null","","","","html-keyboard-response","408","1047228","0.0-408.0","5b6a87d2cda8590001db8e07","6213ce141f8fb6164227a068","","","","","<p style=""color:darkgreen;font-size:24px;"">Correct :)</p>","",""
"2535","key","n","n","16.66599999999897","500","250","psychophysics","409","1049768","0.0-409.0","5b6a87d2cda8590001db8e07","6213ce141f8fb6164227a068","7","","","","","0","6"
"null","","","null","","","","html-keyboard-response","410","1050271","0.0-410.0","5b6a87d2cda8590001db8e07","6213ce141f8fb6164227a068","","","","","<p style=""color:darkgreen;font-size:24px;"">Correct :)</p>","",""
"2663","key","v","v","16.984458598724988","500","250","psychophysics","411","1052939","0.0-411.0","5b6a87d2cda8590001db8e07","6213ce141f8fb6164227a068","7","","","","","0","7"
"null","","","null","","","","html-keyboard-response","412","1053441","0.0-412.0","5b6a87d2cda8590001db8e07","6213ce141f8fb6164227a068","","","","","<p style=""color:darkgreen;font-size:24px;"">Correct :)</p>","",""
"2435","key","v","v","16.66600000000001","500","250","psychophysics","413","1055883","0.0-413.0","5b6a87d2cda8590001db8e07","6213ce141f8fb6164227a068","7","","","","","1","2"
"null","","","null","","","","html-keyboard-response","414","1056384","0.0-414.0","5b6a87d2cda8590001db8e07","6213ce141f8fb6164227a068","","","","","<p style=""color:darkgreen;font-size:24px;"">Correct :)</p>","",""
"2505","key","n","n","16.66600000000093","500","250","psychophysics","415","1058892","0.0-415.0","5b6a87d2cda8590001db8e07","6213ce141f8fb6164227a068","7","","","","","0","6"
"null","","","null","","","","html-keyboard-response","416","1059396","0.0-416.0","5b6a87d2cda8590001db8e07","6213ce141f8fb6164227a068","","","","","<p style=""color:darkgreen;font-size:24px;"">Correct :)</p>","",""
"2594","key","n","n","16.665999999999677","500","250","psychophysics","417","1062004","0.0-417.0","5b6a87d2cda8590001db8e07","6213ce141f8fb6164227a068","7","","","","","0","4"
"null","","","null","","","","html-keyboard-response","418","1062506","0.0-418.0","5b6a87d2cda8590001db8e07","6213ce141f8fb6164227a068","","","","","<p style=""color:darkgreen;font-size:24px;"">Correct :)</p>","",""
"2545","key","n","n","16.66600000000029","500","250","psychophysics","419","1065056","0.0-419.0","5b6a87d2cda8590001db8e07","6213ce141f8fb6164227a068","7","","","","","1","6"
"null","","","null","","","","html-keyboard-response","420","1065557","0.0-420.0","5b6a87d2cda8590001db8e07","6213ce141f8fb6164227a068","","","","","<p style=""color:darkgreen;font-size:24px;"">Correct :)</p>","",""
"2775","key","n","n","16.666000000000594","500","250","psychophysics","421","1068335","0.0-421.0","5b6a87d2cda8590001db8e07","6213ce141f8fb6164227a068","7","","","","","0","2"
"null","","","null","","","","html-keyboard-response","422","1068838","0.0-422.0","5b6a87d2cda8590001db8e07","6213ce141f8fb6164227a068","","","","","<p style=""color:darkgreen;font-size:24px;"">Correct :)</p>","",""
"2469","key","n","n","16.66599999999959","500","250","psychophysics","423","1071312","0.0-423.0","5b6a87d2cda8590001db8e07","6213ce141f8fb6164227a068","7","","","","","0","6"
"null","","","null","","","","html-keyboard-response","424","1071815","0.0-424.0","5b6a87d2cda8590001db8e07","6213ce141f8fb6164227a068","","","","","<p style=""color:darkgreen;font-size:24px;"">Correct :)</p>","",""
"2456","key","n","n","16.66600000000001","500","250","psychophysics","425","1074276","0.0-425.0","5b6a87d2cda8590001db8e07","6213ce141f8fb6164227a068","7","","","","","0","6"
"null","","","null","","","","html-keyboard-response","426","1074781","0.0-426.0","5b6a87d2cda8590001db8e07","6213ce141f8fb6164227a068","","","","","<p style=""color:darkgreen;font-size:24px;"">Correct :)</p>","",""
"2419","key","n","n","16.665999999998842","500","250","psychophysics","427","1077205","0.0-427.0","5b6a87d2cda8590001db8e07","6213ce141f8fb6164227a068","7","","","","","1","7"
"null","","","null","","","","html-keyboard-response","428","1077707","0.0-428.0","5b6a87d2cda8590001db8e07","6213ce141f8fb6164227a068","","","","","<p style=""color:darkgreen;font-size:24px;"">Correct :)</p>","",""
"2524","key","v","v","16.6660000000005","500","250","psychophysics","429","1080235","0.0-429.0","5b6a87d2cda8590001db8e07","6213ce141f8fb6164227a068","7","","","","","0","7"
"null","","","null","","","","html-keyboard-response","430","1080737","0.0-430.0","5b6a87d2cda8590001db8e07","6213ce141f8fb6164227a068","","","","","<p style=""color:darkgreen;font-size:24px;"">Correct :)</p>","",""
"2457","key","v","v","16.665999999999798","500","250","psychophysics","431","1083199","0.0-431.0","5b6a87d2cda8590001db8e07","6213ce141f8fb6164227a068","7","","","","","0","1"
"null","","","null","","","","html-keyboard-response","432","1083701","0.0-432.0","5b6a87d2cda8590001db8e07","6213ce141f8fb6164227a068","","","","","<p style=""color:darkgreen;font-size:24px;"">Correct :)</p>","",""
"2399","key","v","v","16.666000000000672","500","250","psychophysics","433","1086103","0.0-433.0","5b6a87d2cda8590001db8e07","6213ce141f8fb6164227a068","7","","","","","0","1"
"null","","","null","","","","html-keyboard-response","434","1086608","0.0-434.0","5b6a87d2cda8590001db8e07","6213ce141f8fb6164227a068","","","","","<p style=""color:darkgreen;font-size:24px;"">Correct :)</p>","",""
"2482","key","n","n","16.66599999999938","500","250","psychophysics","435","1089103","0.0-435.0","5b6a87d2cda8590001db8e07","6213ce141f8fb6164227a068","7","","","","","0","3"
"null","","","null","","","","html-keyboard-response","436","1089605","0.0-436.0","5b6a87d2cda8590001db8e07","6213ce141f8fb6164227a068","","","","","<p style=""color:red;font-size:24px;"">Error :(</p>","",""
"2427","key","n","n","16.665999999998636","500","250","psychophysics","437","1092037","0.0-437.0","5b6a87d2cda8590001db8e07","6213ce141f8fb6164227a068","7","","","","","0","4"
"null","","","null","","","","html-keyboard-response","438","1092539","0.0-438.0","5b6a87d2cda8590001db8e07","6213ce141f8fb6164227a068","","","","","<p style=""color:darkgreen;font-size:24px;"">Correct :)</p>","",""
"2471","key","n","n","16.665999999999798","500","250","psychophysics","439","1095013","0.0-439.0","5b6a87d2cda8590001db8e07","6213ce141f8fb6164227a068","7","","","","","1","7"
"null","","","null","","","","html-keyboard-response","440","1095516","0.0-440.0","5b6a87d2cda8590001db8e07","6213ce141f8fb6164227a068","","","","","<p style=""color:darkgreen;font-size:24px;"">Correct :)</p>","",""
"2739","key","v","v","16.665999999999567","500","250","psychophysics","441","1098260","0.0-441.0","5b6a87d2cda8590001db8e07","6213ce141f8fb6164227a068","7","","","","","0","2"
"null","","","null","","","","html-keyboard-response","442","1098763","0.0-442.0","5b6a87d2cda8590001db8e07","6213ce141f8fb6164227a068","","","","","<p style=""color:red;font-size:24px;"">Error :(</p>","",""
"2540","key","n","n","16.6660000000005","500","250","psychophysics","443","1101305","0.0-443.0","5b6a87d2cda8590001db8e07","6213ce141f8fb6164227a068","7","","","","","0","6"
"null","","","null","","","","html-keyboard-response","444","1101808","0.0-444.0","5b6a87d2cda8590001db8e07","6213ce141f8fb6164227a068","","","","","<p style=""color:darkgreen;font-size:24px;"">Correct :)</p>","",""
"2479","key","v","v","16.66599999999959","500","250","psychophysics","445","1104300","0.0-445.0","5b6a87d2cda8590001db8e07","6213ce141f8fb6164227a068","7","","","","","1","2"
"null","","","null","","","","html-keyboard-response","446","1104802","0.0-446.0","5b6a87d2cda8590001db8e07","6213ce141f8fb6164227a068","","","","","<p style=""color:darkgreen;font-size:24px;"">Correct :)</p>","",""
"2561","key","n","n","16.665999999998572","500","250","psychophysics","447","1107368","0.0-447.0","5b6a87d2cda8590001db8e07","6213ce141f8fb6164227a068","7","","","","","1","6"
"null","","","null","","","","html-keyboard-response","448","1107872","0.0-448.0","5b6a87d2cda8590001db8e07","6213ce141f8fb6164227a068","","","","","<p style=""color:darkgreen;font-size:24px;"">Correct :)</p>","",""
"2525","key","n","n","16.665999999999173","500","250","psychophysics","449","1110400","0.0-449.0","5b6a87d2cda8590001db8e07","6213ce141f8fb6164227a068","7","","","","","1","4"
"null","","","null","","","","html-keyboard-response","450","1110902","0.0-450.0","5b6a87d2cda8590001db8e07","6213ce141f8fb6164227a068","","","","","<p style=""color:red;font-size:24px;"">Error :(</p>","",""
"2487","key","v","v","16.66600000000093","500","250","psychophysics","451","1113403","0.0-451.0","5b6a87d2cda8590001db8e07","6213ce141f8fb6164227a068","7","","","","","1","1"
"null","","","null","","","","html-keyboard-response","452","1113905","0.0-452.0","5b6a87d2cda8590001db8e07","6213ce141f8fb6164227a068","","","","","<p style=""color:darkgreen;font-size:24px;"">Correct :)</p>","",""
"2498","key","n","n","16.66599999999938","500","250","psychophysics","453","1116408","0.0-453.0","5b6a87d2cda8590001db8e07","6213ce141f8fb6164227a068","7","","","","","0","2"
"null","","","null","","","","html-keyboard-response","454","1116913","0.0-454.0","5b6a87d2cda8590001db8e07","6213ce141f8fb6164227a068","","","","","<p style=""color:darkgreen;font-size:24px;"">Correct :)</p>","",""
"3001","key","n","n","17.646352941177184","500","250","psychophysics","455","1119916","0.0-455.0","5b6a87d2cda8590001db8e07","6213ce141f8fb6164227a068","7","","","","","0","7"
"null","","","null","","","","html-keyboard-response","456","1120418","0.0-456.0","5b6a87d2cda8590001db8e07","6213ce141f8fb6164227a068","","","","","<p style=""color:red;font-size:24px;"">Error :(</p>","",""
"2560","key","v","v","16.666000000000086","500","250","psychophysics","457","1122991","0.0-457.0","5b6a87d2cda8590001db8e07","6213ce141f8fb6164227a068","7","","","","","0","1"
"null","","","null","","","","html-keyboard-response","458","1123494","0.0-458.0","5b6a87d2cda8590001db8e07","6213ce141f8fb6164227a068","","","","","<p style=""color:darkgreen;font-size:24px;"">Correct :)</p>","",""
"2559","key","n","n","16.66600000000029","500","250","psychophysics","459","1126058","0.0-459.0","5b6a87d2cda8590001db8e07","6213ce141f8fb6164227a068","7","","","","","1","6"
"null","","","null","","","","html-keyboard-response","460","1126561","0.0-460.0","5b6a87d2cda8590001db8e07","6213ce141f8fb6164227a068","","","","","<p style=""color:darkgreen;font-size:24px;"">Correct :)</p>","",""
"2786","key","n","n","16.666000000000402","500","250","psychophysics","461","1129349","0.0-461.0","5b6a87d2cda8590001db8e07","6213ce141f8fb6164227a068","7","","","","","1","7"
"null","","","null","","","","html-keyboard-response","462","1129851","0.0-462.0","5b6a87d2cda8590001db8e07","6213ce141f8fb6164227a068","","","","","<p style=""color:darkgreen;font-size:24px;"">Correct :)</p>","",""
"2498","key","n","n","16.665999999999173","500","250","psychophysics","463","1132363","0.0-463.0","5b6a87d2cda8590001db8e07","6213ce141f8fb6164227a068","7","","","","","1","4"
"null","","","null","","","","html-keyboard-response","464","1132865","0.0-464.0","5b6a87d2cda8590001db8e07","6213ce141f8fb6164227a068","","","","","<p style=""color:red;font-size:24px;"">Error :(</p>","",""
"2453","key","n","n","16.66600000000001","500","250","psychophysics","465","1135324","0.0-465.0","5b6a87d2cda8590001db8e07","6213ce141f8fb6164227a068","7","","","","","0","6"
"null","","","null","","","","html-keyboard-response","466","1135826","0.0-466.0","5b6a87d2cda8590001db8e07","6213ce141f8fb6164227a068","","","","","<p style=""color:darkgreen;font-size:24px;"">Correct :)</p>","",""
"2549","key","n","n","16.66600000000029","500","250","psychophysics","467","1138378","0.0-467.0","5b6a87d2cda8590001db8e07","6213ce141f8fb6164227a068","7","","","","","0","7"
"null","","","null","","","","html-keyboard-response","468","1138881","0.0-468.0","5b6a87d2cda8590001db8e07","6213ce141f8fb6164227a068","","","","","<p style=""color:red;font-size:24px;"">Error :(</p>","",""
"2542","key","v","v","16.66599999999877","500","250","psychophysics","469","1141436","0.0-469.0","5b6a87d2cda8590001db8e07","6213ce141f8fb6164227a068","7","","","","","0","1"
"null","","","null","","","","html-keyboard-response","470","1141939","0.0-470.0","5b6a87d2cda8590001db8e07","6213ce141f8fb6164227a068","","","","","<p style=""color:darkgreen;font-size:24px;"">Correct :)</p>","",""
"2487","key","n","n","16.66599999999959","500","250","psychophysics","471","1144431","0.0-471.0","5b6a87d2cda8590001db8e07","6213ce141f8fb6164227a068","7","","","","","0","6"
"null","","","null","","","","html-keyboard-response","472","1144935","0.0-472.0","5b6a87d2cda8590001db8e07","6213ce141f8fb6164227a068","","","","","<p style=""color:darkgreen;font-size:24px;"">Correct :)</p>","",""
"2591","key","v","v","16.665999999999677","500","250","psychophysics","473","1147529","0.0-473.0","5b6a87d2cda8590001db8e07","6213ce141f8fb6164227a068","7","","","","","0","6"
"null","","","null","","","","html-keyboard-response","474","1148033","0.0-474.0","5b6a87d2cda8590001db8e07","6213ce141f8fb6164227a068","","","","","<p style=""color:red;font-size:24px;"">Error :(</p>","",""
"2621","key","n","n","16.666000000000754","500","250","psychophysics","475","1150669","0.0-475.0","5b6a87d2cda8590001db8e07","6213ce141f8fb6164227a068","7","","","","","1","7"
"null","","","null","","","","html-keyboard-response","476","1151172","0.0-476.0","5b6a87d2cda8590001db8e07","6213ce141f8fb6164227a068","","","","","<p style=""color:darkgreen;font-size:24px;"">Correct :)</p>","",""
"2856","key","v","v","16.66599999999947","500","250","psychophysics","477","1154034","0.0-477.0","5b6a87d2cda8590001db8e07","6213ce141f8fb6164227a068","7","","","","","0","3"
"null","","","null","","","","html-keyboard-response","478","1154539","0.0-478.0","5b6a87d2cda8590001db8e07","6213ce141f8fb6164227a068","","","","","<p style=""color:darkgreen;font-size:24px;"">Correct :)</p>","",""
"2726","key","v","v","16.666000000001187","500","250","psychophysics","479","1157268","0.0-479.0","5b6a87d2cda8590001db8e07","6213ce141f8fb6164227a068","7","","","","","1","3"
"null","","","null","","","","html-keyboard-response","480","1157772","0.0-480.0","5b6a87d2cda8590001db8e07","6213ce141f8fb6164227a068","","","","","<p style=""color:darkgreen;font-size:24px;"">Correct :)</p>","",""
"2466","key","n","n","16.66599999999959","500","250","psychophysics","481","1160253","0.0-481.0","5b6a87d2cda8590001db8e07","6213ce141f8fb6164227a068","7","","","","","1","7"
"null","","","null","","","","html-keyboard-response","482","1160754","0.0-482.0","5b6a87d2cda8590001db8e07","6213ce141f8fb6164227a068","","","","","<p style=""color:darkgreen;font-size:24px;"">Correct :)</p>","",""
"2398","key","n","n","16.666000000000672","500","250","psychophysics","483","1163158","0.0-483.0","5b6a87d2cda8590001db8e07","6213ce141f8fb6164227a068","7","","","","","1","2"
"null","","","null","","","","html-keyboard-response","484","1163660","0.0-484.0","5b6a87d2cda8590001db8e07","6213ce141f8fb6164227a068","","","","","<p style=""color:red;font-size:24px;"">Error :(</p>","",""
"2518","key","v","v","16.665999999999173","500","250","psychophysics","485","1166183","0.0-485.0","5b6a87d2cda8590001db8e07","6213ce141f8fb6164227a068","7","","","","","0","1"
"null","","","null","","","","html-keyboard-response","486","1166685","0.0-486.0","5b6a87d2cda8590001db8e07","6213ce141f8fb6164227a068","","","","","<p style=""color:darkgreen;font-size:24px;"">Correct :)</p>","",""
"2483","key","n","n","16.66599999999959","500","250","psychophysics","487","1169173","0.0-487.0","5b6a87d2cda8590001db8e07","6213ce141f8fb6164227a068","7","","","","","0","6"
"null","","","null","","","","html-keyboard-response","488","1169676","0.0-488.0","5b6a87d2cda8590001db8e07","6213ce141f8fb6164227a068","","","","","<p style=""color:darkgreen;font-size:24px;"">Correct :)</p>","",""
"2543","key","v","v","16.6660000000005","500","250","psychophysics","489","1172222","0.0-489.0","5b6a87d2cda8590001db8e07","6213ce141f8fb6164227a068","7","","","","","1","2"
"null","","","null","","","","html-keyboard-response","490","1172724","0.0-490.0","5b6a87d2cda8590001db8e07","6213ce141f8fb6164227a068","","","","","<p style=""color:darkgreen;font-size:24px;"">Correct :)</p>","",""
"2569","key","n","n","16.666000000000086","500","250","psychophysics","491","1175307","0.0-491.0","5b6a87d2cda8590001db8e07","6213ce141f8fb6164227a068","7","","","","","1","7"
"null","","","null","","","","html-keyboard-response","492","1175810","0.0-492.0","5b6a87d2cda8590001db8e07","6213ce141f8fb6164227a068","","","","","<p style=""color:darkgreen;font-size:24px;"">Correct :)</p>","",""
"2882","key","n","n","16.666000000000636","500","250","psychophysics","493","1178697","0.0-493.0","5b6a87d2cda8590001db8e07","6213ce141f8fb6164227a068","7","","","","","1","1"
"null","","","null","","","","html-keyboard-response","494","1179201","0.0-494.0","5b6a87d2cda8590001db8e07","6213ce141f8fb6164227a068","","","","","<p style=""color:red;font-size:24px;"">Error :(</p>","",""
"2574","key","n","n","16.666000000000086","500","250","psychophysics","495","1181778","0.0-495.0","5b6a87d2cda8590001db8e07","6213ce141f8fb6164227a068","7","","","","","0","2"
"null","","","null","","","","html-keyboard-response","496","1182280","0.0-496.0","5b6a87d2cda8590001db8e07","6213ce141f8fb6164227a068","","","","","<p style=""color:darkgreen;font-size:24px;"">Correct :)</p>","",""
