"rt","response_type","key_press","response","avg_frame_time","center_x","center_y","trial_type","trial_index","time_elapsed","internal_node_id","pid","sid","phase","guide","targ","resp","stimulus","is5","stim"
"3436","key"," "," ","16.668743961352654","500","250","psychophysics","0","3477","0.0-0.0","608ae40ba23632384c8818de","6213ce66826ad99aacd1f534","","","","","","",""
"8006","key"," "," ","16.666","500","250","psychophysics","1","11487","0.0-1.0","608ae40ba23632384c8818de","6213ce66826ad99aacd1f534","","","","","","",""
"2741","key"," "," ","16.669463414634144","500","250","psychophysics","2","14230","0.0-2.0","608ae40ba23632384c8818de","6213ce66826ad99aacd1f534","","","","","","",""
"1488","key"," "," ","16.665999999999983","500","250","psychophysics","3","15722","0.0-3.0","608ae40ba23632384c8818de","6213ce66826ad99aacd1f534","","","","","","",""
"3407","key"," "," ","16.666000000000007","500","250","psychophysics","4","19136","0.0-4.0","608ae40ba23632384c8818de","6213ce66826ad99aacd1f534","","","","","","",""
"12599","key"," "," ","16.666917880794703","500","250","psychophysics","5","31739","0.0-5.0","608ae40ba23632384c8818de","6213ce66826ad99aacd1f534","","","","","","",""
"5143","key"," "," ","16.667844155844143","500","250","psychophysics","6","36885","0.0-6.0","608ae40ba23632384c8818de","6213ce66826ad99aacd1f534","","","","","","",""
"4332","key"," "," ","16.665999999999997","500","250","psychophysics","7","41220","0.0-7.0","608ae40ba23632384c8818de","6213ce66826ad99aacd1f534","","","","","","",""
"12403","key"," "," ","16.66769717362046","500","250","psychophysics","8","53627","0.0-8.0","608ae40ba23632384c8818de","6213ce66826ad99aacd1f534","0","0","29","29","","",""
"4111","key"," "," ","16.66600000000001","500","250","psychophysics","9","57741","0.0-9.0","608ae40ba23632384c8818de","6213ce66826ad99aacd1f534","","","","","","",""
"4603","key"," "," ","16.665999999999997","500","250","psychophysics","10","62352","0.0-10.0","608ae40ba23632384c8818de","6213ce66826ad99aacd1f534","","","","","","",""
"14038","key"," "," ","16.667349168646084","500","250","psychophysics","11","76400","0.0-11.0","608ae40ba23632384c8818de","6213ce66826ad99aacd1f534","","","","","","",""
"4598","key"," "," ","16.66599999999998","500","250","psychophysics","12","81002","0.0-12.0","608ae40ba23632384c8818de","6213ce66826ad99aacd1f534","","","","","","",""
"2336","key"," "," ","16.670086330935302","500","250","psychophysics","13","83343","0.0-13.0","608ae40ba23632384c8818de","6213ce66826ad99aacd1f534","","","","","","",""
"5174","key"," "," ","16.66600000000002","500","250","psychophysics","14","88520","0.0-14.0","608ae40ba23632384c8818de","6213ce66826ad99aacd1f534","","","","","","",""
"4547","key"," "," ","16.66854779411765","500","250","psychophysics","15","93069","0.0-15.0","608ae40ba23632384c8818de","6213ce66826ad99aacd1f534","","","","","","",""
"2803","key"," "," ","16.665999999999965","500","250","psychophysics","16","95875","0.0-16.0","608ae40ba23632384c8818de","6213ce66826ad99aacd1f534","","","","","","",""
"11166","key"," "," ","16.66684902840058","500","250","psychophysics","17","107044","0.0-17.0","608ae40ba23632384c8818de","6213ce66826ad99aacd1f534","1","0","44","48","","",""
"6201","key"," "," ","16.66752688172045","500","250","psychophysics","18","113250","0.0-18.0","608ae40ba23632384c8818de","6213ce66826ad99aacd1f534","1","5","24","27","","",""
"9764","key"," "," ","16.66697094017094","500","250","psychophysics","19","123017","0.0-19.0","608ae40ba23632384c8818de","6213ce66826ad99aacd1f534","1","0","58","69","","",""
"8573","key"," "," ","16.665999999999993","500","250","psychophysics","20","131593","0.0-20.0","608ae40ba23632384c8818de","6213ce66826ad99aacd1f534","1","5","51","57","","",""
"10788","key"," "," ","16.66707109737249","500","250","psychophysics","21","142385","0.0-21.0","608ae40ba23632384c8818de","6213ce66826ad99aacd1f534","1","0","59","66","","",""
"7478","key"," "," ","16.667267857142892","500","250","psychophysics","22","149867","0.0-22.0","608ae40ba23632384c8818de","6213ce66826ad99aacd1f534","1","5","40","43","","",""
"4974","key"," "," ","16.667912457912443","500","250","psychophysics","23","154844","0.0-23.0","608ae40ba23632384c8818de","6213ce66826ad99aacd1f534","1","0","20","23","","",""
"4671","key"," "," ","16.666000000000036","500","250","psychophysics","24","159520","0.0-24.0","608ae40ba23632384c8818de","6213ce66826ad99aacd1f534","1","5","31","33","","",""
"8524","key"," "," ","16.667356164383563","500","250","psychophysics","25","168047","0.0-25.0","608ae40ba23632384c8818de","6213ce66826ad99aacd1f534","1","0","54","62","","",""
"5253","key"," "," ","16.667808917197483","500","250","psychophysics","26","173303","0.0-26.0","608ae40ba23632384c8818de","6213ce66826ad99aacd1f534","1","5","28","30","","",""
"5296","key"," "," ","16.66600000000001","500","250","psychophysics","27","178603","0.0-27.0","608ae40ba23632384c8818de","6213ce66826ad99aacd1f534","1","0","46","47","","",""
"3962","key"," "," ","16.666000000000018","500","250","psychophysics","28","182568","0.0-28.0","608ae40ba23632384c8818de","6213ce66826ad99aacd1f534","1","5","32","35","","",""
"4464","key"," "," ","16.668127340823915","500","250","psychophysics","29","187036","0.0-29.0","608ae40ba23632384c8818de","6213ce66826ad99aacd1f534","1","0","24","26","","",""
"5473","key"," "," ","16.66600000000001","500","250","psychophysics","30","192520","0.0-30.0","608ae40ba23632384c8818de","6213ce66826ad99aacd1f534","1","5","47","43","","",""
"6904","key"," "," ","16.667375302663483","500","250","psychophysics","31","199428","0.0-31.0","608ae40ba23632384c8818de","6213ce66826ad99aacd1f534","1","0","56","64","","",""
"6710","key"," "," ","16.667514925373098","500","250","psychophysics","32","206140","0.0-32.0","608ae40ba23632384c8818de","6213ce66826ad99aacd1f534","1","5","48","47","","",""
"6016","key"," "," ","16.666000000000025","500","250","psychophysics","33","212160","0.0-33.0","608ae40ba23632384c8818de","6213ce66826ad99aacd1f534","1","0","52","56","","",""
"4138","key"," "," ","16.668794354838727","500","250","psychophysics","34","216303","0.0-34.0","608ae40ba23632384c8818de","6213ce66826ad99aacd1f534","1","5","23","23","","",""
"6650","key"," "," ","16.665999999999997","500","250","psychophysics","35","222957","0.0-35.0","608ae40ba23632384c8818de","6213ce66826ad99aacd1f534","1","0","57","66","","",""
"6776","key"," "," ","16.667399014778344","500","250","psychophysics","36","229737","0.0-36.0","608ae40ba23632384c8818de","6213ce66826ad99aacd1f534","1","5","58","58","","",""
"3528","key"," "," ","16.66600000000006","500","250","psychophysics","37","233269","0.0-37.0","608ae40ba23632384c8818de","6213ce66826ad99aacd1f534","","","","","","",""
"8184","key"," "," ","16.667159183673462","500","250","psychophysics","38","241456","0.0-38.0","608ae40ba23632384c8818de","6213ce66826ad99aacd1f534","","","","","","",""
"2049","key"," "," ","16.670655737704976","500","250","psychophysics","39","243508","0.0-39.0","608ae40ba23632384c8818de","6213ce66826ad99aacd1f534","","","","","","",""
"6156","key"," "," ","16.66599999999996","500","250","psychophysics","40","249668","0.0-40.0","608ae40ba23632384c8818de","6213ce66826ad99aacd1f534","2","0","32","33","","",""
"3048","key"," "," ","16.665999999999997","500","250","psychophysics","41","252722","0.0-41.0","608ae40ba23632384c8818de","6213ce66826ad99aacd1f534","","","","","","",""
"6279","key"," "," ","16.668175531914883","500","250","psychophysics","42","259005","0.0-42.0","608ae40ba23632384c8818de","6213ce66826ad99aacd1f534","2","0","53","52","","",""
"2928","key"," "," ","16.665999999999933","500","250","psychophysics","43","261936","0.0-43.0","608ae40ba23632384c8818de","6213ce66826ad99aacd1f534","","","","","","",""
"4322","key"," "," ","16.6682015503874","500","250","psychophysics","44","266262","0.0-44.0","608ae40ba23632384c8818de","6213ce66826ad99aacd1f534","2","0","30","30","","",""
"1408","key"," "," ","16.66600000000021","500","250","psychophysics","45","267675","0.0-45.0","608ae40ba23632384c8818de","6213ce66826ad99aacd1f534","","","","","","",""
"3590","key"," "," ","16.66600000000001","500","250","psychophysics","46","271267","0.0-46.0","608ae40ba23632384c8818de","6213ce66826ad99aacd1f534","2","0","23","24","","",""
"1154","key"," "," ","16.66599999999955","500","250","psychophysics","47","272431","0.0-47.0","608ae40ba23632384c8818de","6213ce66826ad99aacd1f534","","","","","","",""
"6954","key"," "," ","16.66766586538464","500","250","psychophysics","48","279388","0.0-48.0","608ae40ba23632384c8818de","6213ce66826ad99aacd1f534","2","0","55","56","","",""
"1730","key"," "," ","16.665999999999983","500","250","psychophysics","49","281121","0.0-49.0","608ae40ba23632384c8818de","6213ce66826ad99aacd1f534","","","","","","",""
"4813","key"," "," ","16.667972222222186","500","250","psychophysics","50","285946","0.0-50.0","608ae40ba23632384c8818de","6213ce66826ad99aacd1f534","2","0","20","20","","",""
"1717","key"," "," ","16.665999999999983","500","250","psychophysics","51","287667","0.0-51.0","608ae40ba23632384c8818de","6213ce66826ad99aacd1f534","","","","","","",""
"4213","key"," "," ","16.66599999999998","500","250","psychophysics","52","291882","0.0-52.0","608ae40ba23632384c8818de","6213ce66826ad99aacd1f534","2","0","29","25","","",""
"1300","key"," "," ","16.666000000000086","500","250","psychophysics","53","293185","0.0-53.0","608ae40ba23632384c8818de","6213ce66826ad99aacd1f534","","","","","","",""
"3883","key"," "," ","16.66898706896559","500","250","psychophysics","54","297071","0.0-54.0","608ae40ba23632384c8818de","6213ce66826ad99aacd1f534","2","0","25","26","","",""
"1446","key"," "," ","16.666000000000146","500","250","psychophysics","55","298521","0.0-55.0","608ae40ba23632384c8818de","6213ce66826ad99aacd1f534","","","","","","",""
"8293","key"," "," ","16.66714285714287","500","250","psychophysics","56","306818","0.0-56.0","608ae40ba23632384c8818de","6213ce66826ad99aacd1f534","2","0","60","63","","",""
"1316","key"," "," ","16.666000000000423","500","250","psychophysics","57","308136","0.0-57.0","608ae40ba23632384c8818de","6213ce66826ad99aacd1f534","","","","","","",""
"6863","key"," "," ","16.667077858880766","500","250","psychophysics","58","315003","0.0-58.0","608ae40ba23632384c8818de","6213ce66826ad99aacd1f534","2","0","52","47","","",""
"1297","key"," "," ","16.666000000000086","500","250","psychophysics","59","316303","0.0-59.0","608ae40ba23632384c8818de","6213ce66826ad99aacd1f534","","","","","","",""
"4894","key"," "," ","16.66600000000012","500","250","psychophysics","60","321201","0.0-60.0","608ae40ba23632384c8818de","6213ce66826ad99aacd1f534","2","0","44","43","","",""
"1630","key"," "," ","16.66600000000014","500","250","psychophysics","61","322834","0.0-61.0","608ae40ba23632384c8818de","6213ce66826ad99aacd1f534","","","","","","",""
"5183","key"," "," ","16.66796451612909","500","250","psychophysics","62","328020","0.0-62.0","608ae40ba23632384c8818de","6213ce66826ad99aacd1f534","2","0","38","35","","",""
"1016","key"," "," ","16.66599999999938","500","250","psychophysics","63","329039","0.0-63.0","608ae40ba23632384c8818de","6213ce66826ad99aacd1f534","","","","","","",""
"6023","key"," "," ","16.667919667590045","500","250","psychophysics","64","335065","0.0-64.0","608ae40ba23632384c8818de","6213ce66826ad99aacd1f534","2","0","53","51","","",""
"1178","key"," "," ","16.66600000000039","500","250","psychophysics","65","336246","0.0-65.0","608ae40ba23632384c8818de","6213ce66826ad99aacd1f534","","","","","","",""
"4832","key"," "," ","16.666000000000047","500","250","psychophysics","66","341083","0.0-66.0","608ae40ba23632384c8818de","6213ce66826ad99aacd1f534","2","0","37","36","","",""
"1292","key"," "," ","16.665999999999737","500","250","psychophysics","67","342377","0.0-67.0","608ae40ba23632384c8818de","6213ce66826ad99aacd1f534","","","","","","",""
"7361","key"," "," ","16.667287981859356","500","250","psychophysics","68","349744","0.0-68.0","608ae40ba23632384c8818de","6213ce66826ad99aacd1f534","2","0","47","46","","",""
"1119","key"," "," ","16.66600000000048","500","250","psychophysics","69","350868","0.0-69.0","608ae40ba23632384c8818de","6213ce66826ad99aacd1f534","","","","","","",""
"3190","key"," "," ","16.66898947368425","500","250","psychophysics","70","354060","0.0-70.0","608ae40ba23632384c8818de","6213ce66826ad99aacd1f534","","","","","","",""
"2305","key"," "," ","16.787649635036466","500","250","psychophysics","71","356370","0.0-71.0","608ae40ba23632384c8818de","6213ce66826ad99aacd1f534","","","","","","",""
"5686","key"," "," ","16.666000000000007","500","250","psychophysics","72","362059","0.0-72.0","608ae40ba23632384c8818de","6213ce66826ad99aacd1f534","3","5","30","30","","",""
"8422","key"," "," ","16.66712475247522","500","250","psychophysics","73","370486","0.0-73.0","608ae40ba23632384c8818de","6213ce66826ad99aacd1f534","3","0","56","63","","",""
"4258","key"," "," ","16.668728346456536","500","250","psychophysics","74","374746","0.0-74.0","608ae40ba23632384c8818de","6213ce66826ad99aacd1f534","3","5","25","28","","",""
"3876","key"," "," ","16.665999999999947","500","250","psychophysics","75","378627","0.0-75.0","608ae40ba23632384c8818de","6213ce66826ad99aacd1f534","3","0","23","26","","",""
"5362","key"," "," ","16.66776947040496","500","250","psychophysics","76","383995","0.0-76.0","608ae40ba23632384c8818de","6213ce66826ad99aacd1f534","3","5","30","29","","",""
"4552","key"," "," ","16.666000000000103","500","250","psychophysics","77","388552","0.0-77.0","608ae40ba23632384c8818de","6213ce66826ad99aacd1f534","3","0","36","40","","",""
"5447","key"," "," ","16.66774233128837","500","250","psychophysics","78","394003","0.0-78.0","608ae40ba23632384c8818de","6213ce66826ad99aacd1f534","3","5","54","55","","",""
"5241","key"," "," ","16.66599999999995","500","250","psychophysics","79","399246","0.0-79.0","608ae40ba23632384c8818de","6213ce66826ad99aacd1f534","3","0","43","43","","",""
"3561","key"," "," ","16.666000000000036","500","250","psychophysics","80","402811","0.0-80.0","608ae40ba23632384c8818de","6213ce66826ad99aacd1f534","3","5","22","22","","",""
"4512","key"," "," ","16.66855719557197","500","250","psychophysics","81","407335","0.0-81.0","608ae40ba23632384c8818de","6213ce66826ad99aacd1f534","3","0","42","36","","",""
"6697","key"," "," ","16.667416458852774","500","250","psychophysics","82","414036","0.0-82.0","608ae40ba23632384c8818de","6213ce66826ad99aacd1f534","3","5","59","58","","",""
"5316","key"," "," ","16.666","500","250","psychophysics","83","419355","0.0-83.0","608ae40ba23632384c8818de","6213ce66826ad99aacd1f534","3","0","53","54","","",""
"4177","key"," "," ","16.666","500","250","psychophysics","84","423535","0.0-84.0","608ae40ba23632384c8818de","6213ce66826ad99aacd1f534","3","5","36","39","","",""
"3719","key"," "," ","16.668558558558484","500","250","psychophysics","85","427257","0.0-85.0","608ae40ba23632384c8818de","6213ce66826ad99aacd1f534","3","0","22","27","","",""
"6374","key"," "," ","16.66600000000003","500","250","psychophysics","86","433634","0.0-86.0","608ae40ba23632384c8818de","6213ce66826ad99aacd1f534","3","5","58","60","","",""
"3516","key"," "," ","16.66870476190483","500","250","psychophysics","87","437152","0.0-87.0","608ae40ba23632384c8818de","6213ce66826ad99aacd1f534","3","0","30","31","","",""
"5747","key"," "," ","16.665999999999976","500","250","psychophysics","88","442903","0.0-88.0","608ae40ba23632384c8818de","6213ce66826ad99aacd1f534","3","5","59","63","","",""
"6018","key"," "," ","16.667924999999943","500","250","psychophysics","89","448923","0.0-89.0","608ae40ba23632384c8818de","6213ce66826ad99aacd1f534","3","0","54","57","","",""
"2900","key"," "," ","16.66599999999996","500","250","psychophysics","90","451827","0.0-90.0","608ae40ba23632384c8818de","6213ce66826ad99aacd1f534","3","5","33","32","","",""
"5097","key"," "," ","16.667862295081886","500","250","psychophysics","91","456929","0.0-91.0","608ae40ba23632384c8818de","6213ce66826ad99aacd1f534","3","0","39","41","","",""
"3296","key"," "," ","16.66599999999995","500","250","psychophysics","92","460229","0.0-92.0","608ae40ba23632384c8818de","6213ce66826ad99aacd1f534","","","","","","",""
"31190","","","v","","","","html-keyboard-response","93","491421","0.0-93.0","608ae40ba23632384c8818de","6213ce66826ad99aacd1f534","","","","","<p> In this part of the experiment, we are going present digits 1, 2, 3, 4, 6, 7, 8, and 9.  Notice that 5 is missing.  Your job is to say whether the presented digit is less than or greater than 5.  For example, 3 is less than 5 and 7 is greater than 5.  If the digit is less than 5, press the v key; if it is greater than 5, press the n key. We are going to do 200 of these in total, but only 50 righ now. They go real fast.</p>  <br><br>  Ready? (press v or n)","",""
"2804","key","v","v","16.676088757396567","500","250","psychophysics","94","494230","0.0-94.0","608ae40ba23632384c8818de","6213ce66826ad99aacd1f534","4","","","","","1","1"
"null","","","null","","","","html-keyboard-response","95","494735","0.0-95.0","608ae40ba23632384c8818de","6213ce66826ad99aacd1f534","","","","","<p style=""color:darkgreen;font-size:24px;"">Correct :)</p>","",""
"2654","key","n","n","16.665999999999986","500","250","psychophysics","96","497402","0.0-96.0","608ae40ba23632384c8818de","6213ce66826ad99aacd1f534","4","","","","","1","6"
"null","","","null","","","","html-keyboard-response","97","497904","0.0-97.0","608ae40ba23632384c8818de","6213ce66826ad99aacd1f534","","","","","<p style=""color:darkgreen;font-size:24px;"">Correct :)</p>","",""
"2444","key","v","v","16.66600000000001","500","250","psychophysics","98","500351","0.0-98.0","608ae40ba23632384c8818de","6213ce66826ad99aacd1f534","4","","","","","1","2"
"null","","","null","","","","html-keyboard-response","99","500854","0.0-99.0","608ae40ba23632384c8818de","6213ce66826ad99aacd1f534","","","","","<p style=""color:darkgreen;font-size:24px;"">Correct :)</p>","",""
"2679","key","n","n","16.673409937888163","500","250","psychophysics","100","503538","0.0-100.0","608ae40ba23632384c8818de","6213ce66826ad99aacd1f534","4","","","","","1","8"
"null","","","null","","","","html-keyboard-response","101","504039","0.0-101.0","608ae40ba23632384c8818de","6213ce66826ad99aacd1f534","","","","","<p style=""color:darkgreen;font-size:24px;"">Correct :)</p>","",""
"2540","key","v","v","16.66599999999991","500","250","psychophysics","102","506584","0.0-102.0","608ae40ba23632384c8818de","6213ce66826ad99aacd1f534","4","","","","","1","4"
"null","","","null","","","","html-keyboard-response","103","507086","0.0-103.0","608ae40ba23632384c8818de","6213ce66826ad99aacd1f534","","","","","<p style=""color:darkgreen;font-size:24px;"">Correct :)</p>","",""
"2431","key","n","n","16.66599999999983","500","250","psychophysics","104","509519","0.0-104.0","608ae40ba23632384c8818de","6213ce66826ad99aacd1f534","4","","","","","1","6"
"null","","","null","","","","html-keyboard-response","105","510022","0.0-105.0","608ae40ba23632384c8818de","6213ce66826ad99aacd1f534","","","","","<p style=""color:darkgreen;font-size:24px;"">Correct :)</p>","",""
"2459","key","v","v","16.66983783783783","500","250","psychophysics","106","512494","0.0-106.0","608ae40ba23632384c8818de","6213ce66826ad99aacd1f534","4","","","","","1","2"
"null","","","null","","","","html-keyboard-response","107","512996","0.0-107.0","608ae40ba23632384c8818de","6213ce66826ad99aacd1f534","","","","","<p style=""color:darkgreen;font-size:24px;"">Correct :)</p>","",""
"2459","key","n","n","16.66600000000001","500","250","psychophysics","108","515460","0.0-108.0","608ae40ba23632384c8818de","6213ce66826ad99aacd1f534","4","","","","","1","8"
"null","","","null","","","","html-keyboard-response","109","515963","0.0-109.0","608ae40ba23632384c8818de","6213ce66826ad99aacd1f534","","","","","<p style=""color:darkgreen;font-size:24px;"">Correct :)</p>","",""
"2528","key","v","v","16.66600000000012","500","250","psychophysics","110","518496","0.0-110.0","608ae40ba23632384c8818de","6213ce66826ad99aacd1f534","4","","","","","1","2"
"null","","","null","","","","html-keyboard-response","111","518998","0.0-111.0","608ae40ba23632384c8818de","6213ce66826ad99aacd1f534","","","","","<p style=""color:darkgreen;font-size:24px;"">Correct :)</p>","",""
"2397","key","v","v","16.666000000000267","500","250","psychophysics","112","521400","0.0-112.0","608ae40ba23632384c8818de","6213ce66826ad99aacd1f534","4","","","","","1","1"
"null","","","null","","","","html-keyboard-response","113","521901","0.0-113.0","608ae40ba23632384c8818de","6213ce66826ad99aacd1f534","","","","","<p style=""color:darkgreen;font-size:24px;"">Correct :)</p>","",""
"2531","key","v","v","16.66955921052661","500","250","psychophysics","114","524437","0.0-114.0","608ae40ba23632384c8818de","6213ce66826ad99aacd1f534","4","","","","","1","3"
"null","","","null","","","","html-keyboard-response","115","524939","0.0-115.0","608ae40ba23632384c8818de","6213ce66826ad99aacd1f534","","","","","<p style=""color:darkgreen;font-size:24px;"">Correct :)</p>","",""
"2418","key","v","v","16.665999999999432","500","250","psychophysics","116","527369","0.0-116.0","608ae40ba23632384c8818de","6213ce66826ad99aacd1f534","4","","","","","1","1"
"null","","","null","","","","html-keyboard-response","117","527873","0.0-117.0","608ae40ba23632384c8818de","6213ce66826ad99aacd1f534","","","","","<p style=""color:darkgreen;font-size:24px;"">Correct :)</p>","",""
"2509","key","v","v","16.665999999999944","500","250","psychophysics","118","530386","0.0-118.0","608ae40ba23632384c8818de","6213ce66826ad99aacd1f534","4","","","","","1","4"
"null","","","null","","","","html-keyboard-response","119","530888","0.0-119.0","608ae40ba23632384c8818de","6213ce66826ad99aacd1f534","","","","","<p style=""color:darkgreen;font-size:24px;"">Correct :)</p>","",""
"2419","key","n","n","16.67077931034427","500","250","psychophysics","120","533312","0.0-120.0","608ae40ba23632384c8818de","6213ce66826ad99aacd1f534","4","","","","","1","9"
"null","","","null","","","","html-keyboard-response","121","533814","0.0-121.0","608ae40ba23632384c8818de","6213ce66826ad99aacd1f534","","","","","<p style=""color:darkgreen;font-size:24px;"">Correct :)</p>","",""
"2409","key","n","n","16.665999999999645","500","250","psychophysics","122","536235","0.0-122.0","608ae40ba23632384c8818de","6213ce66826ad99aacd1f534","4","","","","","1","9"
"null","","","null","","","","html-keyboard-response","123","536738","0.0-123.0","608ae40ba23632384c8818de","6213ce66826ad99aacd1f534","","","","","<p style=""color:darkgreen;font-size:24px;"">Correct :)</p>","",""
"2410","key","n","n","16.665999999999645","500","250","psychophysics","124","539152","0.0-124.0","608ae40ba23632384c8818de","6213ce66826ad99aacd1f534","4","","","","","1","8"
"null","","","null","","","","html-keyboard-response","125","539654","0.0-125.0","608ae40ba23632384c8818de","6213ce66826ad99aacd1f534","","","","","<p style=""color:darkgreen;font-size:24px;"">Correct :)</p>","",""
"2451","key","n","n","16.66986394557804","500","250","psychophysics","126","542110","0.0-126.0","608ae40ba23632384c8818de","6213ce66826ad99aacd1f534","4","","","","","1","8"
"null","","","null","","","","html-keyboard-response","127","542614","0.0-127.0","608ae40ba23632384c8818de","6213ce66826ad99aacd1f534","","","","","<p style=""color:darkgreen;font-size:24px;"">Correct :)</p>","",""
"2486","key","v","v","16.66599999999959","500","250","psychophysics","128","545104","0.0-128.0","608ae40ba23632384c8818de","6213ce66826ad99aacd1f534","4","","","","","1","3"
"null","","","null","","","","html-keyboard-response","129","545606","0.0-129.0","608ae40ba23632384c8818de","6213ce66826ad99aacd1f534","","","","","<p style=""color:darkgreen;font-size:24px;"">Correct :)</p>","",""
"2439","key","n","n","16.66600000000001","500","250","psychophysics","130","548050","0.0-130.0","608ae40ba23632384c8818de","6213ce66826ad99aacd1f534","4","","","","","1","7"
"null","","","null","","","","html-keyboard-response","131","548555","0.0-131.0","608ae40ba23632384c8818de","6213ce66826ad99aacd1f534","","","","","<p style=""color:darkgreen;font-size:24px;"">Correct :)</p>","",""
"2478","key","n","n","16.66599999999959","500","250","psychophysics","132","551038","0.0-132.0","608ae40ba23632384c8818de","6213ce66826ad99aacd1f534","4","","","","","1","8"
"null","","","null","","","","html-keyboard-response","133","551541","0.0-133.0","608ae40ba23632384c8818de","6213ce66826ad99aacd1f534","","","","","<p style=""color:darkgreen;font-size:24px;"">Correct :)</p>","",""
"2420","key","n","n","16.669917241379554","500","250","psychophysics","134","553964","0.0-134.0","608ae40ba23632384c8818de","6213ce66826ad99aacd1f534","4","","","","","1","7"
"null","","","null","","","","html-keyboard-response","135","554467","0.0-135.0","608ae40ba23632384c8818de","6213ce66826ad99aacd1f534","","","","","<p style=""color:darkgreen;font-size:24px;"">Correct :)</p>","",""
"2477","key","v","v","16.66600000000037","500","250","psychophysics","136","556957","0.0-136.0","608ae40ba23632384c8818de","6213ce66826ad99aacd1f534","4","","","","","1","3"
"null","","","null","","","","html-keyboard-response","137","557461","0.0-137.0","608ae40ba23632384c8818de","6213ce66826ad99aacd1f534","","","","","<p style=""color:darkgreen;font-size:24px;"">Correct :)</p>","",""
"2404","key","v","v","16.666000000000672","500","250","psychophysics","138","559867","0.0-138.0","608ae40ba23632384c8818de","6213ce66826ad99aacd1f534","4","","","","","1","2"
"null","","","null","","","","html-keyboard-response","139","560369","0.0-139.0","608ae40ba23632384c8818de","6213ce66826ad99aacd1f534","","","","","<p style=""color:darkgreen;font-size:24px;"">Correct :)</p>","",""
"2382","key","v","v","16.67084615384603","500","250","psychophysics","140","562756","0.0-140.0","608ae40ba23632384c8818de","6213ce66826ad99aacd1f534","4","","","","","1","2"
"null","","","null","","","","html-keyboard-response","141","563258","0.0-141.0","608ae40ba23632384c8818de","6213ce66826ad99aacd1f534","","","","","<p style=""color:darkgreen;font-size:24px;"">Correct :)</p>","",""
"2514","key","v","v","16.665999999999737","500","250","psychophysics","142","565785","0.0-142.0","608ae40ba23632384c8818de","6213ce66826ad99aacd1f534","4","","","","","1","4"
"null","","","null","","","","html-keyboard-response","143","566287","0.0-143.0","608ae40ba23632384c8818de","6213ce66826ad99aacd1f534","","","","","<p style=""color:darkgreen;font-size:24px;"">Correct :)</p>","",""
"2450","key","n","n","16.66600000000001","500","250","psychophysics","144","568742","0.0-144.0","608ae40ba23632384c8818de","6213ce66826ad99aacd1f534","4","","","","","1","6"
"null","","","null","","","","html-keyboard-response","145","569247","0.0-145.0","608ae40ba23632384c8818de","6213ce66826ad99aacd1f534","","","","","<p style=""color:darkgreen;font-size:24px;"">Correct :)</p>","",""
"2417","key","n","n","16.665999999999645","500","250","psychophysics","146","571669","0.0-146.0","608ae40ba23632384c8818de","6213ce66826ad99aacd1f534","4","","","","","1","8"
"null","","","null","","","","html-keyboard-response","147","572170","0.0-147.0","608ae40ba23632384c8818de","6213ce66826ad99aacd1f534","","","","","<p style=""color:darkgreen;font-size:24px;"">Correct :)</p>","",""
"2407","key","n","n","16.669662068964882","500","250","psychophysics","148","574582","0.0-148.0","608ae40ba23632384c8818de","6213ce66826ad99aacd1f534","4","","","","","1","7"
"null","","","null","","","","html-keyboard-response","149","575083","0.0-149.0","608ae40ba23632384c8818de","6213ce66826ad99aacd1f534","","","","","<p style=""color:darkgreen;font-size:24px;"">Correct :)</p>","",""
"2433","key","n","n","16.665999999999432","500","250","psychophysics","150","577521","0.0-150.0","608ae40ba23632384c8818de","6213ce66826ad99aacd1f534","4","","","","","1","7"
"null","","","null","","","","html-keyboard-response","151","578023","0.0-151.0","608ae40ba23632384c8818de","6213ce66826ad99aacd1f534","","","","","<p style=""color:darkgreen;font-size:24px;"">Correct :)</p>","",""
"2417","key","n","n","16.66600000000023","500","250","psychophysics","152","580453","0.0-152.0","608ae40ba23632384c8818de","6213ce66826ad99aacd1f534","4","","","","","1","8"
"null","","","null","","","","html-keyboard-response","153","580955","0.0-153.0","608ae40ba23632384c8818de","6213ce66826ad99aacd1f534","","","","","<p style=""color:darkgreen;font-size:24px;"">Correct :)</p>","",""
"2508","key","v","v","16.66976158940449","500","250","psychophysics","154","583467","0.0-154.0","608ae40ba23632384c8818de","6213ce66826ad99aacd1f534","4","","","","","1","1"
"null","","","null","","","","html-keyboard-response","155","583969","0.0-155.0","608ae40ba23632384c8818de","6213ce66826ad99aacd1f534","","","","","<p style=""color:darkgreen;font-size:24px;"">Correct :)</p>","",""
"2411","key","v","v","16.665999999999645","500","250","psychophysics","156","586385","0.0-156.0","608ae40ba23632384c8818de","6213ce66826ad99aacd1f534","4","","","","","1","1"
"null","","","null","","","","html-keyboard-response","157","586886","0.0-157.0","608ae40ba23632384c8818de","6213ce66826ad99aacd1f534","","","","","<p style=""color:darkgreen;font-size:24px;"">Correct :)</p>","",""
"2446","key","v","v","16.66600000000001","500","250","psychophysics","158","589337","0.0-158.0","608ae40ba23632384c8818de","6213ce66826ad99aacd1f534","4","","","","","1","3"
"null","","","null","","","","html-keyboard-response","159","589839","0.0-159.0","608ae40ba23632384c8818de","6213ce66826ad99aacd1f534","","","","","<p style=""color:darkgreen;font-size:24px;"">Correct :)</p>","",""
"2574","key","n","n","16.670470967742375","500","250","psychophysics","160","592418","0.0-160.0","608ae40ba23632384c8818de","6213ce66826ad99aacd1f534","4","","","","","1","9"
"null","","","null","","","","html-keyboard-response","161","592923","0.0-161.0","608ae40ba23632384c8818de","6213ce66826ad99aacd1f534","","","","","<p style=""color:darkgreen;font-size:24px;"">Correct :)</p>","",""
"2466","key","v","v","16.66600000000037","500","250","psychophysics","162","595402","0.0-162.0","608ae40ba23632384c8818de","6213ce66826ad99aacd1f534","4","","","","","1","1"
"null","","","null","","","","html-keyboard-response","163","595904","0.0-163.0","608ae40ba23632384c8818de","6213ce66826ad99aacd1f534","","","","","<p style=""color:darkgreen;font-size:24px;"">Correct :)</p>","",""
"2427","key","v","v","16.665999999999432","500","250","psychophysics","164","598336","0.0-164.0","608ae40ba23632384c8818de","6213ce66826ad99aacd1f534","4","","","","","1","4"
"null","","","null","","","","html-keyboard-response","165","598838","0.0-165.0","608ae40ba23632384c8818de","6213ce66826ad99aacd1f534","","","","","<p style=""color:darkgreen;font-size:24px;"">Correct :)</p>","",""
"2463","key","n","n","16.665999999999798","500","250","psychophysics","166","601306","0.0-166.0","608ae40ba23632384c8818de","6213ce66826ad99aacd1f534","4","","","","","1","8"
"null","","","null","","","","html-keyboard-response","167","601808","0.0-167.0","608ae40ba23632384c8818de","6213ce66826ad99aacd1f534","","","","","<p style=""color:darkgreen;font-size:24px;"">Correct :)</p>","",""
"2437","key","n","n","16.66986394557804","500","250","psychophysics","168","604250","0.0-168.0","608ae40ba23632384c8818de","6213ce66826ad99aacd1f534","4","","","","","1","8"
"null","","","null","","","","html-keyboard-response","169","604754","0.0-169.0","608ae40ba23632384c8818de","6213ce66826ad99aacd1f534","","","","","<p style=""color:darkgreen;font-size:24px;"">Correct :)</p>","",""
"2536","key","v","v","16.6660000000005","500","250","psychophysics","170","607295","0.0-170.0","608ae40ba23632384c8818de","6213ce66826ad99aacd1f534","4","","","","","1","4"
"null","","","null","","","","html-keyboard-response","171","607797","0.0-171.0","608ae40ba23632384c8818de","6213ce66826ad99aacd1f534","","","","","<p style=""color:darkgreen;font-size:24px;"">Correct :)</p>","",""
"2427","key","v","v","16.66600000000023","500","250","psychophysics","172","610238","0.0-172.0","608ae40ba23632384c8818de","6213ce66826ad99aacd1f534","4","","","","","1","4"
"null","","","null","","","","html-keyboard-response","173","610740","0.0-173.0","608ae40ba23632384c8818de","6213ce66826ad99aacd1f534","","","","","<p style=""color:darkgreen;font-size:24px;"">Correct :)</p>","",""
"2497","key","n","n","16.669786666666624","500","250","psychophysics","174","613242","0.0-174.0","608ae40ba23632384c8818de","6213ce66826ad99aacd1f534","4","","","","","1","9"
"null","","","null","","","","html-keyboard-response","175","613744","0.0-175.0","608ae40ba23632384c8818de","6213ce66826ad99aacd1f534","","","","","<p style=""color:darkgreen;font-size:24px;"">Correct :)</p>","",""
"2471","key","n","n","16.66600000000037","500","250","psychophysics","176","616220","0.0-176.0","608ae40ba23632384c8818de","6213ce66826ad99aacd1f534","4","","","","","1","9"
"null","","","null","","","","html-keyboard-response","177","616724","0.0-177.0","608ae40ba23632384c8818de","6213ce66826ad99aacd1f534","","","","","<p style=""color:darkgreen;font-size:24px;"">Correct :)</p>","",""
"2621","key","n","n","16.666000000000018","500","250","psychophysics","178","619350","0.0-178.0","608ae40ba23632384c8818de","6213ce66826ad99aacd1f534","4","","","","","1","6"
"null","","","null","","","","html-keyboard-response","179","619855","0.0-179.0","608ae40ba23632384c8818de","6213ce66826ad99aacd1f534","","","","","<p style=""color:darkgreen;font-size:24px;"">Correct :)</p>","",""
"2460","key","n","n","16.665999999999798","500","250","psychophysics","180","622320","0.0-180.0","608ae40ba23632384c8818de","6213ce66826ad99aacd1f534","4","","","","","1","9"
"null","","","null","","","","html-keyboard-response","181","622823","0.0-181.0","608ae40ba23632384c8818de","6213ce66826ad99aacd1f534","","","","","<p style=""color:darkgreen;font-size:24px;"">Correct :)</p>","",""
"2432","key","n","n","16.670278911564345","500","250","psychophysics","182","625268","0.0-182.0","608ae40ba23632384c8818de","6213ce66826ad99aacd1f534","4","","","","","1","6"
"null","","","null","","","","html-keyboard-response","183","625771","0.0-183.0","608ae40ba23632384c8818de","6213ce66826ad99aacd1f534","","","","","<p style=""color:darkgreen;font-size:24px;"">Correct :)</p>","",""
"2503","key","v","v","16.666000000000157","500","250","psychophysics","184","628279","0.0-184.0","608ae40ba23632384c8818de","6213ce66826ad99aacd1f534","4","","","","","1","3"
"null","","","null","","","","html-keyboard-response","185","628784","0.0-185.0","608ae40ba23632384c8818de","6213ce66826ad99aacd1f534","","","","","<p style=""color:darkgreen;font-size:24px;"">Correct :)</p>","",""
"2417","key","v","v","16.666000000000448","500","250","psychophysics","186","631206","0.0-186.0","608ae40ba23632384c8818de","6213ce66826ad99aacd1f534","4","","","","","1","3"
"null","","","null","","","","html-keyboard-response","187","631708","0.0-187.0","608ae40ba23632384c8818de","6213ce66826ad99aacd1f534","","","","","<p style=""color:darkgreen;font-size:24px;"">Correct :)</p>","",""
"2476","key","n","n","16.670651006711577","500","250","psychophysics","188","634188","0.0-188.0","608ae40ba23632384c8818de","6213ce66826ad99aacd1f534","4","","","","","1","6"
"null","","","null","","","","html-keyboard-response","189","634690","0.0-189.0","608ae40ba23632384c8818de","6213ce66826ad99aacd1f534","","","","","<p style=""color:darkgreen;font-size:24px;"">Correct :)</p>","",""
"2479","key","v","v","16.66599999999959","500","250","psychophysics","190","637174","0.0-190.0","608ae40ba23632384c8818de","6213ce66826ad99aacd1f534","4","","","","","1","3"
"null","","","null","","","","html-keyboard-response","191","637686","0.0-191.0","608ae40ba23632384c8818de","6213ce66826ad99aacd1f534","","","","","<p style=""color:darkgreen;font-size:24px;"">Correct :)</p>","",""
"2426","key","v","v","16.66600000000023","500","250","psychophysics","192","640117","0.0-192.0","608ae40ba23632384c8818de","6213ce66826ad99aacd1f534","4","","","","","1","3"
"null","","","null","","","","html-keyboard-response","193","640620","0.0-193.0","608ae40ba23632384c8818de","6213ce66826ad99aacd1f534","","","","","<p style=""color:darkgreen;font-size:24px;"">Correct :)</p>","",""
"52653","","","v","","","","html-keyboard-response","194","693274","0.0-194.0","608ae40ba23632384c8818de","6213ce66826ad99aacd1f534","","","","","<p> Ok, now we are going present the same digits as before.  Your job is to say whether the digit is even or odd  If the digit is odd, press to v key; if it is even, press the n key. We are going to do 50 of these.  </p>  <br><br>  Ready? (press v or n)","",""
"2388","key","v","v","16.680860139860226","500","250","psychophysics","195","695666","0.0-195.0","608ae40ba23632384c8818de","6213ce66826ad99aacd1f534","5","","","","","0","1"
"null","","","null","","","","html-keyboard-response","196","696171","0.0-196.0","608ae40ba23632384c8818de","6213ce66826ad99aacd1f534","","","","","<p style=""color:darkgreen;font-size:24px;"">Correct :)</p>","",""
"2505","key","v","v","16.665999999999944","500","250","psychophysics","197","698689","0.0-197.0","608ae40ba23632384c8818de","6213ce66826ad99aacd1f534","5","","","","","0","7"
"null","","","null","","","","html-keyboard-response","198","699192","0.0-198.0","608ae40ba23632384c8818de","6213ce66826ad99aacd1f534","","","","","<p style=""color:darkgreen;font-size:24px;"">Correct :)</p>","",""
"2467","key","v","v","16.66600000000037","500","250","psychophysics","199","701664","0.0-199.0","608ae40ba23632384c8818de","6213ce66826ad99aacd1f534","5","","","","","0","3"
"null","","","null","","","","html-keyboard-response","200","702167","0.0-200.0","608ae40ba23632384c8818de","6213ce66826ad99aacd1f534","","","","","<p style=""color:darkgreen;font-size:24px;"">Correct :)</p>","",""
"2407","key","n","n","16.680361111111576","500","250","psychophysics","201","704579","0.0-201.0","608ae40ba23632384c8818de","6213ce66826ad99aacd1f534","5","","","","","0","6"
"null","","","null","","","","html-keyboard-response","202","705080","0.0-202.0","608ae40ba23632384c8818de","6213ce66826ad99aacd1f534","","","","","<p style=""color:darkgreen;font-size:24px;"">Correct :)</p>","",""
"2582","key","v","v","16.66599999999988","500","250","psychophysics","203","707668","0.0-203.0","608ae40ba23632384c8818de","6213ce66826ad99aacd1f534","5","","","","","0","3"
"null","","","null","","","","html-keyboard-response","204","708173","0.0-204.0","608ae40ba23632384c8818de","6213ce66826ad99aacd1f534","","","","","<p style=""color:darkgreen;font-size:24px;"">Correct :)</p>","",""
"2443","key","n","n","16.66600000000001","500","250","psychophysics","205","710621","0.0-205.0","608ae40ba23632384c8818de","6213ce66826ad99aacd1f534","5","","","","","0","6"
"null","","","null","","","","html-keyboard-response","206","711122","0.0-206.0","608ae40ba23632384c8818de","6213ce66826ad99aacd1f534","","","","","<p style=""color:darkgreen;font-size:24px;"">Correct :)</p>","",""
"2644","key","v","v","16.6703584905664","500","250","psychophysics","207","713771","0.0-207.0","608ae40ba23632384c8818de","6213ce66826ad99aacd1f534","5","","","","","0","2"
"null","","","null","","","","html-keyboard-response","208","714274","0.0-208.0","608ae40ba23632384c8818de","6213ce66826ad99aacd1f534","","","","","<p style=""color:red;font-size:24px;"">Error :(</p>","",""
"2447","key","n","n","16.66600000000001","500","250","psychophysics","209","716726","0.0-209.0","608ae40ba23632384c8818de","6213ce66826ad99aacd1f534","5","","","","","0","4"
"null","","","null","","","","html-keyboard-response","210","717229","0.0-210.0","608ae40ba23632384c8818de","6213ce66826ad99aacd1f534","","","","","<p style=""color:darkgreen;font-size:24px;"">Correct :)</p>","",""
"2600","key","v","v","16.665999999999677","500","250","psychophysics","211","719834","0.0-211.0","608ae40ba23632384c8818de","6213ce66826ad99aacd1f534","5","","","","","0","7"
"null","","","null","","","","html-keyboard-response","212","720338","0.0-212.0","608ae40ba23632384c8818de","6213ce66826ad99aacd1f534","","","","","<p style=""color:darkgreen;font-size:24px;"">Correct :)</p>","",""
"2694","key","v","v","16.665999999999954","500","250","psychophysics","213","723037","0.0-213.0","608ae40ba23632384c8818de","6213ce66826ad99aacd1f534","5","","","","","0","9"
"null","","","null","","","","html-keyboard-response","214","723538","0.0-214.0","608ae40ba23632384c8818de","6213ce66826ad99aacd1f534","","","","","<p style=""color:darkgreen;font-size:24px;"">Correct :)</p>","",""
"2502","key","n","n","16.670357615894343","500","250","psychophysics","215","726053","0.0-215.0","608ae40ba23632384c8818de","6213ce66826ad99aacd1f534","5","","","","","0","6"
"null","","","null","","","","html-keyboard-response","216","726557","0.0-216.0","608ae40ba23632384c8818de","6213ce66826ad99aacd1f534","","","","","<p style=""color:darkgreen;font-size:24px;"">Correct :)</p>","",""
"2703","key","v","v","16.665999999999954","500","250","psychophysics","217","729263","0.0-217.0","608ae40ba23632384c8818de","6213ce66826ad99aacd1f534","5","","","","","0","7"
"null","","","null","","","","html-keyboard-response","218","729767","0.0-218.0","608ae40ba23632384c8818de","6213ce66826ad99aacd1f534","","","","","<p style=""color:darkgreen;font-size:24px;"">Correct :)</p>","",""
"2702","key","n","n","16.66599999999976","500","250","psychophysics","219","732483","0.0-219.0","608ae40ba23632384c8818de","6213ce66826ad99aacd1f534","5","","","","","0","6"
"null","","","null","","","","html-keyboard-response","220","732984","0.0-220.0","608ae40ba23632384c8818de","6213ce66826ad99aacd1f534","","","","","<p style=""color:darkgreen;font-size:24px;"">Correct :)</p>","",""
"2411","key","n","n","16.669917241379554","500","250","psychophysics","221","735401","0.0-221.0","608ae40ba23632384c8818de","6213ce66826ad99aacd1f534","5","","","","","0","6"
"null","","","null","","","","html-keyboard-response","222","735902","0.0-222.0","608ae40ba23632384c8818de","6213ce66826ad99aacd1f534","","","","","<p style=""color:darkgreen;font-size:24px;"">Correct :)</p>","",""
"2446","key","n","n","16.66600000000001","500","250","psychophysics","223","738352","0.0-223.0","608ae40ba23632384c8818de","6213ce66826ad99aacd1f534","5","","","","","0","8"
"null","","","null","","","","html-keyboard-response","224","738855","0.0-224.0","608ae40ba23632384c8818de","6213ce66826ad99aacd1f534","","","","","<p style=""color:darkgreen;font-size:24px;"">Correct :)</p>","",""
"2568","key","v","v","16.666000000000086","500","250","psychophysics","225","741428","0.0-225.0","608ae40ba23632384c8818de","6213ce66826ad99aacd1f534","5","","","","","0","9"
"null","","","null","","","","html-keyboard-response","226","741932","0.0-226.0","608ae40ba23632384c8818de","6213ce66826ad99aacd1f534","","","","","<p style=""color:darkgreen;font-size:24px;"">Correct :)</p>","",""
"2682","key","v","v","16.66952795031125","500","250","psychophysics","227","744619","0.0-227.0","608ae40ba23632384c8818de","6213ce66826ad99aacd1f534","5","","","","","0","7"
"null","","","null","","","","html-keyboard-response","228","745121","0.0-228.0","608ae40ba23632384c8818de","6213ce66826ad99aacd1f534","","","","","<p style=""color:darkgreen;font-size:24px;"">Correct :)</p>","",""
"2478","key","v","v","16.66599999999959","500","250","psychophysics","229","747604","0.0-229.0","608ae40ba23632384c8818de","6213ce66826ad99aacd1f534","5","","","","","0","1"
"null","","","null","","","","html-keyboard-response","230","748108","0.0-230.0","608ae40ba23632384c8818de","6213ce66826ad99aacd1f534","","","","","<p style=""color:darkgreen;font-size:24px;"">Correct :)</p>","",""
"2427","key","v","v","16.66600000000023","500","250","psychophysics","231","750541","0.0-231.0","608ae40ba23632384c8818de","6213ce66826ad99aacd1f534","5","","","","","0","7"
"null","","","null","","","","html-keyboard-response","232","751043","0.0-232.0","608ae40ba23632384c8818de","6213ce66826ad99aacd1f534","","","","","<p style=""color:darkgreen;font-size:24px;"">Correct :)</p>","",""
"2506","key","v","v","16.665999999999944","500","250","psychophysics","233","753554","0.0-233.0","608ae40ba23632384c8818de","6213ce66826ad99aacd1f534","5","","","","","0","7"
"null","","","null","","","","html-keyboard-response","234","754056","0.0-234.0","608ae40ba23632384c8818de","6213ce66826ad99aacd1f534","","","","","<p style=""color:darkgreen;font-size:24px;"">Correct :)</p>","",""
"2417","key","v","v","16.670606896551806","500","250","psychophysics","235","756478","0.0-235.0","608ae40ba23632384c8818de","6213ce66826ad99aacd1f534","5","","","","","0","1"
"null","","","null","","","","html-keyboard-response","236","756983","0.0-236.0","608ae40ba23632384c8818de","6213ce66826ad99aacd1f534","","","","","<p style=""color:darkgreen;font-size:24px;"">Correct :)</p>","",""
"2971","key","v","v","16.665999999999553","500","250","psychophysics","237","759967","0.0-237.0","608ae40ba23632384c8818de","6213ce66826ad99aacd1f534","5","","","","","0","3"
"null","","","null","","","","html-keyboard-response","238","760471","0.0-238.0","608ae40ba23632384c8818de","6213ce66826ad99aacd1f534","","","","","<p style=""color:darkgreen;font-size:24px;"">Correct :)</p>","",""
"2593","key","n","n","16.665999999999677","500","250","psychophysics","239","763069","0.0-239.0","608ae40ba23632384c8818de","6213ce66826ad99aacd1f534","5","","","","","0","6"
"null","","","null","","","","html-keyboard-response","240","763573","0.0-240.0","608ae40ba23632384c8818de","6213ce66826ad99aacd1f534","","","","","<p style=""color:darkgreen;font-size:24px;"">Correct :)</p>","",""
"2643","key","n","n","16.66957232704439","500","250","psychophysics","241","766220","0.0-241.0","608ae40ba23632384c8818de","6213ce66826ad99aacd1f534","5","","","","","0","8"
"null","","","null","","","","html-keyboard-response","242","766722","0.0-242.0","608ae40ba23632384c8818de","6213ce66826ad99aacd1f534","","","","","<p style=""color:darkgreen;font-size:24px;"">Correct :)</p>","",""
"2451","key","v","v","16.665999999999798","500","250","psychophysics","243","769186","0.0-243.0","608ae40ba23632384c8818de","6213ce66826ad99aacd1f534","5","","","","","0","3"
"null","","","null","","","","html-keyboard-response","244","769688","0.0-244.0","608ae40ba23632384c8818de","6213ce66826ad99aacd1f534","","","","","<p style=""color:darkgreen;font-size:24px;"">Correct :)</p>","",""
"2510","key","n","n","16.665999999999944","500","250","psychophysics","245","772203","0.0-245.0","608ae40ba23632384c8818de","6213ce66826ad99aacd1f534","5","","","","","0","8"
"null","","","null","","","","html-keyboard-response","246","772704","0.0-246.0","608ae40ba23632384c8818de","6213ce66826ad99aacd1f534","","","","","<p style=""color:darkgreen;font-size:24px;"">Correct :)</p>","",""
"2625","key","n","n","16.670386075949196","500","250","psychophysics","247","775334","0.0-247.0","608ae40ba23632384c8818de","6213ce66826ad99aacd1f534","5","","","","","0","6"
"null","","","null","","","","html-keyboard-response","248","775836","0.0-248.0","608ae40ba23632384c8818de","6213ce66826ad99aacd1f534","","","","","<p style=""color:darkgreen;font-size:24px;"">Correct :)</p>","",""
"2775","key","v","v","16.665999999999705","500","250","psychophysics","249","778622","0.0-249.0","608ae40ba23632384c8818de","6213ce66826ad99aacd1f534","5","","","","","0","9"
"null","","","null","","","","html-keyboard-response","250","779126","0.0-250.0","608ae40ba23632384c8818de","6213ce66826ad99aacd1f534","","","","","<p style=""color:darkgreen;font-size:24px;"">Correct :)</p>","",""
"2719","key","v","v","16.665999999999567","500","250","psychophysics","251","781851","0.0-251.0","608ae40ba23632384c8818de","6213ce66826ad99aacd1f534","5","","","","","0","3"
"null","","","null","","","","html-keyboard-response","252","782354","0.0-252.0","608ae40ba23632384c8818de","6213ce66826ad99aacd1f534","","","","","<p style=""color:darkgreen;font-size:24px;"">Correct :)</p>","",""
"2653","key","n","n","16.669550000000164","500","250","psychophysics","253","785019","0.0-253.0","608ae40ba23632384c8818de","6213ce66826ad99aacd1f534","5","","","","","0","4"
"null","","","null","","","","html-keyboard-response","254","785521","0.0-254.0","608ae40ba23632384c8818de","6213ce66826ad99aacd1f534","","","","","<p style=""color:darkgreen;font-size:24px;"">Correct :)</p>","",""
"2473","key","n","n","16.66600000000037","500","250","psychophysics","255","787999","0.0-255.0","608ae40ba23632384c8818de","6213ce66826ad99aacd1f534","5","","","","","0","8"
"null","","","null","","","","html-keyboard-response","256","788502","0.0-256.0","608ae40ba23632384c8818de","6213ce66826ad99aacd1f534","","","","","<p style=""color:darkgreen;font-size:24px;"">Correct :)</p>","",""
"2616","key","n","n","16.66600000000022","500","250","psychophysics","257","791121","0.0-257.0","608ae40ba23632384c8818de","6213ce66826ad99aacd1f534","5","","","","","0","2"
"null","","","null","","","","html-keyboard-response","258","791625","0.0-258.0","608ae40ba23632384c8818de","6213ce66826ad99aacd1f534","","","","","<p style=""color:darkgreen;font-size:24px;"">Correct :)</p>","",""
"2438","key","n","n","16.66600000000001","500","250","psychophysics","259","794067","0.0-259.0","608ae40ba23632384c8818de","6213ce66826ad99aacd1f534","5","","","","","0","6"
"null","","","null","","","","html-keyboard-response","260","794571","0.0-260.0","608ae40ba23632384c8818de","6213ce66826ad99aacd1f534","","","","","<p style=""color:darkgreen;font-size:24px;"">Correct :)</p>","",""
"2559","key","v","v","16.670058441558528","500","250","psychophysics","261","797136","0.0-261.0","608ae40ba23632384c8818de","6213ce66826ad99aacd1f534","5","","","","","0","7"
"null","","","null","","","","html-keyboard-response","262","797638","0.0-262.0","608ae40ba23632384c8818de","6213ce66826ad99aacd1f534","","","","","<p style=""color:darkgreen;font-size:24px;"">Correct :)</p>","",""
"2540","key","v","v","16.66600000000029","500","250","psychophysics","263","800190","0.0-263.0","608ae40ba23632384c8818de","6213ce66826ad99aacd1f534","5","","","","","0","3"
"null","","","null","","","","html-keyboard-response","264","800692","0.0-264.0","608ae40ba23632384c8818de","6213ce66826ad99aacd1f534","","","","","<p style=""color:darkgreen;font-size:24px;"">Correct :)</p>","",""
"2473","key","v","v","16.66599999999959","500","250","psychophysics","265","803171","0.0-265.0","608ae40ba23632384c8818de","6213ce66826ad99aacd1f534","5","","","","","0","1"
"null","","","null","","","","html-keyboard-response","266","803675","0.0-266.0","608ae40ba23632384c8818de","6213ce66826ad99aacd1f534","","","","","<p style=""color:darkgreen;font-size:24px;"">Correct :)</p>","",""
"2525","key","v","v","16.669736842105568","500","250","psychophysics","267","806205","0.0-267.0","608ae40ba23632384c8818de","6213ce66826ad99aacd1f534","5","","","","","0","7"
"null","","","null","","","","html-keyboard-response","268","806710","0.0-268.0","608ae40ba23632384c8818de","6213ce66826ad99aacd1f534","","","","","<p style=""color:darkgreen;font-size:24px;"">Correct :)</p>","",""
"3063","key","n","n","16.66599999999997","500","250","psychophysics","269","809777","0.0-269.0","608ae40ba23632384c8818de","6213ce66826ad99aacd1f534","5","","","","","0","4"
"null","","","null","","","","html-keyboard-response","270","810281","0.0-270.0","608ae40ba23632384c8818de","6213ce66826ad99aacd1f534","","","","","<p style=""color:darkgreen;font-size:24px;"">Correct :)</p>","",""
"2448","key","n","n","16.66600000000001","500","250","psychophysics","271","812734","0.0-271.0","608ae40ba23632384c8818de","6213ce66826ad99aacd1f534","5","","","","","0","8"
"null","","","null","","","","html-keyboard-response","272","813237","0.0-272.0","608ae40ba23632384c8818de","6213ce66826ad99aacd1f534","","","","","<p style=""color:darkgreen;font-size:24px;"">Correct :)</p>","",""
"2612","key","n","n","16.670414012738885","500","250","psychophysics","273","815854","0.0-273.0","608ae40ba23632384c8818de","6213ce66826ad99aacd1f534","5","","","","","0","2"
"null","","","null","","","","html-keyboard-response","274","816357","0.0-274.0","608ae40ba23632384c8818de","6213ce66826ad99aacd1f534","","","","","<p style=""color:darkgreen;font-size:24px;"">Correct :)</p>","",""
"2900","key","v","v","16.66599999999978","500","250","psychophysics","275","819262","0.0-275.0","608ae40ba23632384c8818de","6213ce66826ad99aacd1f534","5","","","","","0","9"
"null","","","null","","","","html-keyboard-response","276","819766","0.0-276.0","608ae40ba23632384c8818de","6213ce66826ad99aacd1f534","","","","","<p style=""color:darkgreen;font-size:24px;"">Correct :)</p>","",""
"2622","key","v","v","16.666000000000018","500","250","psychophysics","277","822401","0.0-277.0","608ae40ba23632384c8818de","6213ce66826ad99aacd1f534","5","","","","","0","3"
"null","","","null","","","","html-keyboard-response","278","822904","0.0-278.0","608ae40ba23632384c8818de","6213ce66826ad99aacd1f534","","","","","<p style=""color:darkgreen;font-size:24px;"">Correct :)</p>","",""
"2833","key","v","v","16.670076470587894","500","250","psychophysics","279","825742","0.0-279.0","608ae40ba23632384c8818de","6213ce66826ad99aacd1f534","5","","","","","0","3"
"null","","","null","","","","html-keyboard-response","280","826245","0.0-280.0","608ae40ba23632384c8818de","6213ce66826ad99aacd1f534","","","","","<p style=""color:darkgreen;font-size:24px;"">Correct :)</p>","",""
"2623","key","n","n","16.665999999999478","500","250","psychophysics","281","828873","0.0-281.0","608ae40ba23632384c8818de","6213ce66826ad99aacd1f534","5","","","","","0","6"
"null","","","null","","","","html-keyboard-response","282","829376","0.0-282.0","608ae40ba23632384c8818de","6213ce66826ad99aacd1f534","","","","","<p style=""color:darkgreen;font-size:24px;"">Correct :)</p>","",""
"2710","key","n","n","16.66599999999976","500","250","psychophysics","283","832092","0.0-283.0","608ae40ba23632384c8818de","6213ce66826ad99aacd1f534","5","","","","","0","4"
"null","","","null","","","","html-keyboard-response","284","832593","0.0-284.0","608ae40ba23632384c8818de","6213ce66826ad99aacd1f534","","","","","<p style=""color:darkgreen;font-size:24px;"">Correct :)</p>","",""
"2471","key","n","n","16.66981208053708","500","250","psychophysics","285","835067","0.0-285.0","608ae40ba23632384c8818de","6213ce66826ad99aacd1f534","5","","","","","0","2"
"null","","","null","","","","html-keyboard-response","286","835571","0.0-286.0","608ae40ba23632384c8818de","6213ce66826ad99aacd1f534","","","","","<p style=""color:darkgreen;font-size:24px;"">Correct :)</p>","",""
"2568","key","n","n","16.66599999999988","500","250","psychophysics","287","838151","0.0-287.0","608ae40ba23632384c8818de","6213ce66826ad99aacd1f534","5","","","","","0","2"
"null","","","null","","","","html-keyboard-response","288","838656","0.0-288.0","608ae40ba23632384c8818de","6213ce66826ad99aacd1f534","","","","","<p style=""color:darkgreen;font-size:24px;"">Correct :)</p>","",""
"2681","key","n","n","16.66600000000015","500","250","psychophysics","289","841342","0.0-289.0","608ae40ba23632384c8818de","6213ce66826ad99aacd1f534","5","","","","","0","4"
"null","","","null","","","","html-keyboard-response","290","841845","0.0-290.0","608ae40ba23632384c8818de","6213ce66826ad99aacd1f534","","","","","<p style=""color:darkgreen;font-size:24px;"">Correct :)</p>","",""
"2563","key","v","v","16.66599999999953","500","250","psychophysics","291","844413","0.0-291.0","608ae40ba23632384c8818de","6213ce66826ad99aacd1f534","5","","","","","0","1"
"null","","","null","","","","html-keyboard-response","292","844918","0.0-292.0","608ae40ba23632384c8818de","6213ce66826ad99aacd1f534","","","","","<p style=""color:darkgreen;font-size:24px;"">Correct :)</p>","",""
"3212","key","v","v","16.66876165803107","500","250","psychophysics","293","848134","0.0-293.0","608ae40ba23632384c8818de","6213ce66826ad99aacd1f534","5","","","","","0","7"
"null","","","null","","","","html-keyboard-response","294","848639","0.0-294.0","608ae40ba23632384c8818de","6213ce66826ad99aacd1f534","","","","","<p style=""color:darkgreen;font-size:24px;"">Correct :)</p>","",""
"69253","","","v","","","","html-keyboard-response","295","917893","0.0-295.0","608ae40ba23632384c8818de","6213ce66826ad99aacd1f534","","","","","<p> Here, the tasks are going to switch.  For some trials, your job is to decide if the digit is less than or greater than 5.  For others, it is to decide if the digit is even or odd.  You will be told which type of trial the current one is.  But, pay attention, the type of trial changes too.  We are going to do 50 of these.  </p>  <br><br>  Ready? (press v or n)","",""
"2809","key","v","v","16.6903214285717","500","250","psychophysics","296","920706","0.0-296.0","608ae40ba23632384c8818de","6213ce66826ad99aacd1f534","6","","","","","0","9"
"null","","","null","","","","html-keyboard-response","297","921209","0.0-297.0","608ae40ba23632384c8818de","6213ce66826ad99aacd1f534","","","","","<p style=""color:darkgreen;font-size:24px;"">Correct :)</p>","",""
"2750","key","v","v","16.665999999999894","500","250","psychophysics","298","923964","0.0-298.0","608ae40ba23632384c8818de","6213ce66826ad99aacd1f534","6","","","","","1","3"
"null","","","null","","","","html-keyboard-response","299","924467","0.0-299.0","608ae40ba23632384c8818de","6213ce66826ad99aacd1f534","","","","","<p style=""color:darkgreen;font-size:24px;"">Correct :)</p>","",""
"2629","key","n","n","16.666000000000018","500","250","psychophysics","300","927101","0.0-300.0","608ae40ba23632384c8818de","6213ce66826ad99aacd1f534","6","","","","","1","6"
"null","","","null","","","","html-keyboard-response","301","927603","0.0-301.0","608ae40ba23632384c8818de","6213ce66826ad99aacd1f534","","","","","<p style=""color:darkgreen;font-size:24px;"">Correct :)</p>","",""
"2532","key","n","n","16.67384868421083","500","250","psychophysics","302","930139","0.0-302.0","608ae40ba23632384c8818de","6213ce66826ad99aacd1f534","6","","","","","1","6"
"null","","","null","","","","html-keyboard-response","303","930643","0.0-303.0","608ae40ba23632384c8818de","6213ce66826ad99aacd1f534","","","","","<p style=""color:darkgreen;font-size:24px;"">Correct :)</p>","",""
"2614","key","v","v","16.66600000000022","500","250","psychophysics","304","933262","0.0-304.0","608ae40ba23632384c8818de","6213ce66826ad99aacd1f534","6","","","","","1","1"
"null","","","null","","","","html-keyboard-response","305","933765","0.0-305.0","608ae40ba23632384c8818de","6213ce66826ad99aacd1f534","","","","","<p style=""color:darkgreen;font-size:24px;"">Correct :)</p>","",""
"2833","key","n","n","16.66600000000052","500","250","psychophysics","306","936603","0.0-306.0","608ae40ba23632384c8818de","6213ce66826ad99aacd1f534","6","","","","","1","9"
"null","","","null","","","","html-keyboard-response","307","937107","0.0-307.0","608ae40ba23632384c8818de","6213ce66826ad99aacd1f534","","","","","<p style=""color:darkgreen;font-size:24px;"">Correct :)</p>","",""
"2449","key","n","n","16.66986394557804","500","250","psychophysics","308","939561","0.0-308.0","608ae40ba23632384c8818de","6213ce66826ad99aacd1f534","6","","","","","1","7"
"null","","","null","","","","html-keyboard-response","309","940064","0.0-309.0","608ae40ba23632384c8818de","6213ce66826ad99aacd1f534","","","","","<p style=""color:darkgreen;font-size:24px;"">Correct :)</p>","",""
"2513","key","v","v","16.666000000000714","500","250","psychophysics","310","942583","0.0-310.0","608ae40ba23632384c8818de","6213ce66826ad99aacd1f534","6","","","","","0","3"
"null","","","null","","","","html-keyboard-response","311","943085","0.0-311.0","608ae40ba23632384c8818de","6213ce66826ad99aacd1f534","","","","","<p style=""color:darkgreen;font-size:24px;"">Correct :)</p>","",""
"2569","key","n","n","16.666000000000086","500","250","psychophysics","312","945659","0.0-312.0","608ae40ba23632384c8818de","6213ce66826ad99aacd1f534","6","","","","","1","6"
"null","","","null","","","","html-keyboard-response","313","946163","0.0-313.0","608ae40ba23632384c8818de","6213ce66826ad99aacd1f534","","","","","<p style=""color:darkgreen;font-size:24px;"">Correct :)</p>","",""
"2519","key","n","n","16.66976158940372","500","250","psychophysics","314","948694","0.0-314.0","608ae40ba23632384c8818de","6213ce66826ad99aacd1f534","6","","","","","1","7"
"null","","","null","","","","html-keyboard-response","315","949198","0.0-315.0","608ae40ba23632384c8818de","6213ce66826ad99aacd1f534","","","","","<p style=""color:darkgreen;font-size:24px;"">Correct :)</p>","",""
"2457","key","n","n","16.66600000000001","500","250","psychophysics","316","951660","0.0-316.0","608ae40ba23632384c8818de","6213ce66826ad99aacd1f534","6","","","","","1","6"
"null","","","null","","","","html-keyboard-response","317","952162","0.0-317.0","608ae40ba23632384c8818de","6213ce66826ad99aacd1f534","","","","","<p style=""color:darkgreen;font-size:24px;"">Correct :)</p>","",""
"2837","key","n","n","16.665999999999837","500","250","psychophysics","318","955004","0.0-318.0","608ae40ba23632384c8818de","6213ce66826ad99aacd1f534","6","","","","","0","2"
"null","","","null","","","","html-keyboard-response","319","955508","0.0-319.0","608ae40ba23632384c8818de","6213ce66826ad99aacd1f534","","","","","<p style=""color:darkgreen;font-size:24px;"">Correct :)</p>","",""
"2755","key","v","v","16.669421686746702","500","250","psychophysics","320","958275","0.0-320.0","608ae40ba23632384c8818de","6213ce66826ad99aacd1f534","6","","","","","1","3"
"null","","","null","","","","html-keyboard-response","321","958777","0.0-321.0","608ae40ba23632384c8818de","6213ce66826ad99aacd1f534","","","","","<p style=""color:darkgreen;font-size:24px;"">Correct :)</p>","",""
"3155","key","v","v","16.666000000000196","500","250","psychophysics","322","961937","0.0-322.0","608ae40ba23632384c8818de","6213ce66826ad99aacd1f534","6","","","","","0","9"
"null","","","null","","","","html-keyboard-response","323","962441","0.0-323.0","608ae40ba23632384c8818de","6213ce66826ad99aacd1f534","","","","","<p style=""color:darkgreen;font-size:24px;"">Correct :)</p>","",""
"2787","key","n","n","16.66600000000021","500","250","psychophysics","324","965233","0.0-324.0","608ae40ba23632384c8818de","6213ce66826ad99aacd1f534","6","","","","","0","6"
"null","","","null","","","","html-keyboard-response","325","965736","0.0-325.0","608ae40ba23632384c8818de","6213ce66826ad99aacd1f534","","","","","<p style=""color:darkgreen;font-size:24px;"">Correct :)</p>","",""
"2689","key","v","v","16.671049382715818","500","250","psychophysics","326","968438","0.0-326.0","608ae40ba23632384c8818de","6213ce66826ad99aacd1f534","6","","","","","0","1"
"null","","","null","","","","html-keyboard-response","327","968941","0.0-327.0","608ae40ba23632384c8818de","6213ce66826ad99aacd1f534","","","","","<p style=""color:darkgreen;font-size:24px;"">Correct :)</p>","",""
"2547","key","n","n","16.66600000000029","500","250","psychophysics","328","971493","0.0-328.0","608ae40ba23632384c8818de","6213ce66826ad99aacd1f534","6","","","","","0","4"
"null","","","null","","","","html-keyboard-response","329","971995","0.0-329.0","608ae40ba23632384c8818de","6213ce66826ad99aacd1f534","","","","","<p style=""color:darkgreen;font-size:24px;"">Correct :)</p>","",""
"2872","key","n","n","16.666000000000146","500","250","psychophysics","330","974872","0.0-330.0","608ae40ba23632384c8818de","6213ce66826ad99aacd1f534","6","","","","","1","7"
"null","","","null","","","","html-keyboard-response","331","975375","0.0-331.0","608ae40ba23632384c8818de","6213ce66826ad99aacd1f534","","","","","<p style=""color:darkgreen;font-size:24px;"">Correct :)</p>","",""
"3212","key","v","v","16.668943005181497","500","250","psychophysics","332","978592","0.0-332.0","608ae40ba23632384c8818de","6213ce66826ad99aacd1f534","6","","","","","0","3"
"null","","","null","","","","html-keyboard-response","333","979096","0.0-333.0","608ae40ba23632384c8818de","6213ce66826ad99aacd1f534","","","","","<p style=""color:darkgreen;font-size:24px;"">Correct :)</p>","",""
"3085","key","v","v","16.665999999999798","500","250","psychophysics","334","982186","0.0-334.0","608ae40ba23632384c8818de","6213ce66826ad99aacd1f534","6","","","","","0","3"
"null","","","null","","","","html-keyboard-response","335","982688","0.0-335.0","608ae40ba23632384c8818de","6213ce66826ad99aacd1f534","","","","","<p style=""color:darkgreen;font-size:24px;"">Correct :)</p>","",""
"2537","key","v","v","16.66600000000029","500","250","psychophysics","336","985230","0.0-336.0","608ae40ba23632384c8818de","6213ce66826ad99aacd1f534","6","","","","","0","3"
"null","","","null","","","","html-keyboard-response","337","985731","0.0-337.0","608ae40ba23632384c8818de","6213ce66826ad99aacd1f534","","","","","<p style=""color:darkgreen;font-size:24px;"">Correct :)</p>","",""
"2751","key","v","v","16.669442424242327","500","250","psychophysics","338","988487","0.0-338.0","608ae40ba23632384c8818de","6213ce66826ad99aacd1f534","6","","","","","0","9"
"null","","","null","","","","html-keyboard-response","339","988989","0.0-339.0","608ae40ba23632384c8818de","6213ce66826ad99aacd1f534","","","","","<p style=""color:darkgreen;font-size:24px;"">Correct :)</p>","",""
"2632","key","v","v","16.666000000000018","500","250","psychophysics","340","991626","0.0-340.0","608ae40ba23632384c8818de","6213ce66826ad99aacd1f534","6","","","","","1","2"
"null","","","null","","","","html-keyboard-response","341","992130","0.0-341.0","608ae40ba23632384c8818de","6213ce66826ad99aacd1f534","","","","","<p style=""color:darkgreen;font-size:24px;"">Correct :)</p>","",""
"2941","key","n","n","16.666000000000086","500","250","psychophysics","342","995076","0.0-342.0","608ae40ba23632384c8818de","6213ce66826ad99aacd1f534","6","","","","","0","2"
"null","","","null","","","","html-keyboard-response","343","995578","0.0-343.0","608ae40ba23632384c8818de","6213ce66826ad99aacd1f534","","","","","<p style=""color:darkgreen;font-size:24px;"">Correct :)</p>","",""
"2583","key","v","v","16.66599999999988","500","250","psychophysics","344","998173","0.0-344.0","608ae40ba23632384c8818de","6213ce66826ad99aacd1f534","6","","","","","1","3"
"null","","","null","","","","html-keyboard-response","345","998675","0.0-345.0","608ae40ba23632384c8818de","6213ce66826ad99aacd1f534","","","","","<p style=""color:darkgreen;font-size:24px;"">Correct :)</p>","",""
"2672","key","n","n","16.669527950310524","500","250","psychophysics","346","1001353","0.0-346.0","608ae40ba23632384c8818de","6213ce66826ad99aacd1f534","6","","","","","1","9"
"null","","","null","","","","html-keyboard-response","347","1001854","0.0-347.0","608ae40ba23632384c8818de","6213ce66826ad99aacd1f534","","","","","<p style=""color:darkgreen;font-size:24px;"">Correct :)</p>","",""
"2787","key","v","v","16.66600000000021","500","250","psychophysics","348","1004655","0.0-348.0","608ae40ba23632384c8818de","6213ce66826ad99aacd1f534","6","","","","","1","4"
"null","","","null","","","","html-keyboard-response","349","1005159","0.0-349.0","608ae40ba23632384c8818de","6213ce66826ad99aacd1f534","","","","","<p style=""color:darkgreen;font-size:24px;"">Correct :)</p>","",""
"2598","key","v","v","16.66600000000022","500","250","psychophysics","350","1007763","0.0-350.0","608ae40ba23632384c8818de","6213ce66826ad99aacd1f534","6","","","","","0","3"
"null","","","null","","","","html-keyboard-response","351","1008267","0.0-351.0","608ae40ba23632384c8818de","6213ce66826ad99aacd1f534","","","","","<p style=""color:darkgreen;font-size:24px;"">Correct :)</p>","",""
"2654","key","n","n","16.670113207546866","500","250","psychophysics","352","1010926","0.0-352.0","608ae40ba23632384c8818de","6213ce66826ad99aacd1f534","6","","","","","0","8"
"null","","","null","","","","html-keyboard-response","353","1011428","0.0-353.0","608ae40ba23632384c8818de","6213ce66826ad99aacd1f534","","","","","<p style=""color:darkgreen;font-size:24px;"">Correct :)</p>","",""
"2604","key","n","n","16.665999999999478","500","250","psychophysics","354","1014035","0.0-354.0","608ae40ba23632384c8818de","6213ce66826ad99aacd1f534","6","","","","","0","7"
"null","","","null","","","","html-keyboard-response","355","1014538","0.0-355.0","608ae40ba23632384c8818de","6213ce66826ad99aacd1f534","","","","","<p style=""color:red;font-size:24px;"">Error :(</p>","",""
"2978","key","n","n","16.666000000000203","500","250","psychophysics","356","1017521","0.0-356.0","608ae40ba23632384c8818de","6213ce66826ad99aacd1f534","6","","","","","0","8"
"null","","","null","","","","html-keyboard-response","357","1018023","0.0-357.0","608ae40ba23632384c8818de","6213ce66826ad99aacd1f534","","","","","<p style=""color:darkgreen;font-size:24px;"">Correct :)</p>","",""
"2699","key","v","v","16.669484662576977","500","250","psychophysics","358","1020735","0.0-358.0","608ae40ba23632384c8818de","6213ce66826ad99aacd1f534","6","","","","","1","3"
"null","","","null","","","","html-keyboard-response","359","1021239","0.0-359.0","608ae40ba23632384c8818de","6213ce66826ad99aacd1f534","","","","","<p style=""color:darkgreen;font-size:24px;"">Correct :)</p>","",""
"3076","key","v","v","16.665999999999798","500","250","psychophysics","360","1024320","0.0-360.0","608ae40ba23632384c8818de","6213ce66826ad99aacd1f534","6","","","","","1","3"
"null","","","null","","","","html-keyboard-response","361","1024823","0.0-361.0","608ae40ba23632384c8818de","6213ce66826ad99aacd1f534","","","","","<p style=""color:darkgreen;font-size:24px;"">Correct :)</p>","",""
"2693","key","n","n","16.665999999999954","500","250","psychophysics","362","1027520","0.0-362.0","608ae40ba23632384c8818de","6213ce66826ad99aacd1f534","6","","","","","0","2"
"null","","","null","","","","html-keyboard-response","363","1028023","0.0-363.0","608ae40ba23632384c8818de","6213ce66826ad99aacd1f534","","","","","<p style=""color:darkgreen;font-size:24px;"">Correct :)</p>","",""
"3136","key","n","n","16.670328042327633","500","250","psychophysics","364","1031171","0.0-364.0","608ae40ba23632384c8818de","6213ce66826ad99aacd1f534","6","","","","","0","2"
"null","","","null","","","","html-keyboard-response","365","1031676","0.0-365.0","608ae40ba23632384c8818de","6213ce66826ad99aacd1f534","","","","","<p style=""color:darkgreen;font-size:24px;"">Correct :)</p>","",""
"2886","key","v","v","16.66599999999978","500","250","psychophysics","366","1034567","0.0-366.0","608ae40ba23632384c8818de","6213ce66826ad99aacd1f534","6","","","","","0","7"
"null","","","null","","","","html-keyboard-response","367","1035068","0.0-367.0","608ae40ba23632384c8818de","6213ce66826ad99aacd1f534","","","","","<p style=""color:darkgreen;font-size:24px;"">Correct :)</p>","",""
"2730","key","n","n","16.666000000000277","500","250","psychophysics","368","1037802","0.0-368.0","608ae40ba23632384c8818de","6213ce66826ad99aacd1f534","6","","","","","1","6"
"null","","","null","","","","html-keyboard-response","369","1038305","0.0-369.0","608ae40ba23632384c8818de","6213ce66826ad99aacd1f534","","","","","<p style=""color:darkgreen;font-size:24px;"">Correct :)</p>","",""
"2954","key","n","n","16.66919101123617","500","250","psychophysics","370","1041272","0.0-370.0","608ae40ba23632384c8818de","6213ce66826ad99aacd1f534","6","","","","","0","6"
"null","","","null","","","","html-keyboard-response","371","1041774","0.0-371.0","608ae40ba23632384c8818de","6213ce66826ad99aacd1f534","","","","","<p style=""color:darkgreen;font-size:24px;"">Correct :)</p>","",""
"2592","key","v","v","16.665999999999677","500","250","psychophysics","372","1044371","0.0-372.0","608ae40ba23632384c8818de","6213ce66826ad99aacd1f534","6","","","","","0","1"
"null","","","null","","","","html-keyboard-response","373","1044876","0.0-373.0","608ae40ba23632384c8818de","6213ce66826ad99aacd1f534","","","","","<p style=""color:darkgreen;font-size:24px;"">Correct :)</p>","",""
"2899","key","n","n","16.66599999999978","500","250","psychophysics","374","1047780","0.0-374.0","608ae40ba23632384c8818de","6213ce66826ad99aacd1f534","6","","","","","1","9"
"null","","","null","","","","html-keyboard-response","375","1048282","0.0-375.0","608ae40ba23632384c8818de","6213ce66826ad99aacd1f534","","","","","<p style=""color:darkgreen;font-size:24px;"">Correct :)</p>","",""
"2523","key","v","v","16.66976158940295","500","250","psychophysics","376","1050810","0.0-376.0","608ae40ba23632384c8818de","6213ce66826ad99aacd1f534","6","","","","","1","3"
"null","","","null","","","","html-keyboard-response","377","1051312","0.0-377.0","608ae40ba23632384c8818de","6213ce66826ad99aacd1f534","","","","","<p style=""color:darkgreen;font-size:24px;"">Correct :)</p>","",""
"2508","key","n","n","16.66600000000093","500","250","psychophysics","378","1053825","0.0-378.0","608ae40ba23632384c8818de","6213ce66826ad99aacd1f534","6","","","","","1","7"
"null","","","null","","","","html-keyboard-response","379","1054327","0.0-379.0","608ae40ba23632384c8818de","6213ce66826ad99aacd1f534","","","","","<p style=""color:darkgreen;font-size:24px;"">Correct :)</p>","",""
"2456","key","n","n","16.665999999999798","500","250","psychophysics","380","1056796","0.0-380.0","608ae40ba23632384c8818de","6213ce66826ad99aacd1f534","6","","","","","0","8"
"null","","","null","","","","html-keyboard-response","381","1057298","0.0-381.0","608ae40ba23632384c8818de","6213ce66826ad99aacd1f534","","","","","<p style=""color:darkgreen;font-size:24px;"">Correct :)</p>","",""
"2831","key","n","n","16.669341176470247","500","250","psychophysics","382","1060135","0.0-382.0","608ae40ba23632384c8818de","6213ce66826ad99aacd1f534","6","","","","","1","8"
"null","","","null","","","","html-keyboard-response","383","1060639","0.0-383.0","608ae40ba23632384c8818de","6213ce66826ad99aacd1f534","","","","","<p style=""color:darkgreen;font-size:24px;"">Correct :)</p>","",""
"2490","key","v","v","16.66599999999938","500","250","psychophysics","384","1063134","0.0-384.0","608ae40ba23632384c8818de","6213ce66826ad99aacd1f534","6","","","","","1","2"
"null","","","null","","","","html-keyboard-response","385","1063638","0.0-385.0","608ae40ba23632384c8818de","6213ce66826ad99aacd1f534","","","","","<p style=""color:darkgreen;font-size:24px;"">Correct :)</p>","",""
"2553","key","n","n","16.666000000000086","500","250","psychophysics","386","1066203","0.0-386.0","608ae40ba23632384c8818de","6213ce66826ad99aacd1f534","6","","","","","1","8"
"null","","","null","","","","html-keyboard-response","387","1066706","0.0-387.0","608ae40ba23632384c8818de","6213ce66826ad99aacd1f534","","","","","<p style=""color:darkgreen;font-size:24px;"">Correct :)</p>","",""
"2549","key","n","n","16.670529411764804","500","250","psychophysics","388","1069261","0.0-388.0","608ae40ba23632384c8818de","6213ce66826ad99aacd1f534","6","","","","","0","6"
"null","","","null","","","","html-keyboard-response","389","1069766","0.0-389.0","608ae40ba23632384c8818de","6213ce66826ad99aacd1f534","","","","","<p style=""color:darkgreen;font-size:24px;"">Correct :)</p>","",""
"2798","key","n","n","16.66600000000021","500","250","psychophysics","390","1072569","0.0-390.0","608ae40ba23632384c8818de","6213ce66826ad99aacd1f534","6","","","","","0","4"
"null","","","null","","","","html-keyboard-response","391","1073072","0.0-391.0","608ae40ba23632384c8818de","6213ce66826ad99aacd1f534","","","","","<p style=""color:darkgreen;font-size:24px;"">Correct :)</p>","",""
"2890","key","n","n","16.666000000000448","500","250","psychophysics","392","1075968","0.0-392.0","608ae40ba23632384c8818de","6213ce66826ad99aacd1f534","6","","","","","1","8"
"null","","","null","","","","html-keyboard-response","393","1076472","0.0-393.0","608ae40ba23632384c8818de","6213ce66826ad99aacd1f534","","","","","<p style=""color:darkgreen;font-size:24px;"">Correct :)</p>","",""
"2683","key","n","n","16.670304347826054","500","250","psychophysics","394","1079160","0.0-394.0","608ae40ba23632384c8818de","6213ce66826ad99aacd1f534","6","","","","","0","4"
"null","","","null","","","","html-keyboard-response","395","1079664","0.0-395.0","608ae40ba23632384c8818de","6213ce66826ad99aacd1f534","","","","","<p style=""color:darkgreen;font-size:24px;"">Correct :)</p>","",""
"10330","","","v","","","","html-keyboard-response","396","1089996","0.0-396.0","608ae40ba23632384c8818de","6213ce66826ad99aacd1f534","","","","","<p> Last set of trials.  Here, the tasks are going to switch once again.  We are going to do 50 of these.  And then you are done with the experiment.  </p>  <br><br>  Ready? (press v or n)","",""
"2427","key","n","n","16.66801369863033","500","250","psychophysics","397","1092436","0.0-397.0","608ae40ba23632384c8818de","6213ce66826ad99aacd1f534","7","","","","","0","6"
"null","","","null","","","","html-keyboard-response","398","1092938","0.0-398.0","608ae40ba23632384c8818de","6213ce66826ad99aacd1f534","","","","","<p style=""color:darkgreen;font-size:24px;"">Correct :)</p>","",""
"2891","key","v","v","16.666000000000448","500","250","psychophysics","399","1095834","0.0-399.0","608ae40ba23632384c8818de","6213ce66826ad99aacd1f534","7","","","","","1","2"
"null","","","null","","","","html-keyboard-response","400","1096336","0.0-400.0","608ae40ba23632384c8818de","6213ce66826ad99aacd1f534","","","","","<p style=""color:darkgreen;font-size:24px;"">Correct :)</p>","",""
"2431","key","v","v","16.66600000000023","500","250","psychophysics","401","1098773","0.0-401.0","608ae40ba23632384c8818de","6213ce66826ad99aacd1f534","7","","","","","1","4"
"null","","","null","","","","html-keyboard-response","402","1099275","0.0-402.0","608ae40ba23632384c8818de","6213ce66826ad99aacd1f534","","","","","<p style=""color:darkgreen;font-size:24px;"">Correct :)</p>","",""
"2491","key","v","v","16.673120000000733","500","250","psychophysics","403","1101772","0.0-403.0","608ae40ba23632384c8818de","6213ce66826ad99aacd1f534","7","","","","","0","7"
"null","","","null","","","","html-keyboard-response","404","1102274","0.0-404.0","608ae40ba23632384c8818de","6213ce66826ad99aacd1f534","","","","","<p style=""color:darkgreen;font-size:24px;"">Correct :)</p>","",""
"2501","key","v","v","16.66599999999938","500","250","psychophysics","405","1104780","0.0-405.0","608ae40ba23632384c8818de","6213ce66826ad99aacd1f534","7","","","","","0","1"
"null","","","null","","","","html-keyboard-response","406","1105281","0.0-406.0","608ae40ba23632384c8818de","6213ce66826ad99aacd1f534","","","","","<p style=""color:darkgreen;font-size:24px;"">Correct :)</p>","",""
"2542","key","v","v","16.6660000000005","500","250","psychophysics","407","1107826","0.0-407.0","608ae40ba23632384c8818de","6213ce66826ad99aacd1f534","7","","","","","1","4"
"null","","","null","","","","html-keyboard-response","408","1108330","0.0-408.0","608ae40ba23632384c8818de","6213ce66826ad99aacd1f534","","","","","<p style=""color:darkgreen;font-size:24px;"">Correct :)</p>","",""
"2562","key","v","v","16.66971241830075","500","250","psychophysics","409","1110898","0.0-409.0","608ae40ba23632384c8818de","6213ce66826ad99aacd1f534","7","","","","","1","3"
"null","","","null","","","","html-keyboard-response","410","1111401","0.0-410.0","608ae40ba23632384c8818de","6213ce66826ad99aacd1f534","","","","","<p style=""color:darkgreen;font-size:24px;"">Correct :)</p>","",""
"2560","key","n","n","16.666000000000086","500","250","psychophysics","411","1113966","0.0-411.0","608ae40ba23632384c8818de","6213ce66826ad99aacd1f534","7","","","","","1","6"
"null","","","null","","","","html-keyboard-response","412","1114469","0.0-412.0","608ae40ba23632384c8818de","6213ce66826ad99aacd1f534","","","","","<p style=""color:darkgreen;font-size:24px;"">Correct :)</p>","",""
"2399","key","n","n","16.666000000000672","500","250","psychophysics","413","1116873","0.0-413.0","608ae40ba23632384c8818de","6213ce66826ad99aacd1f534","7","","","","","1","6"
"null","","","null","","","","html-keyboard-response","414","1117375","0.0-414.0","608ae40ba23632384c8818de","6213ce66826ad99aacd1f534","","","","","<p style=""color:darkgreen;font-size:24px;"">Correct :)</p>","",""
"2680","key","n","n","16.66600000000015","500","250","psychophysics","415","1120061","0.0-415.0","608ae40ba23632384c8818de","6213ce66826ad99aacd1f534","7","","","","","0","2"
"null","","","null","","","","html-keyboard-response","416","1120565","0.0-416.0","608ae40ba23632384c8818de","6213ce66826ad99aacd1f534","","","","","<p style=""color:darkgreen;font-size:24px;"">Correct :)</p>","",""
"2559","key","n","n","16.669830065359076","500","250","psychophysics","417","1123130","0.0-417.0","608ae40ba23632384c8818de","6213ce66826ad99aacd1f534","7","","","","","1","6"
"null","","","null","","","","html-keyboard-response","418","1123632","0.0-418.0","608ae40ba23632384c8818de","6213ce66826ad99aacd1f534","","","","","<p style=""color:darkgreen;font-size:24px;"">Correct :)</p>","",""
"2442","key","n","n","16.665999999998636","500","250","psychophysics","419","1126079","0.0-419.0","608ae40ba23632384c8818de","6213ce66826ad99aacd1f534","7","","","","","1","7"
"null","","","null","","","","html-keyboard-response","420","1126581","0.0-420.0","608ae40ba23632384c8818de","6213ce66826ad99aacd1f534","","","","","<p style=""color:darkgreen;font-size:24px;"">Correct :)</p>","",""
"2951","key","v","v","16.665999999999904","500","250","psychophysics","421","1129536","0.0-421.0","608ae40ba23632384c8818de","6213ce66826ad99aacd1f534","7","","","","","0","7"
"null","","","null","","","","html-keyboard-response","422","1130038","0.0-422.0","608ae40ba23632384c8818de","6213ce66826ad99aacd1f534","","","","","<p style=""color:darkgreen;font-size:24px;"">Correct :)</p>","",""
"2601","key","v","v","16.66961783439419","500","250","psychophysics","423","1132652","0.0-423.0","608ae40ba23632384c8818de","6213ce66826ad99aacd1f534","7","","","","","1","2"
"null","","","null","","","","html-keyboard-response","424","1133157","0.0-424.0","608ae40ba23632384c8818de","6213ce66826ad99aacd1f534","","","","","<p style=""color:darkgreen;font-size:24px;"">Correct :)</p>","",""
"2508","key","v","v","16.666000000000714","500","250","psychophysics","425","1135670","0.0-425.0","608ae40ba23632384c8818de","6213ce66826ad99aacd1f534","7","","","","","1","2"
"null","","","null","","","","html-keyboard-response","426","1136172","0.0-426.0","608ae40ba23632384c8818de","6213ce66826ad99aacd1f534","","","","","<p style=""color:darkgreen;font-size:24px;"">Correct :)</p>","",""
"2668","key","n","n","16.66600000000015","500","250","psychophysics","427","1138853","0.0-427.0","608ae40ba23632384c8818de","6213ce66826ad99aacd1f534","7","","","","","1","7"
"null","","","null","","","","html-keyboard-response","428","1139355","0.0-428.0","608ae40ba23632384c8818de","6213ce66826ad99aacd1f534","","","","","<p style=""color:darkgreen;font-size:24px;"">Correct :)</p>","",""
"2778","key","v","v","16.670898203593037","500","250","psychophysics","429","1142138","0.0-429.0","608ae40ba23632384c8818de","6213ce66826ad99aacd1f534","7","","","","","0","7"
"null","","","null","","","","html-keyboard-response","430","1142639","0.0-430.0","608ae40ba23632384c8818de","6213ce66826ad99aacd1f534","","","","","<p style=""color:darkgreen;font-size:24px;"">Correct :)</p>","",""
"2544","key","v","v","16.66600000000029","500","250","psychophysics","431","1145188","0.0-431.0","608ae40ba23632384c8818de","6213ce66826ad99aacd1f534","7","","","","","0","7"
"null","","","null","","","","html-keyboard-response","432","1145690","0.0-432.0","608ae40ba23632384c8818de","6213ce66826ad99aacd1f534","","","","","<p style=""color:darkgreen;font-size:24px;"">Correct :)</p>","",""
"2508","key","v","v","16.665999999999173","500","250","psychophysics","433","1148204","0.0-433.0","608ae40ba23632384c8818de","6213ce66826ad99aacd1f534","7","","","","","0","3"
"null","","","null","","","","html-keyboard-response","434","1148708","0.0-434.0","608ae40ba23632384c8818de","6213ce66826ad99aacd1f534","","","","","<p style=""color:darkgreen;font-size:24px;"">Correct :)</p>","",""
"2570","key","v","v","16.669664516130222","500","250","psychophysics","435","1151283","0.0-435.0","608ae40ba23632384c8818de","6213ce66826ad99aacd1f534","7","","","","","0","1"
"null","","","null","","","","html-keyboard-response","436","1151785","0.0-436.0","608ae40ba23632384c8818de","6213ce66826ad99aacd1f534","","","","","<p style=""color:darkgreen;font-size:24px;"">Correct :)</p>","",""
"2539","key","v","v","16.66600000000029","500","250","psychophysics","437","1154337","0.0-437.0","608ae40ba23632384c8818de","6213ce66826ad99aacd1f534","7","","","","","1","2"
"null","","","null","","","","html-keyboard-response","438","1154841","0.0-438.0","608ae40ba23632384c8818de","6213ce66826ad99aacd1f534","","","","","<p style=""color:darkgreen;font-size:24px;"">Correct :)</p>","",""
"2576","key","v","v","16.66599999999988","500","250","psychophysics","439","1157422","0.0-439.0","608ae40ba23632384c8818de","6213ce66826ad99aacd1f534","7","","","","","1","3"
"null","","","null","","","","html-keyboard-response","440","1157924","0.0-440.0","608ae40ba23632384c8818de","6213ce66826ad99aacd1f534","","","","","<p style=""color:darkgreen;font-size:24px;"">Correct :)</p>","",""
"2497","key","v","v","16.665999999999173","500","250","psychophysics","441","1160434","0.0-441.0","608ae40ba23632384c8818de","6213ce66826ad99aacd1f534","7","","","","","0","1"
"null","","","null","","","","html-keyboard-response","442","1160937","0.0-442.0","608ae40ba23632384c8818de","6213ce66826ad99aacd1f534","","","","","<p style=""color:darkgreen;font-size:24px;"">Correct :)</p>","",""
"2395","key","n","n","16.670013888889418","500","250","psychophysics","443","1163337","0.0-443.0","608ae40ba23632384c8818de","6213ce66826ad99aacd1f534","7","","","","","0","4"
"null","","","null","","","","html-keyboard-response","444","1163839","0.0-444.0","608ae40ba23632384c8818de","6213ce66826ad99aacd1f534","","","","","<p style=""color:darkgreen;font-size:24px;"">Correct :)</p>","",""
"2583","key","v","v","16.66599999999988","500","250","psychophysics","445","1166426","0.0-445.0","608ae40ba23632384c8818de","6213ce66826ad99aacd1f534","7","","","","","1","4"
"null","","","null","","","","html-keyboard-response","446","1166929","0.0-446.0","608ae40ba23632384c8818de","6213ce66826ad99aacd1f534","","","","","<p style=""color:darkgreen;font-size:24px;"">Correct :)</p>","",""
"2818","key","n","n","16.66600000000002","500","250","psychophysics","447","1169753","0.0-447.0","608ae40ba23632384c8818de","6213ce66826ad99aacd1f534","7","","","","","1","7"
"null","","","null","","","","html-keyboard-response","448","1170255","0.0-448.0","608ae40ba23632384c8818de","6213ce66826ad99aacd1f534","","","","","<p style=""color:darkgreen;font-size:24px;"">Correct :)</p>","",""
"2659","key","v","v","16.670331250000164","500","250","psychophysics","449","1172919","0.0-449.0","608ae40ba23632384c8818de","6213ce66826ad99aacd1f534","7","","","","","0","1"
"null","","","null","","","","html-keyboard-response","450","1173423","0.0-450.0","608ae40ba23632384c8818de","6213ce66826ad99aacd1f534","","","","","<p style=""color:darkgreen;font-size:24px;"">Correct :)</p>","",""
"2403","key","v","v","16.666000000000672","500","250","psychophysics","451","1175828","0.0-451.0","608ae40ba23632384c8818de","6213ce66826ad99aacd1f534","7","","","","","1","3"
"null","","","null","","","","html-keyboard-response","452","1176329","0.0-452.0","608ae40ba23632384c8818de","6213ce66826ad99aacd1f534","","","","","<p style=""color:darkgreen;font-size:24px;"">Correct :)</p>","",""
"3022","key","n","n","16.666000000000494","500","250","psychophysics","453","1179357","0.0-453.0","608ae40ba23632384c8818de","6213ce66826ad99aacd1f534","7","","","","","0","2"
"null","","","null","","","","html-keyboard-response","454","1179860","0.0-454.0","608ae40ba23632384c8818de","6213ce66826ad99aacd1f534","","","","","<p style=""color:darkgreen;font-size:24px;"">Correct :)</p>","",""
"3014","key","v","v","16.66913812154729","500","250","psychophysics","455","1182879","0.0-455.0","608ae40ba23632384c8818de","6213ce66826ad99aacd1f534","7","","","","","0","2"
"null","","","null","","","","html-keyboard-response","456","1183381","0.0-456.0","608ae40ba23632384c8818de","6213ce66826ad99aacd1f534","","","","","<p style=""color:red;font-size:24px;"">Error :(</p>","",""
"2974","key","v","v","16.665999999999727","500","250","psychophysics","457","1186361","0.0-457.0","608ae40ba23632384c8818de","6213ce66826ad99aacd1f534","7","","","","","0","7"
"null","","","null","","","","html-keyboard-response","458","1186862","0.0-458.0","608ae40ba23632384c8818de","6213ce66826ad99aacd1f534","","","","","<p style=""color:darkgreen;font-size:24px;"">Correct :)</p>","",""
"2553","key","v","v","16.66600000000029","500","250","psychophysics","459","1189420","0.0-459.0","608ae40ba23632384c8818de","6213ce66826ad99aacd1f534","7","","","","","1","3"
"null","","","null","","","","html-keyboard-response","460","1189923","0.0-460.0","608ae40ba23632384c8818de","6213ce66826ad99aacd1f534","","","","","<p style=""color:darkgreen;font-size:24px;"">Correct :)</p>","",""
"2834","key","n","n","16.670052631579786","500","250","psychophysics","461","1192769","0.0-461.0","608ae40ba23632384c8818de","6213ce66826ad99aacd1f534","7","","","","","1","6"
"null","","","null","","","","html-keyboard-response","462","1193273","0.0-462.0","608ae40ba23632384c8818de","6213ce66826ad99aacd1f534","","","","","<p style=""color:darkgreen;font-size:24px;"">Correct :)</p>","",""
"2575","key","n","n","16.66599999999988","500","250","psychophysics","463","1195853","0.0-463.0","608ae40ba23632384c8818de","6213ce66826ad99aacd1f534","7","","","","","0","2"
"null","","","null","","","","html-keyboard-response","464","1196355","0.0-464.0","608ae40ba23632384c8818de","6213ce66826ad99aacd1f534","","","","","<p style=""color:darkgreen;font-size:24px;"">Correct :)</p>","",""
"2693","key","v","v","16.665999999999954","500","250","psychophysics","465","1199054","0.0-465.0","608ae40ba23632384c8818de","6213ce66826ad99aacd1f534","7","","","","","1","4"
"null","","","null","","","","html-keyboard-response","466","1199555","0.0-466.0","608ae40ba23632384c8818de","6213ce66826ad99aacd1f534","","","","","<p style=""color:darkgreen;font-size:24px;"">Correct :)</p>","",""
"2405","key","v","v","16.669917241379554","500","250","psychophysics","467","1201971","0.0-467.0","608ae40ba23632384c8818de","6213ce66826ad99aacd1f534","7","","","","","1","4"
"null","","","null","","","","html-keyboard-response","468","1202473","0.0-468.0","608ae40ba23632384c8818de","6213ce66826ad99aacd1f534","","","","","<p style=""color:darkgreen;font-size:24px;"">Correct :)</p>","",""
"2594","key","v","v","16.665999999999677","500","250","psychophysics","469","1205069","0.0-469.0","608ae40ba23632384c8818de","6213ce66826ad99aacd1f534","7","","","","","1","4"
"null","","","null","","","","html-keyboard-response","470","1205571","0.0-470.0","608ae40ba23632384c8818de","6213ce66826ad99aacd1f534","","","","","<p style=""color:darkgreen;font-size:24px;"">Correct :)</p>","",""
"2461","key","n","n","16.665999999999798","500","250","psychophysics","471","1208036","0.0-471.0","608ae40ba23632384c8818de","6213ce66826ad99aacd1f534","7","","","","","1","7"
"null","","","null","","","","html-keyboard-response","472","1208539","0.0-472.0","608ae40ba23632384c8818de","6213ce66826ad99aacd1f534","","","","","<p style=""color:darkgreen;font-size:24px;"">Correct :)</p>","",""
"2988","key","v","v","16.66985000000051","500","250","psychophysics","473","1211533","0.0-473.0","608ae40ba23632384c8818de","6213ce66826ad99aacd1f534","7","","","","","0","7"
"null","","","null","","","","html-keyboard-response","474","1212035","0.0-474.0","608ae40ba23632384c8818de","6213ce66826ad99aacd1f534","","","","","<p style=""color:darkgreen;font-size:24px;"">Correct :)</p>","",""
"2598","key","n","n","16.665999999999677","500","250","psychophysics","475","1214638","0.0-475.0","608ae40ba23632384c8818de","6213ce66826ad99aacd1f534","7","","","","","0","6"
"null","","","null","","","","html-keyboard-response","476","1215142","0.0-476.0","608ae40ba23632384c8818de","6213ce66826ad99aacd1f534","","","","","<p style=""color:darkgreen;font-size:24px;"">Correct :)</p>","",""
"2844","key","v","v","16.666000000001013","500","250","psychophysics","477","1217991","0.0-477.0","608ae40ba23632384c8818de","6213ce66826ad99aacd1f534","7","","","","","0","7"
"null","","","null","","","","html-keyboard-response","478","1218493","0.0-478.0","608ae40ba23632384c8818de","6213ce66826ad99aacd1f534","","","","","<p style=""color:darkgreen;font-size:24px;"">Correct :)</p>","",""
"2964","key","n","n","16.669191011235515","500","250","psychophysics","479","1221459","0.0-479.0","608ae40ba23632384c8818de","6213ce66826ad99aacd1f534","7","","","","","1","6"
"null","","","null","","","","html-keyboard-response","480","1221962","0.0-480.0","608ae40ba23632384c8818de","6213ce66826ad99aacd1f534","","","","","<p style=""color:darkgreen;font-size:24px;"">Correct :)</p>","",""
"2711","key","v","v","16.66599999999976","500","250","psychophysics","481","1224678","0.0-481.0","608ae40ba23632384c8818de","6213ce66826ad99aacd1f534","7","","","","","0","7"
"null","","","null","","","","html-keyboard-response","482","1225180","0.0-482.0","608ae40ba23632384c8818de","6213ce66826ad99aacd1f534","","","","","<p style=""color:darkgreen;font-size:24px;"">Correct :)</p>","",""
"2664","key","v","v","16.665999999999087","500","250","psychophysics","483","1227847","0.0-483.0","608ae40ba23632384c8818de","6213ce66826ad99aacd1f534","7","","","","","1","3"
"null","","","null","","","","html-keyboard-response","484","1228349","0.0-484.0","608ae40ba23632384c8818de","6213ce66826ad99aacd1f534","","","","","<p style=""color:darkgreen;font-size:24px;"">Correct :)</p>","",""
"2685","key","n","n","16.66600000000015","500","250","psychophysics","485","1231047","0.0-485.0","608ae40ba23632384c8818de","6213ce66826ad99aacd1f534","7","","","","","1","6"
"null","","","null","","","","html-keyboard-response","486","1231551","0.0-486.0","608ae40ba23632384c8818de","6213ce66826ad99aacd1f534","","","","","<p style=""color:darkgreen;font-size:24px;"">Correct :)</p>","",""
"2815","key","v","v","16.669201183433167","500","250","psychophysics","487","1234368","0.0-487.0","608ae40ba23632384c8818de","6213ce66826ad99aacd1f534","7","","","","","1","4"
"null","","","null","","","","html-keyboard-response","488","1234872","0.0-488.0","608ae40ba23632384c8818de","6213ce66826ad99aacd1f534","","","","","<p style=""color:darkgreen;font-size:24px;"">Correct :)</p>","",""
"2911","key","n","n","16.665999999998935","500","250","psychophysics","489","1237788","0.0-489.0","608ae40ba23632384c8818de","6213ce66826ad99aacd1f534","7","","","","","0","2"
"null","","","null","","","","html-keyboard-response","490","1238292","0.0-490.0","608ae40ba23632384c8818de","6213ce66826ad99aacd1f534","","","","","<p style=""color:darkgreen;font-size:24px;"">Correct :)</p>","",""
"3015","key","v","v","16.665999999999208","500","250","psychophysics","491","1241313","0.0-491.0","608ae40ba23632384c8818de","6213ce66826ad99aacd1f534","7","","","","","0","3"
"null","","","null","","","","html-keyboard-response","492","1241815","0.0-492.0","608ae40ba23632384c8818de","6213ce66826ad99aacd1f534","","","","","<p style=""color:darkgreen;font-size:24px;"">Correct :)</p>","",""
"2700","key","n","n","16.67059259259366","500","250","psychophysics","493","1244520","0.0-493.0","608ae40ba23632384c8818de","6213ce66826ad99aacd1f534","7","","","","","0","2"
"null","","","null","","","","html-keyboard-response","494","1245024","0.0-494.0","608ae40ba23632384c8818de","6213ce66826ad99aacd1f534","","","","","<p style=""color:darkgreen;font-size:24px;"">Correct :)</p>","",""
"2653","key","v","v","16.665999999998895","500","250","psychophysics","495","1247683","0.0-495.0","608ae40ba23632384c8818de","6213ce66826ad99aacd1f534","7","","","","","0","7"
"null","","","null","","","","html-keyboard-response","496","1248184","0.0-496.0","608ae40ba23632384c8818de","6213ce66826ad99aacd1f534","","","","","<p style=""color:darkgreen;font-size:24px;"">Correct :)</p>","",""
