"rt","response_type","key_press","response","avg_frame_time","center_x","center_y","trial_type","trial_index","time_elapsed","internal_node_id","pid","sid","phase","guide","targ","resp","stimulus","is5","stim"
"4858","key"," "," ","16.725239726027397","500","250","psychophysics","0","4902","0.0-0.0","6106e56a30bffe5aa77176ee","6213d22a43b6641d8941d8ca","","","","","","",""
"5611","key"," "," ","16.765782089552236","500","250","psychophysics","1","10528","0.0-1.0","6106e56a30bffe5aa77176ee","6213d22a43b6641d8941d8ca","","","","","","",""
"3979","key"," "," ","16.66576050420168","500","250","psychophysics","2","14511","0.0-2.0","6106e56a30bffe5aa77176ee","6213d22a43b6641d8941d8ca","","","","","","",""
"2515","key"," "," ","16.66879333333334","500","250","psychophysics","3","17031","0.0-3.0","6106e56a30bffe5aa77176ee","6213d22a43b6641d8941d8ca","","","","","","",""
"4572","key"," "," ","16.66802189781022","500","250","psychophysics","4","21617","0.0-4.0","6106e56a30bffe5aa77176ee","6213d22a43b6641d8941d8ca","","","","","","",""
"11460","key"," "," ","16.66692005813953","500","250","psychophysics","5","33091","0.0-5.0","6106e56a30bffe5aa77176ee","6213d22a43b6641d8941d8ca","","","","","","",""
"7343","key"," "," ","16.66596363636363","500","250","psychophysics","6","40439","0.0-6.0","6106e56a30bffe5aa77176ee","6213d22a43b6641d8941d8ca","","","","","","",""
"6356","key"," "," ","16.667223684210523","500","250","psychophysics","7","46800","0.0-7.0","6106e56a30bffe5aa77176ee","6213d22a43b6641d8941d8ca","","","","","","",""
"35070","key"," "," ","16.666857889733844","500","250","psychophysics","8","81879","0.0-8.0","6106e56a30bffe5aa77176ee","6213d22a43b6641d8941d8ca","0","0","38","35","","",""
"15802","key"," "," ","16.666601265822795","500","250","psychophysics","9","97688","0.0-9.0","6106e56a30bffe5aa77176ee","6213d22a43b6641d8941d8ca","","","","","","",""
"3334","key"," "," ","16.66653266331658","500","250","psychophysics","10","101031","0.0-10.0","6106e56a30bffe5aa77176ee","6213d22a43b6641d8941d8ca","","","","","","",""
"5252","key"," "," ","16.666784126984115","500","250","psychophysics","11","106294","0.0-11.0","6106e56a30bffe5aa77176ee","6213d22a43b6641d8941d8ca","","","","","","",""
"4364","key"," "," ","16.667409961685834","500","250","psychophysics","12","110663","0.0-12.0","6106e56a30bffe5aa77176ee","6213d22a43b6641d8941d8ca","","","","","","",""
"3446","key"," "," ","16.668189320388336","500","250","psychophysics","13","114120","0.0-13.0","6106e56a30bffe5aa77176ee","6213d22a43b6641d8941d8ca","","","","","","",""
"5518","key"," "," ","16.667794561933515","500","250","psychophysics","14","119646","0.0-14.0","6106e56a30bffe5aa77176ee","6213d22a43b6641d8941d8ca","","","","","","",""
"4659","key"," "," ","16.667211469534056","500","250","psychophysics","15","124312","0.0-15.0","6106e56a30bffe5aa77176ee","6213d22a43b6641d8941d8ca","","","","","","",""
"2206","key"," "," ","16.666469696969603","500","250","psychophysics","16","126523","0.0-16.0","6106e56a30bffe5aa77176ee","6213d22a43b6641d8941d8ca","","","","","","",""
"16836","key"," "," ","16.666466798810713","500","250","psychophysics","17","143366","0.0-17.0","6106e56a30bffe5aa77176ee","6213d22a43b6641d8941d8ca","1","0","20","25","","",""
"22849","key"," "," ","16.666983953318745","500","250","psychophysics","18","166223","0.0-18.0","6106e56a30bffe5aa77176ee","6213d22a43b6641d8941d8ca","1","5","31","33","","",""
"13862","key"," "," ","16.666690734055344","500","250","psychophysics","19","180090","0.0-19.0","6106e56a30bffe5aa77176ee","6213d22a43b6641d8941d8ca","1","0","52","69","","",""
"5294","key"," "," ","16.666536277602575","500","250","psychophysics","20","185391","0.0-20.0","6106e56a30bffe5aa77176ee","6213d22a43b6641d8941d8ca","1","5","21","23","","",""
"7880","key"," "," ","16.665917372881346","500","250","psychophysics","21","193277","0.0-21.0","6106e56a30bffe5aa77176ee","6213d22a43b6641d8941d8ca","1","0","50","62","","",""
"5893","key"," "," ","16.666677053824362","500","250","psychophysics","22","199174","0.0-22.0","6106e56a30bffe5aa77176ee","6213d22a43b6641d8941d8ca","1","5","20","21","","",""
"5637","key"," "," ","16.665783382789336","500","250","psychophysics","23","204814","0.0-23.0","6106e56a30bffe5aa77176ee","6213d22a43b6641d8941d8ca","1","0","36","40","","",""
"6663","key"," "," ","16.667160000000003","500","250","psychophysics","24","211488","0.0-24.0","6106e56a30bffe5aa77176ee","6213d22a43b6641d8941d8ca","1","5","35","33","","",""
"12026","key"," "," ","16.689725000000017","500","250","psychophysics","25","223519","0.0-25.0","6106e56a30bffe5aa77176ee","6213d22a43b6641d8941d8ca","1","0","56","60","","",""
"25366","key"," "," ","16.666869165023023","500","250","psychophysics","26","248889","0.0-26.0","6106e56a30bffe5aa77176ee","6213d22a43b6641d8941d8ca","1","5","42","46","","",""
"13752","key"," "," ","16.666978155339837","500","250","psychophysics","27","262647","0.0-27.0","6106e56a30bffe5aa77176ee","6213d22a43b6641d8941d8ca","1","0","46","55","","",""
"10689","key"," "," ","16.66687051482056","500","250","psychophysics","28","273343","0.0-28.0","6106e56a30bffe5aa77176ee","6213d22a43b6641d8941d8ca","1","5","50","51","","",""
"6154","key"," "," ","16.665616847826048","500","250","psychophysics","29","279504","0.0-29.0","6106e56a30bffe5aa77176ee","6213d22a43b6641d8941d8ca","1","0","27","34","","",""
"13504","key"," "," ","16.66681358024685","500","250","psychophysics","30","293015","0.0-30.0","6106e56a30bffe5aa77176ee","6213d22a43b6641d8941d8ca","1","5","56","57","","",""
"9054","key"," "," ","16.66723388581945","500","250","psychophysics","31","302079","0.0-31.0","6106e56a30bffe5aa77176ee","6213d22a43b6641d8941d8ca","1","0","48","62","","",""
"15460","key"," "," ","16.667021574973","500","250","psychophysics","32","317544","0.0-32.0","6106e56a30bffe5aa77176ee","6213d22a43b6641d8941d8ca","1","5","52","57","","",""
"16889","key"," "," ","16.66698914116483","500","250","psychophysics","33","334439","0.0-33.0","6106e56a30bffe5aa77176ee","6213d22a43b6641d8941d8ca","1","0","44","46","","",""
"14170","key"," "," ","16.667101295641938","500","250","psychophysics","34","348615","0.0-34.0","6106e56a30bffe5aa77176ee","6213d22a43b6641d8941d8ca","1","5","47","48","","",""
"11111","key"," "," ","16.66685885885881","500","250","psychophysics","35","359736","0.0-35.0","6106e56a30bffe5aa77176ee","6213d22a43b6641d8941d8ca","1","0","37","39","","",""
"13719","key"," "," ","16.666839611178624","500","250","psychophysics","36","373462","0.0-36.0","6106e56a30bffe5aa77176ee","6213d22a43b6641d8941d8ca","1","5","48","49","","",""
"3689","key"," "," ","16.66636199095024","500","250","psychophysics","37","377156","0.0-37.0","6106e56a30bffe5aa77176ee","6213d22a43b6641d8941d8ca","","","","","","",""
"5454","key"," "," ","16.666877300613503","500","250","psychophysics","38","382615","0.0-38.0","6106e56a30bffe5aa77176ee","6213d22a43b6641d8941d8ca","","","","","","",""
"2045","key"," "," ","16.670357723577457","500","250","psychophysics","39","384671","0.0-39.0","6106e56a30bffe5aa77176ee","6213d22a43b6641d8941d8ca","","","","","","",""
"11134","key"," "," ","16.66651874062964","500","250","psychophysics","40","395808","0.0-40.0","6106e56a30bffe5aa77176ee","6213d22a43b6641d8941d8ca","2","0","41","45","","",""
"3149","key"," "," ","16.66682978723405","500","250","psychophysics","41","398967","0.0-41.0","6106e56a30bffe5aa77176ee","6213d22a43b6641d8941d8ca","","","","","","",""
"5550","key"," "," ","16.666909909909926","500","250","psychophysics","42","404528","0.0-42.0","6106e56a30bffe5aa77176ee","6213d22a43b6641d8941d8ca","2","0","26","32","","",""
"2235","key"," "," ","16.66618045112792","500","250","psychophysics","43","406767","0.0-43.0","6106e56a30bffe5aa77176ee","6213d22a43b6641d8941d8ca","","","","","","",""
"5766","key"," "," ","16.66709826589593","500","250","psychophysics","44","412543","0.0-44.0","6106e56a30bffe5aa77176ee","6213d22a43b6641d8941d8ca","2","0","51","66","","",""
"2011","key"," "," ","16.667899999999886","500","250","psychophysics","45","414559","0.0-45.0","6106e56a30bffe5aa77176ee","6213d22a43b6641d8941d8ca","","","","","","",""
"7052","key"," "," ","16.666760663507024","500","250","psychophysics","46","421615","0.0-46.0","6106e56a30bffe5aa77176ee","6213d22a43b6641d8941d8ca","2","0","35","38","","",""
"1991","key"," "," ","16.666722689075847","500","250","psychophysics","47","423615","0.0-47.0","6106e56a30bffe5aa77176ee","6213d22a43b6641d8941d8ca","","","","","","",""
"7814","key"," "," ","16.66731769722804","500","250","psychophysics","48","431439","0.0-48.0","6106e56a30bffe5aa77176ee","6213d22a43b6641d8941d8ca","2","0","48","60","","",""
"1500","key"," "," ","16.66784269662948","500","250","psychophysics","49","432944","0.0-49.0","6106e56a30bffe5aa77176ee","6213d22a43b6641d8941d8ca","","","","","","",""
"3583","key"," "," ","16.668177570093686","500","250","psychophysics","50","436535","0.0-50.0","6106e56a30bffe5aa77176ee","6213d22a43b6641d8941d8ca","2","0","43","47","","",""
"1532","key"," "," ","16.6727065217394","500","250","psychophysics","51","438074","0.0-51.0","6106e56a30bffe5aa77176ee","6213d22a43b6641d8941d8ca","","","","","","",""
"7381","key"," "," ","16.66695927601817","500","250","psychophysics","52","445463","0.0-52.0","6106e56a30bffe5aa77176ee","6213d22a43b6641d8941d8ca","2","0","57","63","","",""
"1425","key"," "," ","16.66767058823504","500","250","psychophysics","53","446895","0.0-53.0","6106e56a30bffe5aa77176ee","6213d22a43b6641d8941d8ca","","","","","","",""
"5460","key"," "," ","16.666385321100904","500","250","psychophysics","54","452359","0.0-54.0","6106e56a30bffe5aa77176ee","6213d22a43b6641d8941d8ca","2","0","42","48","","",""
"1219","key"," "," ","16.662916666667215","500","250","psychophysics","55","453583","0.0-55.0","6106e56a30bffe5aa77176ee","6213d22a43b6641d8941d8ca","","","","","","",""
"8808","key"," "," ","16.667316287878776","500","250","psychophysics","56","462400","0.0-56.0","6106e56a30bffe5aa77176ee","6213d22a43b6641d8941d8ca","2","0","59","66","","",""
"1438","key"," "," ","16.668406976744272","500","250","psychophysics","57","463847","0.0-57.0","6106e56a30bffe5aa77176ee","6213d22a43b6641d8941d8ca","","","","","","",""
"3902","key"," "," ","16.668346153846077","500","250","psychophysics","58","467759","0.0-58.0","6106e56a30bffe5aa77176ee","6213d22a43b6641d8941d8ca","2","0","40","49","","",""
"1370","key"," "," ","16.665987654320354","500","250","psychophysics","59","469135","0.0-59.0","6106e56a30bffe5aa77176ee","6213d22a43b6641d8941d8ca","","","","","","",""
"4889","key"," "," ","16.667993174061465","500","250","psychophysics","60","474031","0.0-60.0","6106e56a30bffe5aa77176ee","6213d22a43b6641d8941d8ca","2","0","23","28","","",""
"1421","key"," "," ","16.67096470588243","500","250","psychophysics","61","475456","0.0-61.0","6106e56a30bffe5aa77176ee","6213d22a43b6641d8941d8ca","","","","","","",""
"3299","key"," "," ","16.667507614213253","500","250","psychophysics","62","478759","0.0-62.0","6106e56a30bffe5aa77176ee","6213d22a43b6641d8941d8ca","2","0","29","42","","",""
"1898","key"," "," ","16.66754867256654","500","250","psychophysics","63","480663","0.0-63.0","6106e56a30bffe5aa77176ee","6213d22a43b6641d8941d8ca","","","","","","",""
"2307","key"," "," ","16.67001449275362","500","250","psychophysics","64","482976","0.0-64.0","6106e56a30bffe5aa77176ee","6213d22a43b6641d8941d8ca","2","0","25","31","","",""
"1249","key"," "," ","16.667094594595255","500","250","psychophysics","65","484231","0.0-65.0","6106e56a30bffe5aa77176ee","6213d22a43b6641d8941d8ca","","","","","","",""
"2731","key"," "," ","16.771472392638035","500","250","psychophysics","66","486975","0.0-66.0","6106e56a30bffe5aa77176ee","6213d22a43b6641d8941d8ca","2","0","34","38","","",""
"1148","key"," "," ","16.662705882353134","500","250","psychophysics","67","488127","0.0-67.0","6106e56a30bffe5aa77176ee","6213d22a43b6641d8941d8ca","","","","","","",""
"2876","key"," "," ","16.667267441860574","500","250","psychophysics","68","491008","0.0-68.0","6106e56a30bffe5aa77176ee","6213d22a43b6641d8941d8ca","2","0","24","29","","",""
"1092","key"," "," ","16.666446153846426","500","250","psychophysics","69","492106","0.0-69.0","6106e56a30bffe5aa77176ee","6213d22a43b6641d8941d8ca","","","","","","",""
"1535","key"," "," ","16.669263736263638","500","250","psychophysics","70","493647","0.0-70.0","6106e56a30bffe5aa77176ee","6213d22a43b6641d8941d8ca","","","","","","",""
"3004","key"," "," ","16.666599999999743","500","250","psychophysics","71","496656","0.0-71.0","6106e56a30bffe5aa77176ee","6213d22a43b6641d8941d8ca","","","","","","",""
"11361","key"," "," ","16.666960352422926","500","250","psychophysics","72","508023","0.0-72.0","6106e56a30bffe5aa77176ee","6213d22a43b6641d8941d8ca","3","5","41","43","","",""
"3278","key"," "," ","16.665739795918594","500","250","psychophysics","73","511308","0.0-73.0","6106e56a30bffe5aa77176ee","6213d22a43b6641d8941d8ca","3","0","27","36","","",""
"18406","key"," "," ","16.696902903811274","500","250","psychophysics","74","529722","0.0-74.0","6106e56a30bffe5aa77176ee","6213d22a43b6641d8941d8ca","3","5","52","56","","",""
"2979","key"," "," ","16.666730337078405","500","250","psychophysics","75","532707","0.0-75.0","6106e56a30bffe5aa77176ee","6213d22a43b6641d8941d8ca","3","0","23","33","","",""
"7143","key"," "," ","16.66724299065438","500","250","psychophysics","76","539856","0.0-76.0","6106e56a30bffe5aa77176ee","6213d22a43b6641d8941d8ca","3","5","55","65","","",""
"10415","key"," "," ","16.666471153846008","500","250","psychophysics","77","550279","0.0-77.0","6106e56a30bffe5aa77176ee","6213d22a43b6641d8941d8ca","3","0","51","65","","",""
"5304","key"," "," ","16.666805031446522","500","250","psychophysics","78","555589","0.0-78.0","6106e56a30bffe5aa77176ee","6213d22a43b6641d8941d8ca","3","5","33","33","","",""
"4284","key"," "," ","16.666933593749945","500","250","psychophysics","79","559879","0.0-79.0","6106e56a30bffe5aa77176ee","6213d22a43b6641d8941d8ca","3","0","37","40","","",""
"8711","key"," "," ","16.6665632183908","500","250","psychophysics","80","568598","0.0-80.0","6106e56a30bffe5aa77176ee","6213d22a43b6641d8941d8ca","3","5","44","53","","",""
"9421","key"," "," ","16.667284955752322","500","250","psychophysics","81","578023","0.0-81.0","6106e56a30bffe5aa77176ee","6213d22a43b6641d8941d8ca","3","0","59","73","","",""
"3112","key"," "," ","16.66495698924747","500","250","psychophysics","82","581140","0.0-82.0","6106e56a30bffe5aa77176ee","6213d22a43b6641d8941d8ca","3","5","25","28","","",""
"4932","key"," "," ","16.666406779660907","500","250","psychophysics","83","586079","0.0-83.0","6106e56a30bffe5aa77176ee","6213d22a43b6641d8941d8ca","3","0","28","37","","",""
"5349","key"," "," ","16.666990624999745","500","250","psychophysics","84","591431","0.0-84.0","6106e56a30bffe5aa77176ee","6213d22a43b6641d8941d8ca","3","5","44","50","","",""
"3016","key"," "," ","16.668519337016455","500","250","psychophysics","85","594456","0.0-85.0","6106e56a30bffe5aa77176ee","6213d22a43b6641d8941d8ca","3","0","22","37","","",""
"5632","key"," "," ","16.66634124629089","500","250","psychophysics","86","600095","0.0-86.0","6106e56a30bffe5aa77176ee","6213d22a43b6641d8941d8ca","3","5","51","53","","",""
"2949","key"," "," ","16.666829545454345","500","250","psychophysics","87","603047","0.0-87.0","6106e56a30bffe5aa77176ee","6213d22a43b6641d8941d8ca","3","0","30","38","","",""
"5394","key"," "," ","16.66764396284822","500","250","psychophysics","88","608447","0.0-88.0","6106e56a30bffe5aa77176ee","6213d22a43b6641d8941d8ca","3","5","37","40","","",""
"4027","key"," "," ","16.66704979253096","500","250","psychophysics","89","612480","0.0-89.0","6106e56a30bffe5aa77176ee","6213d22a43b6641d8941d8ca","3","0","55","63","","",""
"5769","key"," "," ","16.667014450867086","500","250","psychophysics","90","618255","0.0-90.0","6106e56a30bffe5aa77176ee","6213d22a43b6641d8941d8ca","3","5","45","51","","",""
"7414","key"," "," ","16.66703828828837","500","250","psychophysics","91","625675","0.0-91.0","6106e56a30bffe5aa77176ee","6213d22a43b6641d8941d8ca","3","0","56","62","","",""
"1608","key"," "," ","16.671395833333616","500","250","psychophysics","92","627289","0.0-92.0","6106e56a30bffe5aa77176ee","6213d22a43b6641d8941d8ca","","","","","","",""
"33735","","","v","","","","html-keyboard-response","93","661027","0.0-93.0","6106e56a30bffe5aa77176ee","6213d22a43b6641d8941d8ca","","","","","<p> In this part of the experiment, we are going present digits 1, 2, 3, 4, 6, 7, 8, and 9.  Notice that 5 is missing.  Your job is to say whether the presented digit is less than or greater than 5.  For example, 3 is less than 5 and 7 is greater than 5.  If the digit is less than 5, press the v key; if it is greater than 5, press the n key. We are going to do 200 of these in total, but only 50 righ now. They go real fast.</p>  <br><br>  Ready? (press v or n)","",""
"2857","key","v","v","16.625179190751883","500","250","psychophysics","94","663906","0.0-94.0","6106e56a30bffe5aa77176ee","6213d22a43b6641d8941d8ca","4","","","","","1","2"
"null","","","null","","","","html-keyboard-response","95","664410","0.0-95.0","6106e56a30bffe5aa77176ee","6213d22a43b6641d8941d8ca","","","","","<p style=""color:darkgreen;font-size:24px;"">Correct :)</p>","",""
"2564","key","v","v","16.665967532467587","500","250","psychophysics","96","666983","0.0-96.0","6106e56a30bffe5aa77176ee","6213d22a43b6641d8941d8ca","4","","","","","1","1"
"null","","","null","","","","html-keyboard-response","97","667485","0.0-97.0","6106e56a30bffe5aa77176ee","6213d22a43b6641d8941d8ca","","","","","<p style=""color:darkgreen;font-size:24px;"">Correct :)</p>","",""
"2513","key","n","n","16.66758940397339","500","250","psychophysics","98","670007","0.0-98.0","6106e56a30bffe5aa77176ee","6213d22a43b6641d8941d8ca","4","","","","","1","9"
"null","","","null","","","","html-keyboard-response","99","670510","0.0-99.0","6106e56a30bffe5aa77176ee","6213d22a43b6641d8941d8ca","","","","","<p style=""color:darkgreen;font-size:24px;"">Correct :)</p>","",""
"2605","key","v","v","16.66622292993599","500","250","psychophysics","100","673125","0.0-100.0","6106e56a30bffe5aa77176ee","6213d22a43b6641d8941d8ca","4","","","","","1","3"
"null","","","null","","","","html-keyboard-response","101","673629","0.0-101.0","6106e56a30bffe5aa77176ee","6213d22a43b6641d8941d8ca","","","","","<p style=""color:darkgreen;font-size:24px;"">Correct :)</p>","",""
"2585","key","n","n","16.66715384615385","500","250","psychophysics","102","676224","0.0-102.0","6106e56a30bffe5aa77176ee","6213d22a43b6641d8941d8ca","4","","","","","1","8"
"null","","","null","","","","html-keyboard-response","103","676726","0.0-103.0","6106e56a30bffe5aa77176ee","6213d22a43b6641d8941d8ca","","","","","<p style=""color:darkgreen;font-size:24px;"">Correct :)</p>","",""
"2544","key","v","v","16.667477124182696","500","250","psychophysics","104","679280","0.0-104.0","6106e56a30bffe5aa77176ee","6213d22a43b6641d8941d8ca","4","","","","","1","4"
"null","","","null","","","","html-keyboard-response","105","679792","0.0-105.0","6106e56a30bffe5aa77176ee","6213d22a43b6641d8941d8ca","","","","","<p style=""color:darkgreen;font-size:24px;"">Correct :)</p>","",""
"2565","key","n","n","16.66710389610425","500","250","psychophysics","106","682366","0.0-106.0","6106e56a30bffe5aa77176ee","6213d22a43b6641d8941d8ca","4","","","","","1","9"
"null","","","null","","","","html-keyboard-response","107","682869","0.0-107.0","6106e56a30bffe5aa77176ee","6213d22a43b6641d8941d8ca","","","","","<p style=""color:darkgreen;font-size:24px;"">Correct :)</p>","",""
"2608","key","v","v","16.667439490445492","500","250","psychophysics","108","685488","0.0-108.0","6106e56a30bffe5aa77176ee","6213d22a43b6641d8941d8ca","4","","","","","1","6"
"null","","","null","","","","html-keyboard-response","109","685989","0.0-109.0","6106e56a30bffe5aa77176ee","6213d22a43b6641d8941d8ca","","","","","<p style=""color:red;font-size:24px;"">Error :(</p>","",""
"453","key","n","n","16.670037037037588","500","250","psychophysics","110","686446","0.0-110.0","6106e56a30bffe5aa77176ee","6213d22a43b6641d8941d8ca","4","","","","","1","4"
"null","","","null","","","","html-keyboard-response","111","686948","0.0-111.0","6106e56a30bffe5aa77176ee","6213d22a43b6641d8941d8ca","","","","","<p style=""color:red;font-size:24px;"">Error :(</p>","",""
"2766","key","n","n","16.667650602410088","500","250","psychophysics","112","689719","0.0-112.0","6106e56a30bffe5aa77176ee","6213d22a43b6641d8941d8ca","4","","","","","1","8"
"null","","","null","","","","html-keyboard-response","113","690220","0.0-113.0","6106e56a30bffe5aa77176ee","6213d22a43b6641d8941d8ca","","","","","<p style=""color:darkgreen;font-size:24px;"">Correct :)</p>","",""
"2750","key","n","n","16.66750303030254","500","250","psychophysics","114","692974","0.0-114.0","6106e56a30bffe5aa77176ee","6213d22a43b6641d8941d8ca","4","","","","","1","7"
"null","","","null","","","","html-keyboard-response","115","693476","0.0-115.0","6106e56a30bffe5aa77176ee","6213d22a43b6641d8941d8ca","","","","","<p style=""color:darkgreen;font-size:24px;"">Correct :)</p>","",""
"2671","key","v","v","16.6677125000002","500","250","psychophysics","116","696151","0.0-116.0","6106e56a30bffe5aa77176ee","6213d22a43b6641d8941d8ca","4","","","","","1","2"
"null","","","null","","","","html-keyboard-response","117","696653","0.0-117.0","6106e56a30bffe5aa77176ee","6213d22a43b6641d8941d8ca","","","","","<p style=""color:darkgreen;font-size:24px;"">Correct :)</p>","",""
"2670","key","v","v","16.670643749999726","500","250","psychophysics","118","699327","0.0-118.0","6106e56a30bffe5aa77176ee","6213d22a43b6641d8941d8ca","4","","","","","1","4"
"null","","","null","","","","html-keyboard-response","119","699828","0.0-119.0","6106e56a30bffe5aa77176ee","6213d22a43b6641d8941d8ca","","","","","<p style=""color:darkgreen;font-size:24px;"">Correct :)</p>","",""
"2634","key","v","v","16.669251572326814","500","250","psychophysics","120","702473","0.0-120.0","6106e56a30bffe5aa77176ee","6213d22a43b6641d8941d8ca","4","","","","","1","2"
"null","","","null","","","","html-keyboard-response","121","702976","0.0-121.0","6106e56a30bffe5aa77176ee","6213d22a43b6641d8941d8ca","","","","","<p style=""color:darkgreen;font-size:24px;"">Correct :)</p>","",""
"2749","key","v","v","16.666709090908988","500","250","psychophysics","122","705736","0.0-122.0","6106e56a30bffe5aa77176ee","6213d22a43b6641d8941d8ca","4","","","","","1","2"
"null","","","null","","","","html-keyboard-response","123","706239","0.0-123.0","6106e56a30bffe5aa77176ee","6213d22a43b6641d8941d8ca","","","","","<p style=""color:darkgreen;font-size:24px;"">Correct :)</p>","",""
"2639","key","v","v","16.773461538461","500","250","psychophysics","124","708879","0.0-124.0","6106e56a30bffe5aa77176ee","6213d22a43b6641d8941d8ca","4","","","","","1","3"
"null","","","null","","","","html-keyboard-response","125","709381","0.0-125.0","6106e56a30bffe5aa77176ee","6213d22a43b6641d8941d8ca","","","","","<p style=""color:darkgreen;font-size:24px;"">Correct :)</p>","",""
"3649","key","n","n","16.66652272727277","500","250","psychophysics","126","713039","0.0-126.0","6106e56a30bffe5aa77176ee","6213d22a43b6641d8941d8ca","4","","","","","1","6"
"null","","","null","","","","html-keyboard-response","127","713556","0.0-127.0","6106e56a30bffe5aa77176ee","6213d22a43b6641d8941d8ca","","","","","<p style=""color:darkgreen;font-size:24px;"">Correct :)</p>","",""
"2887","key","n","n","16.66667630057782","500","250","psychophysics","128","716447","0.0-128.0","6106e56a30bffe5aa77176ee","6213d22a43b6641d8941d8ca","4","","","","","1","9"
"null","","","null","","","","html-keyboard-response","129","716950","0.0-129.0","6106e56a30bffe5aa77176ee","6213d22a43b6641d8941d8ca","","","","","<p style=""color:darkgreen;font-size:24px;"">Correct :)</p>","",""
"2665","key","v","v","16.772518750000017","500","250","psychophysics","130","719624","0.0-130.0","6106e56a30bffe5aa77176ee","6213d22a43b6641d8941d8ca","4","","","","","1","2"
"null","","","null","","","","html-keyboard-response","131","720126","0.0-131.0","6106e56a30bffe5aa77176ee","6213d22a43b6641d8941d8ca","","","","","<p style=""color:darkgreen;font-size:24px;"">Correct :)</p>","",""
"2934","key","n","n","16.666864406779844","500","250","psychophysics","132","723071","0.0-132.0","6106e56a30bffe5aa77176ee","6213d22a43b6641d8941d8ca","4","","","","","1","6"
"null","","","null","","","","html-keyboard-response","133","723573","0.0-133.0","6106e56a30bffe5aa77176ee","6213d22a43b6641d8941d8ca","","","","","<p style=""color:darkgreen;font-size:24px;"">Correct :)</p>","",""
"2625","key","n","n","16.669993670886424","500","250","psychophysics","134","726207","0.0-134.0","6106e56a30bffe5aa77176ee","6213d22a43b6641d8941d8ca","4","","","","","1","7"
"null","","","null","","","","html-keyboard-response","135","726710","0.0-135.0","6106e56a30bffe5aa77176ee","6213d22a43b6641d8941d8ca","","","","","<p style=""color:darkgreen;font-size:24px;"">Correct :)</p>","",""
"2520","key","v","v","16.66665131578951","500","250","psychophysics","136","729241","0.0-136.0","6106e56a30bffe5aa77176ee","6213d22a43b6641d8941d8ca","4","","","","","1","1"
"null","","","null","","","","html-keyboard-response","137","729744","0.0-137.0","6106e56a30bffe5aa77176ee","6213d22a43b6641d8941d8ca","","","","","<p style=""color:darkgreen;font-size:24px;"">Correct :)</p>","",""
"2727","key","n","n","16.667396341463288","500","250","psychophysics","138","732481","0.0-138.0","6106e56a30bffe5aa77176ee","6213d22a43b6641d8941d8ca","4","","","","","1","8"
"null","","","null","","","","html-keyboard-response","139","732983","0.0-139.0","6106e56a30bffe5aa77176ee","6213d22a43b6641d8941d8ca","","","","","<p style=""color:darkgreen;font-size:24px;"">Correct :)</p>","",""
"2625","key","v","v","16.7727770700637","500","250","psychophysics","140","735615","0.0-140.0","6106e56a30bffe5aa77176ee","6213d22a43b6641d8941d8ca","4","","","","","1","1"
"null","","","null","","","","html-keyboard-response","141","736118","0.0-141.0","6106e56a30bffe5aa77176ee","6213d22a43b6641d8941d8ca","","","","","<p style=""color:darkgreen;font-size:24px;"">Correct :)</p>","",""
"2729","key","v","v","16.6702560975611","500","250","psychophysics","142","738855","0.0-142.0","6106e56a30bffe5aa77176ee","6213d22a43b6641d8941d8ca","4","","","","","1","4"
"null","","","null","","","","html-keyboard-response","143","739358","0.0-143.0","6106e56a30bffe5aa77176ee","6213d22a43b6641d8941d8ca","","","","","<p style=""color:darkgreen;font-size:24px;"">Correct :)</p>","",""
"2831","key","n","n","16.66729999999995","500","250","psychophysics","144","742198","0.0-144.0","6106e56a30bffe5aa77176ee","6213d22a43b6641d8941d8ca","4","","","","","1","8"
"null","","","null","","","","html-keyboard-response","145","742700","0.0-145.0","6106e56a30bffe5aa77176ee","6213d22a43b6641d8941d8ca","","","","","<p style=""color:darkgreen;font-size:24px;"">Correct :)</p>","",""
"2622","key","n","n","16.774643312101578","500","250","psychophysics","146","745329","0.0-146.0","6106e56a30bffe5aa77176ee","6213d22a43b6641d8941d8ca","4","","","","","1","9"
"null","","","null","","","","html-keyboard-response","147","745835","0.0-147.0","6106e56a30bffe5aa77176ee","6213d22a43b6641d8941d8ca","","","","","<p style=""color:darkgreen;font-size:24px;"">Correct :)</p>","",""
"2570","key","v","v","16.669318181818635","500","250","psychophysics","148","748415","0.0-148.0","6106e56a30bffe5aa77176ee","6213d22a43b6641d8941d8ca","4","","","","","1","2"
"null","","","null","","","","html-keyboard-response","149","748917","0.0-149.0","6106e56a30bffe5aa77176ee","6213d22a43b6641d8941d8ca","","","","","<p style=""color:darkgreen;font-size:24px;"">Correct :)</p>","",""
"2636","key","n","n","16.666375796178617","500","250","psychophysics","150","751558","0.0-150.0","6106e56a30bffe5aa77176ee","6213d22a43b6641d8941d8ca","4","","","","","1","9"
"null","","","null","","","","html-keyboard-response","151","752060","0.0-151.0","6106e56a30bffe5aa77176ee","6213d22a43b6641d8941d8ca","","","","","<p style=""color:darkgreen;font-size:24px;"">Correct :)</p>","",""
"2617","key","n","n","16.67148101265775","500","250","psychophysics","152","754688","0.0-152.0","6106e56a30bffe5aa77176ee","6213d22a43b6641d8941d8ca","4","","","","","1","7"
"null","","","null","","","","html-keyboard-response","153","755189","0.0-153.0","6106e56a30bffe5aa77176ee","6213d22a43b6641d8941d8ca","","","","","<p style=""color:darkgreen;font-size:24px;"">Correct :)</p>","",""
"2654","key","v","v","16.665484276729778","500","250","psychophysics","154","757847","0.0-154.0","6106e56a30bffe5aa77176ee","6213d22a43b6641d8941d8ca","4","","","","","1","6"
"null","","","null","","","","html-keyboard-response","155","758348","0.0-155.0","6106e56a30bffe5aa77176ee","6213d22a43b6641d8941d8ca","","","","","<p style=""color:red;font-size:24px;"">Error :(</p>","",""
"2662","key","v","v","16.665068749999772","500","250","psychophysics","156","761014","0.0-156.0","6106e56a30bffe5aa77176ee","6213d22a43b6641d8941d8ca","4","","","","","1","3"
"null","","","null","","","","html-keyboard-response","157","761516","0.0-157.0","6106e56a30bffe5aa77176ee","6213d22a43b6641d8941d8ca","","","","","<p style=""color:darkgreen;font-size:24px;"">Correct :)</p>","",""
"2678","key","v","v","16.667770186335034","500","250","psychophysics","158","764198","0.0-158.0","6106e56a30bffe5aa77176ee","6213d22a43b6641d8941d8ca","4","","","","","1","3"
"null","","","null","","","","html-keyboard-response","159","764700","0.0-159.0","6106e56a30bffe5aa77176ee","6213d22a43b6641d8941d8ca","","","","","<p style=""color:darkgreen;font-size:24px;"">Correct :)</p>","",""
"2552","key","n","n","16.779346405228697","500","250","psychophysics","160","767256","0.0-160.0","6106e56a30bffe5aa77176ee","6213d22a43b6641d8941d8ca","4","","","","","1","9"
"null","","","null","","","","html-keyboard-response","161","767760","0.0-161.0","6106e56a30bffe5aa77176ee","6213d22a43b6641d8941d8ca","","","","","<p style=""color:darkgreen;font-size:24px;"">Correct :)</p>","",""
"2753","key","n","n","16.66709638554224","500","250","psychophysics","162","770523","0.0-162.0","6106e56a30bffe5aa77176ee","6213d22a43b6641d8941d8ca","4","","","","","1","9"
"null","","","null","","","","html-keyboard-response","163","771026","0.0-163.0","6106e56a30bffe5aa77176ee","6213d22a43b6641d8941d8ca","","","","","<p style=""color:darkgreen;font-size:24px;"">Correct :)</p>","",""
"2707","key","v","v","16.66565030674876","500","250","psychophysics","164","773742","0.0-164.0","6106e56a30bffe5aa77176ee","6213d22a43b6641d8941d8ca","4","","","","","1","4"
"null","","","null","","","","html-keyboard-response","165","774245","0.0-165.0","6106e56a30bffe5aa77176ee","6213d22a43b6641d8941d8ca","","","","","<p style=""color:darkgreen;font-size:24px;"">Correct :)</p>","",""
"2794","key","v","v","16.669595238095056","500","250","psychophysics","166","777047","0.0-166.0","6106e56a30bffe5aa77176ee","6213d22a43b6641d8941d8ca","4","","","","","1","3"
"null","","","null","","","","html-keyboard-response","167","777550","0.0-167.0","6106e56a30bffe5aa77176ee","6213d22a43b6641d8941d8ca","","","","","<p style=""color:darkgreen;font-size:24px;"">Correct :)</p>","",""
"2740","key","n","n","16.76852439024355","500","250","psychophysics","168","780295","0.0-168.0","6106e56a30bffe5aa77176ee","6213d22a43b6641d8941d8ca","4","","","","","1","9"
"null","","","null","","","","html-keyboard-response","169","780797","0.0-169.0","6106e56a30bffe5aa77176ee","6213d22a43b6641d8941d8ca","","","","","<p style=""color:darkgreen;font-size:24px;"">Correct :)</p>","",""
"2836","key","n","n","16.66767251462","500","250","psychophysics","170","783642","0.0-170.0","6106e56a30bffe5aa77176ee","6213d22a43b6641d8941d8ca","4","","","","","1","7"
"null","","","null","","","","html-keyboard-response","171","784145","0.0-171.0","6106e56a30bffe5aa77176ee","6213d22a43b6641d8941d8ca","","","","","<p style=""color:darkgreen;font-size:24px;"">Correct :)</p>","",""
"2714","key","n","n","16.665159509203004","500","250","psychophysics","172","786864","0.0-172.0","6106e56a30bffe5aa77176ee","6213d22a43b6641d8941d8ca","4","","","","","1","6"
"null","","","null","","","","html-keyboard-response","173","787366","0.0-173.0","6106e56a30bffe5aa77176ee","6213d22a43b6641d8941d8ca","","","","","<p style=""color:darkgreen;font-size:24px;"">Correct :)</p>","",""
"2561","key","n","n","16.77622222222214","500","250","psychophysics","174","789936","0.0-174.0","6106e56a30bffe5aa77176ee","6213d22a43b6641d8941d8ca","4","","","","","1","8"
"null","","","null","","","","html-keyboard-response","175","790439","0.0-175.0","6106e56a30bffe5aa77176ee","6213d22a43b6641d8941d8ca","","","","","<p style=""color:darkgreen;font-size:24px;"">Correct :)</p>","",""
"2599","key","n","n","16.66794230769245","500","250","psychophysics","176","793047","0.0-176.0","6106e56a30bffe5aa77176ee","6213d22a43b6641d8941d8ca","4","","","","","1","7"
"null","","","null","","","","html-keyboard-response","177","793549","0.0-177.0","6106e56a30bffe5aa77176ee","6213d22a43b6641d8941d8ca","","","","","<p style=""color:darkgreen;font-size:24px;"">Correct :)</p>","",""
"2681","key","n","n","16.667487654321178","500","250","psychophysics","178","796240","0.0-178.0","6106e56a30bffe5aa77176ee","6213d22a43b6641d8941d8ca","4","","","","","1","8"
"null","","","null","","","","html-keyboard-response","179","796743","0.0-179.0","6106e56a30bffe5aa77176ee","6213d22a43b6641d8941d8ca","","","","","<p style=""color:darkgreen;font-size:24px;"">Correct :)</p>","",""
"2558","key","n","n","16.668032467532328","500","250","psychophysics","180","799311","0.0-180.0","6106e56a30bffe5aa77176ee","6213d22a43b6641d8941d8ca","4","","","","","1","8"
"null","","","null","","","","html-keyboard-response","181","799815","0.0-181.0","6106e56a30bffe5aa77176ee","6213d22a43b6641d8941d8ca","","","","","<p style=""color:darkgreen;font-size:24px;"">Correct :)</p>","",""
"2610","key","v","v","16.665337579617734","500","250","psychophysics","182","802431","0.0-182.0","6106e56a30bffe5aa77176ee","6213d22a43b6641d8941d8ca","4","","","","","1","1"
"null","","","null","","","","html-keyboard-response","183","802934","0.0-183.0","6106e56a30bffe5aa77176ee","6213d22a43b6641d8941d8ca","","","","","<p style=""color:darkgreen;font-size:24px;"">Correct :)</p>","",""
"2740","key","n","n","16.665239263803734","500","250","psychophysics","184","805679","0.0-184.0","6106e56a30bffe5aa77176ee","6213d22a43b6641d8941d8ca","4","","","","","1","4"
"null","","","null","","","","html-keyboard-response","185","806180","0.0-185.0","6106e56a30bffe5aa77176ee","6213d22a43b6641d8941d8ca","","","","","<p style=""color:red;font-size:24px;"">Error :(</p>","",""
"2804","key","v","v","16.670005917159934","500","250","psychophysics","186","808994","0.0-186.0","6106e56a30bffe5aa77176ee","6213d22a43b6641d8941d8ca","4","","","","","1","4"
"null","","","null","","","","html-keyboard-response","187","809509","0.0-187.0","6106e56a30bffe5aa77176ee","6213d22a43b6641d8941d8ca","","","","","<p style=""color:darkgreen;font-size:24px;"">Correct :)</p>","",""
"2573","key","n","n","16.67040645161328","500","250","psychophysics","188","812091","0.0-188.0","6106e56a30bffe5aa77176ee","6213d22a43b6641d8941d8ca","4","","","","","1","9"
"null","","","null","","","","html-keyboard-response","189","812595","0.0-189.0","6106e56a30bffe5aa77176ee","6213d22a43b6641d8941d8ca","","","","","<p style=""color:darkgreen;font-size:24px;"">Correct :)</p>","",""
"2764","key","n","n","16.668855421686914","500","250","psychophysics","190","815368","0.0-190.0","6106e56a30bffe5aa77176ee","6213d22a43b6641d8941d8ca","4","","","","","1","7"
"null","","","null","","","","html-keyboard-response","191","815872","0.0-191.0","6106e56a30bffe5aa77176ee","6213d22a43b6641d8941d8ca","","","","","<p style=""color:darkgreen;font-size:24px;"">Correct :)</p>","",""
"2904","key","v","v","16.669234285714502","500","250","psychophysics","192","818799","0.0-192.0","6106e56a30bffe5aa77176ee","6213d22a43b6641d8941d8ca","4","","","","","1","4"
"null","","","null","","","","html-keyboard-response","193","819305","0.0-193.0","6106e56a30bffe5aa77176ee","6213d22a43b6641d8941d8ca","","","","","<p style=""color:darkgreen;font-size:24px;"">Correct :)</p>","",""
"11757","","","n","","","","html-keyboard-response","194","831064","0.0-194.0","6106e56a30bffe5aa77176ee","6213d22a43b6641d8941d8ca","","","","","<p> Ok, now we are going present the same digits as before.  Your job is to say whether the digit is even or odd  If the digit is odd, press to v key; if it is even, press the n key. We are going to do 50 of these.  </p>  <br><br>  Ready? (press v or n)","",""
"2698","key","n","n","16.585337423313085","500","250","psychophysics","195","833775","0.0-195.0","6106e56a30bffe5aa77176ee","6213d22a43b6641d8941d8ca","5","","","","","0","4"
"null","","","null","","","","html-keyboard-response","196","834278","0.0-196.0","6106e56a30bffe5aa77176ee","6213d22a43b6641d8941d8ca","","","","","<p style=""color:darkgreen;font-size:24px;"">Correct :)</p>","",""
"2695","key","n","n","16.669629629629515","500","250","psychophysics","197","836983","0.0-197.0","6106e56a30bffe5aa77176ee","6213d22a43b6641d8941d8ca","5","","","","","0","8"
"null","","","null","","","","html-keyboard-response","198","837485","0.0-198.0","6106e56a30bffe5aa77176ee","6213d22a43b6641d8941d8ca","","","","","<p style=""color:darkgreen;font-size:24px;"">Correct :)</p>","",""
"2681","key","v","v","16.668391304348035","500","250","psychophysics","199","840176","0.0-199.0","6106e56a30bffe5aa77176ee","6213d22a43b6641d8941d8ca","5","","","","","0","7"
"null","","","null","","","","html-keyboard-response","200","840678","0.0-200.0","6106e56a30bffe5aa77176ee","6213d22a43b6641d8941d8ca","","","","","<p style=""color:darkgreen;font-size:24px;"">Correct :)</p>","",""
"2592","key","v","v","16.668282051281913","500","250","psychophysics","201","843280","0.0-201.0","6106e56a30bffe5aa77176ee","6213d22a43b6641d8941d8ca","5","","","","","0","1"
"null","","","null","","","","html-keyboard-response","202","843788","0.0-202.0","6106e56a30bffe5aa77176ee","6213d22a43b6641d8941d8ca","","","","","<p style=""color:darkgreen;font-size:24px;"">Correct :)</p>","",""
"2867","key","v","v","16.66944186046495","500","250","psychophysics","203","846664","0.0-203.0","6106e56a30bffe5aa77176ee","6213d22a43b6641d8941d8ca","5","","","","","0","3"
"null","","","null","","","","html-keyboard-response","204","847166","0.0-204.0","6106e56a30bffe5aa77176ee","6213d22a43b6641d8941d8ca","","","","","<p style=""color:darkgreen;font-size:24px;"">Correct :)</p>","",""
"2640","key","n","n","16.670301886793055","500","250","psychophysics","205","849816","0.0-205.0","6106e56a30bffe5aa77176ee","6213d22a43b6641d8941d8ca","5","","","","","0","4"
"null","","","null","","","","html-keyboard-response","206","850319","0.0-206.0","6106e56a30bffe5aa77176ee","6213d22a43b6641d8941d8ca","","","","","<p style=""color:darkgreen;font-size:24px;"">Correct :)</p>","",""
"2638","key","n","n","16.6650063291139","500","250","psychophysics","207","852968","0.0-207.0","6106e56a30bffe5aa77176ee","6213d22a43b6641d8941d8ca","5","","","","","0","9"
"null","","","null","","","","html-keyboard-response","208","853471","0.0-208.0","6106e56a30bffe5aa77176ee","6213d22a43b6641d8941d8ca","","","","","<p style=""color:red;font-size:24px;"">Error :(</p>","",""
"2771","key","v","v","16.66713253012087","500","250","psychophysics","209","856247","0.0-209.0","6106e56a30bffe5aa77176ee","6213d22a43b6641d8941d8ca","5","","","","","0","3"
"null","","","null","","","","html-keyboard-response","210","856749","0.0-210.0","6106e56a30bffe5aa77176ee","6213d22a43b6641d8941d8ca","","","","","<p style=""color:darkgreen;font-size:24px;"">Correct :)</p>","",""
"2730","key","v","v","16.670096969696917","500","250","psychophysics","211","859488","0.0-211.0","6106e56a30bffe5aa77176ee","6213d22a43b6641d8941d8ca","5","","","","","0","7"
"null","","","null","","","","html-keyboard-response","212","859995","0.0-212.0","6106e56a30bffe5aa77176ee","6213d22a43b6641d8941d8ca","","","","","<p style=""color:darkgreen;font-size:24px;"">Correct :)</p>","",""
"2670","key","n","n","16.668124223602298","500","250","psychophysics","213","862680","0.0-213.0","6106e56a30bffe5aa77176ee","6213d22a43b6641d8941d8ca","5","","","","","0","2"
"null","","","null","","","","html-keyboard-response","214","863194","0.0-214.0","6106e56a30bffe5aa77176ee","6213d22a43b6641d8941d8ca","","","","","<p style=""color:darkgreen;font-size:24px;"">Correct :)</p>","",""
"2940","key","n","n","16.668022598870003","500","250","psychophysics","215","866144","0.0-215.0","6106e56a30bffe5aa77176ee","6213d22a43b6641d8941d8ca","5","","","","","0","6"
"null","","","null","","","","html-keyboard-response","216","866646","0.0-216.0","6106e56a30bffe5aa77176ee","6213d22a43b6641d8941d8ca","","","","","<p style=""color:darkgreen;font-size:24px;"">Correct :)</p>","",""
"2667","key","v","v","16.6659689440995","500","250","psychophysics","217","869322","0.0-217.0","6106e56a30bffe5aa77176ee","6213d22a43b6641d8941d8ca","5","","","","","0","3"
"null","","","null","","","","html-keyboard-response","218","869825","0.0-218.0","6106e56a30bffe5aa77176ee","6213d22a43b6641d8941d8ca","","","","","<p style=""color:darkgreen;font-size:24px;"">Correct :)</p>","",""
"2889","key","n","n","16.666068965516953","500","250","psychophysics","219","872727","0.0-219.0","6106e56a30bffe5aa77176ee","6213d22a43b6641d8941d8ca","5","","","","","0","9"
"null","","","null","","","","html-keyboard-response","220","873230","0.0-220.0","6106e56a30bffe5aa77176ee","6213d22a43b6641d8941d8ca","","","","","<p style=""color:red;font-size:24px;"">Error :(</p>","",""
"2883","key","v","v","16.665281609195183","500","250","psychophysics","221","876122","0.0-221.0","6106e56a30bffe5aa77176ee","6213d22a43b6641d8941d8ca","5","","","","","0","7"
"null","","","null","","","","html-keyboard-response","222","876625","0.0-222.0","6106e56a30bffe5aa77176ee","6213d22a43b6641d8941d8ca","","","","","<p style=""color:darkgreen;font-size:24px;"">Correct :)</p>","",""
"2762","key","v","v","16.665210843373075","500","250","psychophysics","223","879393","0.0-223.0","6106e56a30bffe5aa77176ee","6213d22a43b6641d8941d8ca","5","","","","","0","7"
"null","","","null","","","","html-keyboard-response","224","879896","0.0-224.0","6106e56a30bffe5aa77176ee","6213d22a43b6641d8941d8ca","","","","","<p style=""color:darkgreen;font-size:24px;"">Correct :)</p>","",""
"2758","key","v","v","16.669030120481978","500","250","psychophysics","225","882664","0.0-225.0","6106e56a30bffe5aa77176ee","6213d22a43b6641d8941d8ca","5","","","","","0","7"
"null","","","null","","","","html-keyboard-response","226","883166","0.0-226.0","6106e56a30bffe5aa77176ee","6213d22a43b6641d8941d8ca","","","","","<p style=""color:darkgreen;font-size:24px;"">Correct :)</p>","",""
"2847","key","v","v","16.76723391812823","500","250","psychophysics","227","886024","0.0-227.0","6106e56a30bffe5aa77176ee","6213d22a43b6641d8941d8ca","5","","","","","0","9"
"null","","","null","","","","html-keyboard-response","228","886528","0.0-228.0","6106e56a30bffe5aa77176ee","6213d22a43b6641d8941d8ca","","","","","<p style=""color:darkgreen;font-size:24px;"">Correct :)</p>","",""
"2772","key","v","v","16.66791017964053","500","250","psychophysics","229","889311","0.0-229.0","6106e56a30bffe5aa77176ee","6213d22a43b6641d8941d8ca","5","","","","","0","7"
"null","","","null","","","","html-keyboard-response","230","889814","0.0-230.0","6106e56a30bffe5aa77176ee","6213d22a43b6641d8941d8ca","","","","","<p style=""color:darkgreen;font-size:24px;"">Correct :)</p>","",""
"2601","key","v","v","16.668802547770564","500","250","psychophysics","231","892425","0.0-231.0","6106e56a30bffe5aa77176ee","6213d22a43b6641d8941d8ca","5","","","","","0","7"
"null","","","null","","","","html-keyboard-response","232","892928","0.0-232.0","6106e56a30bffe5aa77176ee","6213d22a43b6641d8941d8ca","","","","","<p style=""color:darkgreen;font-size:24px;"">Correct :)</p>","",""
"2653","key","v","v","16.77026249999981","500","250","psychophysics","233","895608","0.0-233.0","6106e56a30bffe5aa77176ee","6213d22a43b6641d8941d8ca","5","","","","","0","1"
"null","","","null","","","","html-keyboard-response","234","896111","0.0-234.0","6106e56a30bffe5aa77176ee","6213d22a43b6641d8941d8ca","","","","","<p style=""color:darkgreen;font-size:24px;"">Correct :)</p>","",""
"2752","key","n","n","16.666734939758772","500","250","psychophysics","235","898872","0.0-235.0","6106e56a30bffe5aa77176ee","6213d22a43b6641d8941d8ca","5","","","","","0","6"
"null","","","null","","","","html-keyboard-response","236","899375","0.0-236.0","6106e56a30bffe5aa77176ee","6213d22a43b6641d8941d8ca","","","","","<p style=""color:darkgreen;font-size:24px;"">Correct :)</p>","",""
"2592","key","n","n","16.670230769230656","500","250","psychophysics","237","901977","0.0-237.0","6106e56a30bffe5aa77176ee","6213d22a43b6641d8941d8ca","5","","","","","0","6"
"null","","","null","","","","html-keyboard-response","238","902481","0.0-238.0","6106e56a30bffe5aa77176ee","6213d22a43b6641d8941d8ca","","","","","<p style=""color:darkgreen;font-size:24px;"">Correct :)</p>","",""
"2633","key","v","v","16.665924050633006","500","250","psychophysics","239","905120","0.0-239.0","6106e56a30bffe5aa77176ee","6213d22a43b6641d8941d8ca","5","","","","","0","7"
"null","","","null","","","","html-keyboard-response","240","905623","0.0-240.0","6106e56a30bffe5aa77176ee","6213d22a43b6641d8941d8ca","","","","","<p style=""color:darkgreen;font-size:24px;"">Correct :)</p>","",""
"2868","key","n","n","16.666494186046442","500","250","psychophysics","241","908494","0.0-241.0","6106e56a30bffe5aa77176ee","6213d22a43b6641d8941d8ca","5","","","","","0","4"
"null","","","null","","","","html-keyboard-response","242","908997","0.0-242.0","6106e56a30bffe5aa77176ee","6213d22a43b6641d8941d8ca","","","","","<p style=""color:darkgreen;font-size:24px;"">Correct :)</p>","",""
"2533","key","n","n","16.668592105262704","500","250","psychophysics","243","911536","0.0-243.0","6106e56a30bffe5aa77176ee","6213d22a43b6641d8941d8ca","5","","","","","0","4"
"null","","","null","","","","html-keyboard-response","244","912039","0.0-244.0","6106e56a30bffe5aa77176ee","6213d22a43b6641d8941d8ca","","","","","<p style=""color:darkgreen;font-size:24px;"">Correct :)</p>","",""
"2711","key","v","v","16.666662576687635","500","250","psychophysics","245","914759","0.0-245.0","6106e56a30bffe5aa77176ee","6213d22a43b6641d8941d8ca","5","","","","","0","7"
"null","","","null","","","","html-keyboard-response","246","915260","0.0-246.0","6106e56a30bffe5aa77176ee","6213d22a43b6641d8941d8ca","","","","","<p style=""color:darkgreen;font-size:24px;"">Correct :)</p>","",""
"2692","key","n","n","16.66725308641958","500","250","psychophysics","247","917961","0.0-247.0","6106e56a30bffe5aa77176ee","6213d22a43b6641d8941d8ca","5","","","","","0","8"
"null","","","null","","","","html-keyboard-response","248","918464","0.0-248.0","6106e56a30bffe5aa77176ee","6213d22a43b6641d8941d8ca","","","","","<p style=""color:darkgreen;font-size:24px;"">Correct :)</p>","",""
"2734","key","n","n","16.666466666667045","500","250","psychophysics","249","921208","0.0-249.0","6106e56a30bffe5aa77176ee","6213d22a43b6641d8941d8ca","5","","","","","0","2"
"null","","","null","","","","html-keyboard-response","250","921712","0.0-250.0","6106e56a30bffe5aa77176ee","6213d22a43b6641d8941d8ca","","","","","<p style=""color:darkgreen;font-size:24px;"">Correct :)</p>","",""
"2701","key","v","v","16.66621472392634","500","250","psychophysics","251","924424","0.0-251.0","6106e56a30bffe5aa77176ee","6213d22a43b6641d8941d8ca","5","","","","","0","1"
"null","","","null","","","","html-keyboard-response","252","924927","0.0-252.0","6106e56a30bffe5aa77176ee","6213d22a43b6641d8941d8ca","","","","","<p style=""color:darkgreen;font-size:24px;"">Correct :)</p>","",""
"2727","key","n","n","16.667554878048378","500","250","psychophysics","253","927663","0.0-253.0","6106e56a30bffe5aa77176ee","6213d22a43b6641d8941d8ca","5","","","","","0","6"
"null","","","null","","","","html-keyboard-response","254","928166","0.0-254.0","6106e56a30bffe5aa77176ee","6213d22a43b6641d8941d8ca","","","","","<p style=""color:darkgreen;font-size:24px;"">Correct :)</p>","",""
"2801","key","v","v","16.669615384615604","500","250","psychophysics","255","930977","0.0-255.0","6106e56a30bffe5aa77176ee","6213d22a43b6641d8941d8ca","5","","","","","0","9"
"null","","","null","","","","html-keyboard-response","256","931480","0.0-256.0","6106e56a30bffe5aa77176ee","6213d22a43b6641d8941d8ca","","","","","<p style=""color:darkgreen;font-size:24px;"">Correct :)</p>","",""
"2750","key","n","n","16.665789156626204","500","250","psychophysics","257","934240","0.0-257.0","6106e56a30bffe5aa77176ee","6213d22a43b6641d8941d8ca","5","","","","","0","4"
"null","","","null","","","","html-keyboard-response","258","934749","0.0-258.0","6106e56a30bffe5aa77176ee","6213d22a43b6641d8941d8ca","","","","","<p style=""color:darkgreen;font-size:24px;"">Correct :)</p>","",""
"2714","key","v","v","16.66876829268266","500","250","psychophysics","259","937472","0.0-259.0","6106e56a30bffe5aa77176ee","6213d22a43b6641d8941d8ca","5","","","","","0","3"
"null","","","null","","","","html-keyboard-response","260","937974","0.0-260.0","6106e56a30bffe5aa77176ee","6213d22a43b6641d8941d8ca","","","","","<p style=""color:darkgreen;font-size:24px;"">Correct :)</p>","",""
"2553","key","n","n","16.66796732026082","500","250","psychophysics","261","940536","0.0-261.0","6106e56a30bffe5aa77176ee","6213d22a43b6641d8941d8ca","5","","","","","0","4"
"null","","","null","","","","html-keyboard-response","262","941039","0.0-262.0","6106e56a30bffe5aa77176ee","6213d22a43b6641d8941d8ca","","","","","<p style=""color:darkgreen;font-size:24px;"">Correct :)</p>","",""
"2697","key","v","v","16.667000000000023","500","250","psychophysics","263","943744","0.0-263.0","6106e56a30bffe5aa77176ee","6213d22a43b6641d8941d8ca","5","","","","","0","9"
"null","","","null","","","","html-keyboard-response","264","944246","0.0-264.0","6106e56a30bffe5aa77176ee","6213d22a43b6641d8941d8ca","","","","","<p style=""color:darkgreen;font-size:24px;"">Correct :)</p>","",""
"2725","key","n","n","16.66795121951216","500","250","psychophysics","265","946975","0.0-265.0","6106e56a30bffe5aa77176ee","6213d22a43b6641d8941d8ca","5","","","","","0","2"
"null","","","null","","","","html-keyboard-response","266","947478","0.0-266.0","6106e56a30bffe5aa77176ee","6213d22a43b6641d8941d8ca","","","","","<p style=""color:darkgreen;font-size:24px;"">Correct :)</p>","",""
"2743","key","v","v","16.668357575757458","500","250","psychophysics","267","950232","0.0-267.0","6106e56a30bffe5aa77176ee","6213d22a43b6641d8941d8ca","5","","","","","0","9"
"null","","","null","","","","html-keyboard-response","268","950734","0.0-268.0","6106e56a30bffe5aa77176ee","6213d22a43b6641d8941d8ca","","","","","<p style=""color:darkgreen;font-size:24px;"">Correct :)</p>","",""
"2596","key","n","n","16.66582467532475","500","250","psychophysics","269","953335","0.0-269.0","6106e56a30bffe5aa77176ee","6213d22a43b6641d8941d8ca","5","","","","","0","4"
"null","","","null","","","","html-keyboard-response","270","953838","0.0-270.0","6106e56a30bffe5aa77176ee","6213d22a43b6641d8941d8ca","","","","","<p style=""color:darkgreen;font-size:24px;"">Correct :)</p>","",""
"2659","key","v","v","16.66933124999996","500","250","psychophysics","271","956507","0.0-271.0","6106e56a30bffe5aa77176ee","6213d22a43b6641d8941d8ca","5","","","","","0","3"
"null","","","null","","","","html-keyboard-response","272","957009","0.0-272.0","6106e56a30bffe5aa77176ee","6213d22a43b6641d8941d8ca","","","","","<p style=""color:darkgreen;font-size:24px;"">Correct :)</p>","",""
"2812","key","v","v","16.668650887573836","500","250","psychophysics","273","959831","0.0-273.0","6106e56a30bffe5aa77176ee","6213d22a43b6641d8941d8ca","5","","","","","0","9"
"null","","","null","","","","html-keyboard-response","274","960333","0.0-274.0","6106e56a30bffe5aa77176ee","6213d22a43b6641d8941d8ca","","","","","<p style=""color:darkgreen;font-size:24px;"">Correct :)</p>","",""
"2813","key","n","n","16.767952380952053","500","250","psychophysics","275","963151","0.0-275.0","6106e56a30bffe5aa77176ee","6213d22a43b6641d8941d8ca","5","","","","","0","6"
"null","","","null","","","","html-keyboard-response","276","963655","0.0-276.0","6106e56a30bffe5aa77176ee","6213d22a43b6641d8941d8ca","","","","","<p style=""color:darkgreen;font-size:24px;"">Correct :)</p>","",""
"2783","key","n","n","16.665970059880614","500","250","psychophysics","277","966447","0.0-277.0","6106e56a30bffe5aa77176ee","6213d22a43b6641d8941d8ca","5","","","","","0","2"
"null","","","null","","","","html-keyboard-response","278","966949","0.0-278.0","6106e56a30bffe5aa77176ee","6213d22a43b6641d8941d8ca","","","","","<p style=""color:darkgreen;font-size:24px;"">Correct :)</p>","",""
"2954","key","n","n","16.666275280899253","500","250","psychophysics","279","969912","0.0-279.0","6106e56a30bffe5aa77176ee","6213d22a43b6641d8941d8ca","5","","","","","0","4"
"null","","","null","","","","html-keyboard-response","280","970415","0.0-280.0","6106e56a30bffe5aa77176ee","6213d22a43b6641d8941d8ca","","","","","<p style=""color:darkgreen;font-size:24px;"">Correct :)</p>","",""
"2690","key","n","n","16.668783950617243","500","250","psychophysics","281","973111","0.0-281.0","6106e56a30bffe5aa77176ee","6213d22a43b6641d8941d8ca","5","","","","","0","4"
"null","","","null","","","","html-keyboard-response","282","973614","0.0-282.0","6106e56a30bffe5aa77176ee","6213d22a43b6641d8941d8ca","","","","","<p style=""color:darkgreen;font-size:24px;"">Correct :)</p>","",""
"3040","key","v","v","16.667726775956382","500","250","psychophysics","283","976663","0.0-283.0","6106e56a30bffe5aa77176ee","6213d22a43b6641d8941d8ca","5","","","","","0","3"
"null","","","null","","","","html-keyboard-response","284","977165","0.0-284.0","6106e56a30bffe5aa77176ee","6213d22a43b6641d8941d8ca","","","","","<p style=""color:darkgreen;font-size:24px;"">Correct :)</p>","",""
"2769","key","n","n","16.669598802395058","500","250","psychophysics","285","979943","0.0-285.0","6106e56a30bffe5aa77176ee","6213d22a43b6641d8941d8ca","5","","","","","0","9"
"null","","","null","","","","html-keyboard-response","286","980446","0.0-286.0","6106e56a30bffe5aa77176ee","6213d22a43b6641d8941d8ca","","","","","<p style=""color:red;font-size:24px;"">Error :(</p>","",""
"2801","key","n","n","16.66926627218952","500","250","psychophysics","287","983256","0.0-287.0","6106e56a30bffe5aa77176ee","6213d22a43b6641d8941d8ca","5","","","","","0","4"
"null","","","null","","","","html-keyboard-response","288","983766","0.0-288.0","6106e56a30bffe5aa77176ee","6213d22a43b6641d8941d8ca","","","","","<p style=""color:darkgreen;font-size:24px;"">Correct :)</p>","",""
"2850","key","v","v","16.667610465116436","500","250","psychophysics","289","986624","0.0-289.0","6106e56a30bffe5aa77176ee","6213d22a43b6641d8941d8ca","5","","","","","0","9"
"null","","","null","","","","html-keyboard-response","290","987125","0.0-290.0","6106e56a30bffe5aa77176ee","6213d22a43b6641d8941d8ca","","","","","<p style=""color:darkgreen;font-size:24px;"">Correct :)</p>","",""
"2804","key","v","v","16.666113095237442","500","250","psychophysics","291","989936","0.0-291.0","6106e56a30bffe5aa77176ee","6213d22a43b6641d8941d8ca","5","","","","","0","7"
"null","","","null","","","","html-keyboard-response","292","990439","0.0-292.0","6106e56a30bffe5aa77176ee","6213d22a43b6641d8941d8ca","","","","","<p style=""color:darkgreen;font-size:24px;"">Correct :)</p>","",""
"2770","key","v","v","16.668216867469873","500","250","psychophysics","293","993219","0.0-293.0","6106e56a30bffe5aa77176ee","6213d22a43b6641d8941d8ca","5","","","","","0","3"
"null","","","null","","","","html-keyboard-response","294","993722","0.0-294.0","6106e56a30bffe5aa77176ee","6213d22a43b6641d8941d8ca","","","","","<p style=""color:darkgreen;font-size:24px;"">Correct :)</p>","",""
"12046","","","n","","","","html-keyboard-response","295","1005771","0.0-295.0","6106e56a30bffe5aa77176ee","6213d22a43b6641d8941d8ca","","","","","<p> Here, the tasks are going to switch.  For some trials, your job is to decide if the digit is less than or greater than 5.  For others, it is to decide if the digit is even or odd.  You will be told which type of trial the current one is.  But, pay attention, the type of trial changes too.  We are going to do 50 of these.  </p>  <br><br>  Ready? (press v or n)","",""
"2883","key","v","v","16.685554913294936","500","250","psychophysics","296","1008663","0.0-296.0","6106e56a30bffe5aa77176ee","6213d22a43b6641d8941d8ca","6","","","","","0","7"
"null","","","null","","","","html-keyboard-response","297","1009166","0.0-297.0","6106e56a30bffe5aa77176ee","6213d22a43b6641d8941d8ca","","","","","<p style=""color:darkgreen;font-size:24px;"">Correct :)</p>","",""
"2577","key","n","n","16.668464516129553","500","250","psychophysics","298","1011751","0.0-298.0","6106e56a30bffe5aa77176ee","6213d22a43b6641d8941d8ca","6","","","","","0","8"
"null","","","null","","","","html-keyboard-response","299","1012256","0.0-299.0","6106e56a30bffe5aa77176ee","6213d22a43b6641d8941d8ca","","","","","<p style=""color:darkgreen;font-size:24px;"">Correct :)</p>","",""
"2848","key","n","n","16.665824561403678","500","250","psychophysics","300","1015110","0.0-300.0","6106e56a30bffe5aa77176ee","6213d22a43b6641d8941d8ca","6","","","","","1","6"
"null","","","null","","","","html-keyboard-response","301","1015613","0.0-301.0","6106e56a30bffe5aa77176ee","6213d22a43b6641d8941d8ca","","","","","<p style=""color:darkgreen;font-size:24px;"">Correct :)</p>","",""
"2856","key","n","n","16.668319767441865","500","250","psychophysics","302","1018480","0.0-302.0","6106e56a30bffe5aa77176ee","6213d22a43b6641d8941d8ca","6","","","","","0","4"
"null","","","null","","","","html-keyboard-response","303","1018982","0.0-303.0","6106e56a30bffe5aa77176ee","6213d22a43b6641d8941d8ca","","","","","<p style=""color:darkgreen;font-size:24px;"">Correct :)</p>","",""
"2607","key","n","n","16.6677834394901","500","250","psychophysics","304","1021600","0.0-304.0","6106e56a30bffe5aa77176ee","6213d22a43b6641d8941d8ca","6","","","","","0","4"
"null","","","null","","","","html-keyboard-response","305","1022117","0.0-305.0","6106e56a30bffe5aa77176ee","6213d22a43b6641d8941d8ca","","","","","<p style=""color:darkgreen;font-size:24px;"">Correct :)</p>","",""
"2584","key","v","v","16.777225806451433","500","250","psychophysics","306","1024711","0.0-306.0","6106e56a30bffe5aa77176ee","6213d22a43b6641d8941d8ca","6","","","","","1","1"
"null","","","null","","","","html-keyboard-response","307","1025213","0.0-307.0","6106e56a30bffe5aa77176ee","6213d22a43b6641d8941d8ca","","","","","<p style=""color:darkgreen;font-size:24px;"">Correct :)</p>","",""
"2602","key","n","n","16.667299363057715","500","250","psychophysics","308","1027825","0.0-308.0","6106e56a30bffe5aa77176ee","6213d22a43b6641d8941d8ca","6","","","","","1","9"
"null","","","null","","","","html-keyboard-response","309","1028327","0.0-309.0","6106e56a30bffe5aa77176ee","6213d22a43b6641d8941d8ca","","","","","<p style=""color:darkgreen;font-size:24px;"">Correct :)</p>","",""
"2705","key","v","v","16.66924539877336","500","250","psychophysics","310","1031042","0.0-310.0","6106e56a30bffe5aa77176ee","6213d22a43b6641d8941d8ca","6","","","","","1","1"
"null","","","null","","","","html-keyboard-response","311","1031545","0.0-311.0","6106e56a30bffe5aa77176ee","6213d22a43b6641d8941d8ca","","","","","<p style=""color:darkgreen;font-size:24px;"">Correct :)</p>","",""
"2637","key","n","n","16.667654088050355","500","250","psychophysics","312","1034193","0.0-312.0","6106e56a30bffe5aa77176ee","6213d22a43b6641d8941d8ca","6","","","","","1","6"
"null","","","null","","","","html-keyboard-response","313","1034697","0.0-313.0","6106e56a30bffe5aa77176ee","6213d22a43b6641d8941d8ca","","","","","<p style=""color:darkgreen;font-size:24px;"">Correct :)</p>","",""
"2678","key","n","n","16.667987577640307","500","250","psychophysics","314","1037385","0.0-314.0","6106e56a30bffe5aa77176ee","6213d22a43b6641d8941d8ca","6","","","","","0","6"
"null","","","null","","","","html-keyboard-response","315","1037888","0.0-315.0","6106e56a30bffe5aa77176ee","6213d22a43b6641d8941d8ca","","","","","<p style=""color:darkgreen;font-size:24px;"">Correct :)</p>","",""
"2671","key","n","n","16.6697937500001","500","250","psychophysics","316","1040568","0.0-316.0","6106e56a30bffe5aa77176ee","6213d22a43b6641d8941d8ca","6","","","","","1","6"
"null","","","null","","","","html-keyboard-response","317","1041081","0.0-317.0","6106e56a30bffe5aa77176ee","6213d22a43b6641d8941d8ca","","","","","<p style=""color:darkgreen;font-size:24px;"">Correct :)</p>","",""
"2776","key","n","n","16.667772455089363","500","250","psychophysics","318","1043866","0.0-318.0","6106e56a30bffe5aa77176ee","6213d22a43b6641d8941d8ca","6","","","","","0","4"
"null","","","null","","","","html-keyboard-response","319","1044369","0.0-319.0","6106e56a30bffe5aa77176ee","6213d22a43b6641d8941d8ca","","","","","<p style=""color:darkgreen;font-size:24px;"">Correct :)</p>","",""
"2773","key","v","v","16.667012048193047","500","250","psychophysics","320","1047152","0.0-320.0","6106e56a30bffe5aa77176ee","6213d22a43b6641d8941d8ca","6","","","","","1","4"
"null","","","null","","","","html-keyboard-response","321","1047660","0.0-321.0","6106e56a30bffe5aa77176ee","6213d22a43b6641d8941d8ca","","","","","<p style=""color:darkgreen;font-size:24px;"">Correct :)</p>","",""
"2641","key","v","v","16.6663018867927","500","250","psychophysics","322","1050306","0.0-322.0","6106e56a30bffe5aa77176ee","6213d22a43b6641d8941d8ca","6","","","","","1","3"
"null","","","null","","","","html-keyboard-response","323","1050809","0.0-323.0","6106e56a30bffe5aa77176ee","6213d22a43b6641d8941d8ca","","","","","<p style=""color:darkgreen;font-size:24px;"">Correct :)</p>","",""
"2564","key","n","n","16.667909090909138","500","250","psychophysics","324","1053385","0.0-324.0","6106e56a30bffe5aa77176ee","6213d22a43b6641d8941d8ca","6","","","","","1","8"
"null","","","null","","","","html-keyboard-response","325","1053888","0.0-325.0","6106e56a30bffe5aa77176ee","6213d22a43b6641d8941d8ca","","","","","<p style=""color:darkgreen;font-size:24px;"">Correct :)</p>","",""
"2703","key","v","v","16.668851851850725","500","250","psychophysics","326","1056600","0.0-326.0","6106e56a30bffe5aa77176ee","6213d22a43b6641d8941d8ca","6","","","","","0","1"
"null","","","null","","","","html-keyboard-response","327","1057102","0.0-327.0","6106e56a30bffe5aa77176ee","6213d22a43b6641d8941d8ca","","","","","<p style=""color:darkgreen;font-size:24px;"">Correct :)</p>","",""
"2640","key","v","v","16.666379746835077","500","250","psychophysics","328","1059752","0.0-328.0","6106e56a30bffe5aa77176ee","6213d22a43b6641d8941d8ca","6","","","","","1","3"
"null","","","null","","","","html-keyboard-response","329","1060254","0.0-329.0","6106e56a30bffe5aa77176ee","6213d22a43b6641d8941d8ca","","","","","<p style=""color:darkgreen;font-size:24px;"">Correct :)</p>","",""
"2913","key","n","n","16.6687771428576","500","250","psychophysics","330","1063176","0.0-330.0","6106e56a30bffe5aa77176ee","6213d22a43b6641d8941d8ca","6","","","","","0","4"
"null","","","null","","","","html-keyboard-response","331","1063678","0.0-331.0","6106e56a30bffe5aa77176ee","6213d22a43b6641d8941d8ca","","","","","<p style=""color:darkgreen;font-size:24px;"">Correct :)</p>","",""
"2713","key","n","n","16.667828220858357","500","250","psychophysics","332","1066400","0.0-332.0","6106e56a30bffe5aa77176ee","6213d22a43b6641d8941d8ca","6","","","","","0","2"
"null","","","null","","","","html-keyboard-response","333","1066903","0.0-333.0","6106e56a30bffe5aa77176ee","6213d22a43b6641d8941d8ca","","","","","<p style=""color:darkgreen;font-size:24px;"">Correct :)</p>","",""
"2714","key","n","n","16.66897546012309","500","250","psychophysics","334","1069626","0.0-334.0","6106e56a30bffe5aa77176ee","6213d22a43b6641d8941d8ca","6","","","","","0","6"
"null","","","null","","","","html-keyboard-response","335","1070129","0.0-335.0","6106e56a30bffe5aa77176ee","6213d22a43b6641d8941d8ca","","","","","<p style=""color:darkgreen;font-size:24px;"">Correct :)</p>","",""
"2647","key","v","v","16.77060377358535","500","250","psychophysics","336","1072800","0.0-336.0","6106e56a30bffe5aa77176ee","6213d22a43b6641d8941d8ca","6","","","","","1","3"
"null","","","null","","","","html-keyboard-response","337","1073317","0.0-337.0","6106e56a30bffe5aa77176ee","6213d22a43b6641d8941d8ca","","","","","<p style=""color:darkgreen;font-size:24px;"">Correct :)</p>","",""
"2684","key","n","n","16.772298136645038","500","250","psychophysics","338","1076008","0.0-338.0","6106e56a30bffe5aa77176ee","6213d22a43b6641d8941d8ca","6","","","","","0","6"
"null","","","null","","","","html-keyboard-response","339","1076512","0.0-339.0","6106e56a30bffe5aa77176ee","6213d22a43b6641d8941d8ca","","","","","<p style=""color:darkgreen;font-size:24px;"">Correct :)</p>","",""
"2654","key","v","v","16.66706874999945","500","250","psychophysics","340","1079176","0.0-340.0","6106e56a30bffe5aa77176ee","6213d22a43b6641d8941d8ca","6","","","","","1","1"
"null","","","null","","","","html-keyboard-response","341","1079680","0.0-341.0","6106e56a30bffe5aa77176ee","6213d22a43b6641d8941d8ca","","","","","<p style=""color:darkgreen;font-size:24px;"">Correct :)</p>","",""
"3088","key","v","v","16.66936559139711","500","250","psychophysics","342","1082778","0.0-342.0","6106e56a30bffe5aa77176ee","6213d22a43b6641d8941d8ca","6","","","","","0","9"
"null","","","null","","","","html-keyboard-response","343","1083282","0.0-343.0","6106e56a30bffe5aa77176ee","6213d22a43b6641d8941d8ca","","","","","<p style=""color:darkgreen;font-size:24px;"">Correct :)</p>","",""
"3084","key","v","v","16.668413978495625","500","250","psychophysics","344","1086377","0.0-344.0","6106e56a30bffe5aa77176ee","6213d22a43b6641d8941d8ca","6","","","","","1","2"
"null","","","null","","","","html-keyboard-response","345","1086880","0.0-345.0","6106e56a30bffe5aa77176ee","6213d22a43b6641d8941d8ca","","","","","<p style=""color:darkgreen;font-size:24px;"">Correct :)</p>","",""
"2727","key","v","v","16.66624390243882","500","250","psychophysics","346","1089618","0.0-346.0","6106e56a30bffe5aa77176ee","6213d22a43b6641d8941d8ca","6","","","","","0","7"
"null","","","null","","","","html-keyboard-response","347","1090125","0.0-347.0","6106e56a30bffe5aa77176ee","6213d22a43b6641d8941d8ca","","","","","<p style=""color:darkgreen;font-size:24px;"">Correct :)</p>","",""
"2856","key","v","v","16.670203488371552","500","250","psychophysics","348","1092992","0.0-348.0","6106e56a30bffe5aa77176ee","6213d22a43b6641d8941d8ca","6","","","","","1","2"
"null","","","null","","","","html-keyboard-response","349","1093504","0.0-349.0","6106e56a30bffe5aa77176ee","6213d22a43b6641d8941d8ca","","","","","<p style=""color:darkgreen;font-size:24px;"">Correct :)</p>","",""
"2547","key","n","n","16.66821568627428","500","250","psychophysics","350","1096063","0.0-350.0","6106e56a30bffe5aa77176ee","6213d22a43b6641d8941d8ca","6","","","","","1","9"
"null","","","null","","","","html-keyboard-response","351","1096565","0.0-351.0","6106e56a30bffe5aa77176ee","6213d22a43b6641d8941d8ca","","","","","<p style=""color:darkgreen;font-size:24px;"">Correct :)</p>","",""
"3035","key","n","n","16.66866666666624","500","250","psychophysics","352","1099608","0.0-352.0","6106e56a30bffe5aa77176ee","6213d22a43b6641d8941d8ca","6","","","","","0","4"
"null","","","null","","","","html-keyboard-response","353","1100110","0.0-353.0","6106e56a30bffe5aa77176ee","6213d22a43b6641d8941d8ca","","","","","<p style=""color:darkgreen;font-size:24px;"">Correct :)</p>","",""
"2728","key","v","v","16.667024390245277","500","250","psychophysics","354","1102848","0.0-354.0","6106e56a30bffe5aa77176ee","6213d22a43b6641d8941d8ca","6","","","","","0","9"
"null","","","null","","","","html-keyboard-response","355","1103350","0.0-355.0","6106e56a30bffe5aa77176ee","6213d22a43b6641d8941d8ca","","","","","<p style=""color:darkgreen;font-size:24px;"">Correct :)</p>","",""
"2593","key","v","v","16.77451612903256","500","250","psychophysics","356","1105952","0.0-356.0","6106e56a30bffe5aa77176ee","6213d22a43b6641d8941d8ca","6","","","","","1","1"
"null","","","null","","","","html-keyboard-response","357","1106456","0.0-357.0","6106e56a30bffe5aa77176ee","6213d22a43b6641d8941d8ca","","","","","<p style=""color:darkgreen;font-size:24px;"">Correct :)</p>","",""
"2990","key","n","n","16.668727777776724","500","250","psychophysics","358","1109455","0.0-358.0","6106e56a30bffe5aa77176ee","6213d22a43b6641d8941d8ca","6","","","","","1","7"
"null","","","null","","","","html-keyboard-response","359","1109958","0.0-359.0","6106e56a30bffe5aa77176ee","6213d22a43b6641d8941d8ca","","","","","<p style=""color:darkgreen;font-size:24px;"">Correct :)</p>","",""
"2725","key","n","n","16.668242424242482","500","250","psychophysics","360","1112709","0.0-360.0","6106e56a30bffe5aa77176ee","6213d22a43b6641d8941d8ca","6","","","","","0","8"
"null","","","null","","","","html-keyboard-response","361","1113214","0.0-361.0","6106e56a30bffe5aa77176ee","6213d22a43b6641d8941d8ca","","","","","<p style=""color:darkgreen;font-size:24px;"">Correct :)</p>","",""
"2560","key","v","v","16.666714285713525","500","250","psychophysics","362","1115784","0.0-362.0","6106e56a30bffe5aa77176ee","6213d22a43b6641d8941d8ca","6","","","","","1","2"
"null","","","null","","","","html-keyboard-response","363","1116289","0.0-363.0","6106e56a30bffe5aa77176ee","6213d22a43b6641d8941d8ca","","","","","<p style=""color:darkgreen;font-size:24px;"">Correct :)</p>","",""
"2886","key","v","v","16.667225433525633","500","250","psychophysics","364","1119185","0.0-364.0","6106e56a30bffe5aa77176ee","6213d22a43b6641d8941d8ca","6","","","","","0","9"
"null","","","null","","","","html-keyboard-response","365","1119689","0.0-365.0","6106e56a30bffe5aa77176ee","6213d22a43b6641d8941d8ca","","","","","<p style=""color:darkgreen;font-size:24px;"">Correct :)</p>","",""
"2693","key","n","n","16.669660493826356","500","250","psychophysics","366","1122391","0.0-366.0","6106e56a30bffe5aa77176ee","6213d22a43b6641d8941d8ca","6","","","","","0","6"
"null","","","null","","","","html-keyboard-response","367","1122893","0.0-367.0","6106e56a30bffe5aa77176ee","6213d22a43b6641d8941d8ca","","","","","<p style=""color:darkgreen;font-size:24px;"">Correct :)</p>","",""
"2678","key","v","v","16.879503144654183","500","250","psychophysics","368","1125577","0.0-368.0","6106e56a30bffe5aa77176ee","6213d22a43b6641d8941d8ca","6","","","","","0","7"
"null","","","null","","","","html-keyboard-response","369","1126080","0.0-369.0","6106e56a30bffe5aa77176ee","6213d22a43b6641d8941d8ca","","","","","<p style=""color:darkgreen;font-size:24px;"">Correct :)</p>","",""
"2862","key","n","n","16.667401162791066","500","250","psychophysics","370","1128951","0.0-370.0","6106e56a30bffe5aa77176ee","6213d22a43b6641d8941d8ca","6","","","","","0","2"
"null","","","null","","","","html-keyboard-response","371","1129453","0.0-371.0","6106e56a30bffe5aa77176ee","6213d22a43b6641d8941d8ca","","","","","<p style=""color:darkgreen;font-size:24px;"">Correct :)</p>","",""
"2890","key","n","n","16.667196531792175","500","250","psychophysics","372","1132352","0.0-372.0","6106e56a30bffe5aa77176ee","6213d22a43b6641d8941d8ca","6","","","","","0","4"
"null","","","null","","","","html-keyboard-response","373","1132854","0.0-373.0","6106e56a30bffe5aa77176ee","6213d22a43b6641d8941d8ca","","","","","<p style=""color:darkgreen;font-size:24px;"">Correct :)</p>","",""
"3033","key","n","n","16.667912087912395","500","250","psychophysics","374","1135896","0.0-374.0","6106e56a30bffe5aa77176ee","6213d22a43b6641d8941d8ca","6","","","","","1","6"
"null","","","null","","","","html-keyboard-response","375","1136398","0.0-375.0","6106e56a30bffe5aa77176ee","6213d22a43b6641d8941d8ca","","","","","<p style=""color:darkgreen;font-size:24px;"">Correct :)</p>","",""
"2613","key","v","v","16.667388535032025","500","250","psychophysics","376","1139016","0.0-376.0","6106e56a30bffe5aa77176ee","6213d22a43b6641d8941d8ca","6","","","","","1","2"
"null","","","null","","","","html-keyboard-response","377","1139520","0.0-377.0","6106e56a30bffe5aa77176ee","6213d22a43b6641d8941d8ca","","","","","<p style=""color:darkgreen;font-size:24px;"">Correct :)</p>","",""
"2825","key","n","n","16.66752662721845","500","250","psychophysics","378","1142352","0.0-378.0","6106e56a30bffe5aa77176ee","6213d22a43b6641d8941d8ca","6","","","","","0","6"
"null","","","null","","","","html-keyboard-response","379","1142855","0.0-379.0","6106e56a30bffe5aa77176ee","6213d22a43b6641d8941d8ca","","","","","<p style=""color:darkgreen;font-size:24px;"">Correct :)</p>","",""
"2560","key","v","v","16.667298701299995","500","250","psychophysics","380","1145425","0.0-380.0","6106e56a30bffe5aa77176ee","6213d22a43b6641d8941d8ca","6","","","","","0","3"
"null","","","null","","","","html-keyboard-response","381","1145928","0.0-381.0","6106e56a30bffe5aa77176ee","6213d22a43b6641d8941d8ca","","","","","<p style=""color:darkgreen;font-size:24px;"">Correct :)</p>","",""
"2690","key","v","v","16.670932098766098","500","250","psychophysics","382","1148627","0.0-382.0","6106e56a30bffe5aa77176ee","6213d22a43b6641d8941d8ca","6","","","","","0","3"
"null","","","null","","","","html-keyboard-response","383","1149129","0.0-383.0","6106e56a30bffe5aa77176ee","6213d22a43b6641d8941d8ca","","","","","<p style=""color:darkgreen;font-size:24px;"">Correct :)</p>","",""
"2693","key","v","v","16.667925925925374","500","250","psychophysics","384","1151832","0.0-384.0","6106e56a30bffe5aa77176ee","6213d22a43b6641d8941d8ca","6","","","","","1","2"
"null","","","null","","","","html-keyboard-response","385","1152335","0.0-385.0","6106e56a30bffe5aa77176ee","6213d22a43b6641d8941d8ca","","","","","<p style=""color:darkgreen;font-size:24px;"">Correct :)</p>","",""
"2655","key","v","v","16.667880503144467","500","250","psychophysics","386","1155000","0.0-386.0","6106e56a30bffe5aa77176ee","6213d22a43b6641d8941d8ca","6","","","","","1","1"
"null","","","null","","","","html-keyboard-response","387","1155516","0.0-387.0","6106e56a30bffe5aa77176ee","6213d22a43b6641d8941d8ca","","","","","<p style=""color:darkgreen;font-size:24px;"">Correct :)</p>","",""
"2721","key","v","v","16.668195121951413","500","250","psychophysics","388","1158250","0.0-388.0","6106e56a30bffe5aa77176ee","6213d22a43b6641d8941d8ca","6","","","","","0","9"
"null","","","null","","","","html-keyboard-response","389","1158752","0.0-389.0","6106e56a30bffe5aa77176ee","6213d22a43b6641d8941d8ca","","","","","<p style=""color:darkgreen;font-size:24px;"">Correct :)</p>","",""
"3023","key","v","v","16.66579558010964","500","250","psychophysics","390","1161784","0.0-390.0","6106e56a30bffe5aa77176ee","6213d22a43b6641d8941d8ca","6","","","","","1","4"
"null","","","null","","","","html-keyboard-response","391","1162286","0.0-391.0","6106e56a30bffe5aa77176ee","6213d22a43b6641d8941d8ca","","","","","<p style=""color:darkgreen;font-size:24px;"">Correct :)</p>","",""
"2629","key","v","v","16.667164556962096","500","250","psychophysics","392","1164921","0.0-392.0","6106e56a30bffe5aa77176ee","6213d22a43b6641d8941d8ca","6","","","","","1","4"
"null","","","null","","","","html-keyboard-response","393","1165424","0.0-393.0","6106e56a30bffe5aa77176ee","6213d22a43b6641d8941d8ca","","","","","<p style=""color:darkgreen;font-size:24px;"">Correct :)</p>","",""
"2758","key","v","v","16.668554216867356","500","250","psychophysics","394","1168192","0.0-394.0","6106e56a30bffe5aa77176ee","6213d22a43b6641d8941d8ca","6","","","","","0","3"
"null","","","null","","","","html-keyboard-response","395","1168695","0.0-395.0","6106e56a30bffe5aa77176ee","6213d22a43b6641d8941d8ca","","","","","<p style=""color:darkgreen;font-size:24px;"">Correct :)</p>","",""
"7209","","","n","","","","html-keyboard-response","396","1175907","0.0-396.0","6106e56a30bffe5aa77176ee","6213d22a43b6641d8941d8ca","","","","","<p> Last set of trials.  Here, the tasks are going to switch once again.  We are going to do 50 of these.  And then you are done with the experiment.  </p>  <br><br>  Ready? (press v or n)","",""
"2603","key","v","v","16.682871794872856","500","250","psychophysics","397","1178519","0.0-397.0","6106e56a30bffe5aa77176ee","6213d22a43b6641d8941d8ca","7","","","","","1","4"
"null","","","null","","","","html-keyboard-response","398","1179030","0.0-398.0","6106e56a30bffe5aa77176ee","6213d22a43b6641d8941d8ca","","","","","<p style=""color:darkgreen;font-size:24px;"">Correct :)</p>","",""
"2962","key","n","n","16.66674719101179","500","250","psychophysics","399","1182001","0.0-399.0","6106e56a30bffe5aa77176ee","6213d22a43b6641d8941d8ca","7","","","","","0","2"
"null","","","null","","","","html-keyboard-response","400","1182504","0.0-400.0","6106e56a30bffe5aa77176ee","6213d22a43b6641d8941d8ca","","","","","<p style=""color:darkgreen;font-size:24px;"">Correct :)</p>","",""
"2719","key","v","v","16.667650306748765","500","250","psychophysics","401","1185232","0.0-401.0","6106e56a30bffe5aa77176ee","6213d22a43b6641d8941d8ca","7","","","","","1","2"
"null","","","null","","","","html-keyboard-response","402","1185735","0.0-402.0","6106e56a30bffe5aa77176ee","6213d22a43b6641d8941d8ca","","","","","<p style=""color:darkgreen;font-size:24px;"">Correct :)</p>","",""
"2917","key","v","v","16.66435057471169","500","250","psychophysics","403","1188656","0.0-403.0","6106e56a30bffe5aa77176ee","6213d22a43b6641d8941d8ca","7","","","","","0","7"
"null","","","null","","","","html-keyboard-response","404","1189158","0.0-404.0","6106e56a30bffe5aa77176ee","6213d22a43b6641d8941d8ca","","","","","<p style=""color:darkgreen;font-size:24px;"">Correct :)</p>","",""
"2934","key","n","n","16.670221590907946","500","250","psychophysics","405","1192096","0.0-405.0","6106e56a30bffe5aa77176ee","6213d22a43b6641d8941d8ca","7","","","","","0","4"
"null","","","null","","","","html-keyboard-response","406","1192598","0.0-406.0","6106e56a30bffe5aa77176ee","6213d22a43b6641d8941d8ca","","","","","<p style=""color:darkgreen;font-size:24px;"">Correct :)</p>","",""
"2688","key","v","v","16.667722222221336","500","250","psychophysics","407","1195296","0.0-407.0","6106e56a30bffe5aa77176ee","6213d22a43b6641d8941d8ca","7","","","","","0","3"
"null","","","null","","","","html-keyboard-response","408","1195798","0.0-408.0","6106e56a30bffe5aa77176ee","6213d22a43b6641d8941d8ca","","","","","<p style=""color:darkgreen;font-size:24px;"">Correct :)</p>","",""
"2857","key","n","n","16.66937209302316","500","250","psychophysics","409","1198664","0.0-409.0","6106e56a30bffe5aa77176ee","6213d22a43b6641d8941d8ca","7","","","","","1","4"
"null","","","null","","","","html-keyboard-response","410","1199167","0.0-410.0","6106e56a30bffe5aa77176ee","6213d22a43b6641d8941d8ca","","","","","<p style=""color:red;font-size:24px;"">Error :(</p>","",""
"2762","key","v","v","16.768602409638486","500","250","psychophysics","411","1201941","0.0-411.0","6106e56a30bffe5aa77176ee","6213d22a43b6641d8941d8ca","7","","","","","1","4"
"null","","","null","","","","html-keyboard-response","412","1202444","0.0-412.0","6106e56a30bffe5aa77176ee","6213d22a43b6641d8941d8ca","","","","","<p style=""color:darkgreen;font-size:24px;"">Correct :)</p>","",""
"2714","key","n","n","16.668177914110075","500","250","psychophysics","413","1205170","0.0-413.0","6106e56a30bffe5aa77176ee","6213d22a43b6641d8941d8ca","7","","","","","0","6"
"null","","","null","","","","html-keyboard-response","414","1205674","0.0-414.0","6106e56a30bffe5aa77176ee","6213d22a43b6641d8941d8ca","","","","","<p style=""color:darkgreen;font-size:24px;"">Correct :)</p>","",""
"2582","key","v","v","16.667387096774615","500","250","psychophysics","415","1208264","0.0-415.0","6106e56a30bffe5aa77176ee","6213d22a43b6641d8941d8ca","7","","","","","1","3"
"null","","","null","","","","html-keyboard-response","416","1208767","0.0-416.0","6106e56a30bffe5aa77176ee","6213d22a43b6641d8941d8ca","","","","","<p style=""color:darkgreen;font-size:24px;"">Correct :)</p>","",""
"2632","key","v","v","16.77480379746832","500","250","psychophysics","417","1211409","0.0-417.0","6106e56a30bffe5aa77176ee","6213d22a43b6641d8941d8ca","7","","","","","1","2"
"null","","","null","","","","html-keyboard-response","418","1211923","0.0-418.0","6106e56a30bffe5aa77176ee","6213d22a43b6641d8941d8ca","","","","","<p style=""color:darkgreen;font-size:24px;"">Correct :)</p>","",""
"2776","key","n","n","16.666982035927788","500","250","psychophysics","419","1214708","0.0-419.0","6106e56a30bffe5aa77176ee","6213d22a43b6641d8941d8ca","7","","","","","0","4"
"null","","","null","","","","html-keyboard-response","420","1215211","0.0-420.0","6106e56a30bffe5aa77176ee","6213d22a43b6641d8941d8ca","","","","","<p style=""color:darkgreen;font-size:24px;"">Correct :)</p>","",""
"3242","key","v","v","16.666384615383755","500","250","psychophysics","421","1218465","0.0-421.0","6106e56a30bffe5aa77176ee","6213d22a43b6641d8941d8ca","7","","","","","0","4"
"null","","","null","","","","html-keyboard-response","422","1218967","0.0-422.0","6106e56a30bffe5aa77176ee","6213d22a43b6641d8941d8ca","","","","","<p style=""color:red;font-size:24px;"">Error :(</p>","",""
"2680","key","v","v","16.772782608694598","500","250","psychophysics","423","1221657","0.0-423.0","6106e56a30bffe5aa77176ee","6213d22a43b6641d8941d8ca","7","","","","","1","3"
"null","","","null","","","","html-keyboard-response","424","1222159","0.0-424.0","6106e56a30bffe5aa77176ee","6213d22a43b6641d8941d8ca","","","","","<p style=""color:darkgreen;font-size:24px;"">Correct :)</p>","",""
"3383","key","v","v","16.667019704433635","500","250","psychophysics","425","1225552","0.0-425.0","6106e56a30bffe5aa77176ee","6213d22a43b6641d8941d8ca","7","","","","","0","7"
"null","","","null","","","","html-keyboard-response","426","1226055","0.0-426.0","6106e56a30bffe5aa77176ee","6213d22a43b6641d8941d8ca","","","","","<p style=""color:darkgreen;font-size:24px;"">Correct :)</p>","",""
"3364","key","v","v","16.66897524752433","500","250","psychophysics","427","1229424","0.0-427.0","6106e56a30bffe5aa77176ee","6213d22a43b6641d8941d8ca","7","","","","","1","3"
"null","","","null","","","","html-keyboard-response","428","1229927","0.0-428.0","6106e56a30bffe5aa77176ee","6213d22a43b6641d8941d8ca","","","","","<p style=""color:darkgreen;font-size:24px;"">Correct :)</p>","",""
"2706","key","v","v","16.667092024540082","500","250","psychophysics","429","1232641","0.0-429.0","6106e56a30bffe5aa77176ee","6213d22a43b6641d8941d8ca","7","","","","","1","1"
"null","","","null","","","","html-keyboard-response","430","1233145","0.0-430.0","6106e56a30bffe5aa77176ee","6213d22a43b6641d8941d8ca","","","","","<p style=""color:darkgreen;font-size:24px;"">Correct :)</p>","",""
"2522","key","v","v","16.665756578947796","500","250","psychophysics","431","1235681","0.0-431.0","6106e56a30bffe5aa77176ee","6213d22a43b6641d8941d8ca","7","","","","","0","1"
"null","","","null","","","","html-keyboard-response","432","1236185","0.0-432.0","6106e56a30bffe5aa77176ee","6213d22a43b6641d8941d8ca","","","","","<p style=""color:darkgreen;font-size:24px;"">Correct :)</p>","",""
"2543","key","v","v","16.66693421052677","500","250","psychophysics","433","1238737","0.0-433.0","6106e56a30bffe5aa77176ee","6213d22a43b6641d8941d8ca","7","","","","","0","7"
"null","","","null","","","","html-keyboard-response","434","1239239","0.0-434.0","6106e56a30bffe5aa77176ee","6213d22a43b6641d8941d8ca","","","","","<p style=""color:darkgreen;font-size:24px;"">Correct :)</p>","",""
"2727","key","n","n","16.66844512195122","500","250","psychophysics","435","1241975","0.0-435.0","6106e56a30bffe5aa77176ee","6213d22a43b6641d8941d8ca","7","","","","","1","6"
"null","","","null","","","","html-keyboard-response","436","1242477","0.0-436.0","6106e56a30bffe5aa77176ee","6213d22a43b6641d8941d8ca","","","","","<p style=""color:darkgreen;font-size:24px;"">Correct :)</p>","",""
"2913","key","n","n","16.666280000000928","500","250","psychophysics","437","1245399","0.0-437.0","6106e56a30bffe5aa77176ee","6213d22a43b6641d8941d8ca","7","","","","","0","6"
"null","","","null","","","","html-keyboard-response","438","1245907","0.0-438.0","6106e56a30bffe5aa77176ee","6213d22a43b6641d8941d8ca","","","","","<p style=""color:darkgreen;font-size:24px;"">Correct :)</p>","",""
"2569","key","n","n","16.6677987012988","500","250","psychophysics","439","1248480","0.0-439.0","6106e56a30bffe5aa77176ee","6213d22a43b6641d8941d8ca","7","","","","","1","7"
"null","","","null","","","","html-keyboard-response","440","1248982","0.0-440.0","6106e56a30bffe5aa77176ee","6213d22a43b6641d8941d8ca","","","","","<p style=""color:darkgreen;font-size:24px;"">Correct :)</p>","",""
"2701","key","v","v","16.667809815951653","500","250","psychophysics","441","1251688","0.0-441.0","6106e56a30bffe5aa77176ee","6213d22a43b6641d8941d8ca","7","","","","","0","1"
"null","","","null","","","","html-keyboard-response","442","1252191","0.0-442.0","6106e56a30bffe5aa77176ee","6213d22a43b6641d8941d8ca","","","","","<p style=""color:darkgreen;font-size:24px;"">Correct :)</p>","",""
"2728","key","v","v","16.66784756097562","500","250","psychophysics","443","1254923","0.0-443.0","6106e56a30bffe5aa77176ee","6213d22a43b6641d8941d8ca","7","","","","","0","1"
"null","","","null","","","","html-keyboard-response","444","1255427","0.0-444.0","6106e56a30bffe5aa77176ee","6213d22a43b6641d8941d8ca","","","","","<p style=""color:darkgreen;font-size:24px;"">Correct :)</p>","",""
"2612","key","v","v","16.669253164556032","500","250","psychophysics","445","1258058","0.0-445.0","6106e56a30bffe5aa77176ee","6213d22a43b6641d8941d8ca","7","","","","","0","7"
"null","","","null","","","","html-keyboard-response","446","1258561","0.0-446.0","6106e56a30bffe5aa77176ee","6213d22a43b6641d8941d8ca","","","","","<p style=""color:darkgreen;font-size:24px;"">Correct :)</p>","",""
"2542","key","n","n","16.668738562091757","500","250","psychophysics","447","1261113","0.0-447.0","6106e56a30bffe5aa77176ee","6213d22a43b6641d8941d8ca","7","","","","","1","7"
"null","","","null","","","","html-keyboard-response","448","1261616","0.0-448.0","6106e56a30bffe5aa77176ee","6213d22a43b6641d8941d8ca","","","","","<p style=""color:darkgreen;font-size:24px;"">Correct :)</p>","",""
"2784","key","v","v","16.667458333332824","500","250","psychophysics","449","1264409","0.0-449.0","6106e56a30bffe5aa77176ee","6213d22a43b6641d8941d8ca","7","","","","","0","3"
"null","","","null","","","","html-keyboard-response","450","1264911","0.0-450.0","6106e56a30bffe5aa77176ee","6213d22a43b6641d8941d8ca","","","","","<p style=""color:darkgreen;font-size:24px;"">Correct :)</p>","",""
"2600","key","v","v","16.668724358974334","500","250","psychophysics","451","1267521","0.0-451.0","6106e56a30bffe5aa77176ee","6213d22a43b6641d8941d8ca","7","","","","","1","2"
"null","","","null","","","","html-keyboard-response","452","1268024","0.0-452.0","6106e56a30bffe5aa77176ee","6213d22a43b6641d8941d8ca","","","","","<p style=""color:darkgreen;font-size:24px;"">Correct :)</p>","",""
"2862","key","n","n","16.668924418605627","500","250","psychophysics","453","1270895","0.0-453.0","6106e56a30bffe5aa77176ee","6213d22a43b6641d8941d8ca","7","","","","","0","6"
"null","","","null","","","","html-keyboard-response","454","1271398","0.0-454.0","6106e56a30bffe5aa77176ee","6213d22a43b6641d8941d8ca","","","","","<p style=""color:darkgreen;font-size:24px;"">Correct :)</p>","",""
"2592","key","v","v","16.666929487179285","500","250","psychophysics","455","1274001","0.0-455.0","6106e56a30bffe5aa77176ee","6213d22a43b6641d8941d8ca","7","","","","","1","3"
"null","","","null","","","","html-keyboard-response","456","1274504","0.0-456.0","6106e56a30bffe5aa77176ee","6213d22a43b6641d8941d8ca","","","","","<p style=""color:darkgreen;font-size:24px;"">Correct :)</p>","",""
"2753","key","v","v","16.66627878787871","500","250","psychophysics","457","1277264","0.0-457.0","6106e56a30bffe5aa77176ee","6213d22a43b6641d8941d8ca","7","","","","","0","7"
"null","","","null","","","","html-keyboard-response","458","1277766","0.0-458.0","6106e56a30bffe5aa77176ee","6213d22a43b6641d8941d8ca","","","","","<p style=""color:darkgreen;font-size:24px;"">Correct :)</p>","",""
"2551","key","v","v","16.665188311688397","500","250","psychophysics","459","1280327","0.0-459.0","6106e56a30bffe5aa77176ee","6213d22a43b6641d8941d8ca","7","","","","","1","2"
"null","","","null","","","","html-keyboard-response","460","1280829","0.0-460.0","6106e56a30bffe5aa77176ee","6213d22a43b6641d8941d8ca","","","","","<p style=""color:darkgreen;font-size:24px;"">Correct :)</p>","",""
"2562","key","n","n","16.667000000000712","500","250","psychophysics","461","1283400","0.0-461.0","6106e56a30bffe5aa77176ee","6213d22a43b6641d8941d8ca","7","","","","","0","2"
"null","","","null","","","","html-keyboard-response","462","1283904","0.0-462.0","6106e56a30bffe5aa77176ee","6213d22a43b6641d8941d8ca","","","","","<p style=""color:darkgreen;font-size:24px;"">Correct :)</p>","",""
"2553","key","n","n","16.667869281045046","500","250","psychophysics","463","1286465","0.0-463.0","6106e56a30bffe5aa77176ee","6213d22a43b6641d8941d8ca","7","","","","","1","7"
"null","","","null","","","","html-keyboard-response","464","1286968","0.0-464.0","6106e56a30bffe5aa77176ee","6213d22a43b6641d8941d8ca","","","","","<p style=""color:darkgreen;font-size:24px;"">Correct :)</p>","",""
"2726","key","n","n","16.668475609756836","500","250","psychophysics","465","1289705","0.0-465.0","6106e56a30bffe5aa77176ee","6213d22a43b6641d8941d8ca","7","","","","","0","2"
"null","","","null","","","","html-keyboard-response","466","1290207","0.0-466.0","6106e56a30bffe5aa77176ee","6213d22a43b6641d8941d8ca","","","","","<p style=""color:darkgreen;font-size:24px;"">Correct :)</p>","",""
"2674","key","v","v","16.67029813664491","500","250","psychophysics","467","1292890","0.0-467.0","6106e56a30bffe5aa77176ee","6213d22a43b6641d8941d8ca","7","","","","","0","1"
"null","","","null","","","","html-keyboard-response","468","1293392","0.0-468.0","6106e56a30bffe5aa77176ee","6213d22a43b6641d8941d8ca","","","","","<p style=""color:darkgreen;font-size:24px;"">Correct :)</p>","",""
"2710","key","n","n","16.670147239263425","500","250","psychophysics","469","1296111","0.0-469.0","6106e56a30bffe5aa77176ee","6213d22a43b6641d8941d8ca","7","","","","","0","2"
"null","","","null","","","","html-keyboard-response","470","1296614","0.0-470.0","6106e56a30bffe5aa77176ee","6213d22a43b6641d8941d8ca","","","","","<p style=""color:darkgreen;font-size:24px;"">Correct :)</p>","",""
"3041","key","v","v","16.66806010929028","500","250","psychophysics","471","1299667","0.0-471.0","6106e56a30bffe5aa77176ee","6213d22a43b6641d8941d8ca","7","","","","","1","1"
"null","","","null","","","","html-keyboard-response","472","1300172","0.0-472.0","6106e56a30bffe5aa77176ee","6213d22a43b6641d8941d8ca","","","","","<p style=""color:darkgreen;font-size:24px;"">Correct :)</p>","",""
"2717","key","v","v","16.66871779141062","500","250","psychophysics","473","1302896","0.0-473.0","6106e56a30bffe5aa77176ee","6213d22a43b6641d8941d8ca","7","","","","","1","4"
"null","","","null","","","","html-keyboard-response","474","1303398","0.0-474.0","6106e56a30bffe5aa77176ee","6213d22a43b6641d8941d8ca","","","","","<p style=""color:darkgreen;font-size:24px;"">Correct :)</p>","",""
"2808","key","v","v","16.667443786981963","500","250","psychophysics","475","1306216","0.0-475.0","6106e56a30bffe5aa77176ee","6213d22a43b6641d8941d8ca","7","","","","","1","3"
"null","","","null","","","","html-keyboard-response","476","1306718","0.0-476.0","6106e56a30bffe5aa77176ee","6213d22a43b6641d8941d8ca","","","","","<p style=""color:darkgreen;font-size:24px;"">Correct :)</p>","",""
"2561","key","n","n","16.668935064935464","500","250","psychophysics","477","1309288","0.0-477.0","6106e56a30bffe5aa77176ee","6213d22a43b6641d8941d8ca","7","","","","","0","4"
"null","","","null","","","","html-keyboard-response","478","1309790","0.0-478.0","6106e56a30bffe5aa77176ee","6213d22a43b6641d8941d8ca","","","","","<p style=""color:darkgreen;font-size:24px;"">Correct :)</p>","",""
"2673","key","n","n","16.668490683230402","500","250","psychophysics","479","1312474","0.0-479.0","6106e56a30bffe5aa77176ee","6213d22a43b6641d8941d8ca","7","","","","","1","6"
"null","","","null","","","","html-keyboard-response","480","1312977","0.0-480.0","6106e56a30bffe5aa77176ee","6213d22a43b6641d8941d8ca","","","","","<p style=""color:darkgreen;font-size:24px;"">Correct :)</p>","",""
"2782","key","n","n","16.668682634730093","500","250","psychophysics","481","1315769","0.0-481.0","6106e56a30bffe5aa77176ee","6213d22a43b6641d8941d8ca","7","","","","","0","4"
"null","","","null","","","","html-keyboard-response","482","1316273","0.0-482.0","6106e56a30bffe5aa77176ee","6213d22a43b6641d8941d8ca","","","","","<p style=""color:darkgreen;font-size:24px;"">Correct :)</p>","",""
"2814","key","v","v","16.665278106509053","500","250","psychophysics","483","1319096","0.0-483.0","6106e56a30bffe5aa77176ee","6213d22a43b6641d8941d8ca","7","","","","","1","4"
"null","","","null","","","","html-keyboard-response","484","1319598","0.0-484.0","6106e56a30bffe5aa77176ee","6213d22a43b6641d8941d8ca","","","","","<p style=""color:darkgreen;font-size:24px;"">Correct :)</p>","",""
"2699","key","v","v","16.66583435582797","500","250","psychophysics","485","1322307","0.0-485.0","6106e56a30bffe5aa77176ee","6213d22a43b6641d8941d8ca","7","","","","","1","4"
"null","","","null","","","","html-keyboard-response","486","1322810","0.0-486.0","6106e56a30bffe5aa77176ee","6213d22a43b6641d8941d8ca","","","","","<p style=""color:darkgreen;font-size:24px;"">Correct :)</p>","",""
"2791","key","n","n","16.66748214285638","500","250","psychophysics","487","1325611","0.0-487.0","6106e56a30bffe5aa77176ee","6213d22a43b6641d8941d8ca","7","","","","","1","6"
"null","","","null","","","","html-keyboard-response","488","1326115","0.0-488.0","6106e56a30bffe5aa77176ee","6213d22a43b6641d8941d8ca","","","","","<p style=""color:darkgreen;font-size:24px;"">Correct :)</p>","",""
"2538","key","v","v","16.6666993464045","500","250","psychophysics","489","1328664","0.0-489.0","6106e56a30bffe5aa77176ee","6213d22a43b6641d8941d8ca","7","","","","","1","3"
"null","","","null","","","","html-keyboard-response","490","1329166","0.0-490.0","6106e56a30bffe5aa77176ee","6213d22a43b6641d8941d8ca","","","","","<p style=""color:darkgreen;font-size:24px;"">Correct :)</p>","",""
"2639","key","v","v","16.775360759493566","500","250","psychophysics","491","1331817","0.0-491.0","6106e56a30bffe5aa77176ee","6213d22a43b6641d8941d8ca","7","","","","","0","7"
"null","","","null","","","","html-keyboard-response","492","1332321","0.0-492.0","6106e56a30bffe5aa77176ee","6213d22a43b6641d8941d8ca","","","","","<p style=""color:darkgreen;font-size:24px;"">Correct :)</p>","",""
"2695","key","v","v","16.663814814814458","500","250","psychophysics","493","1335025","0.0-493.0","6106e56a30bffe5aa77176ee","6213d22a43b6641d8941d8ca","7","","","","","0","7"
"null","","","null","","","","html-keyboard-response","494","1335528","0.0-494.0","6106e56a30bffe5aa77176ee","6213d22a43b6641d8941d8ca","","","","","<p style=""color:darkgreen;font-size:24px;"">Correct :)</p>","",""
"2630","key","v","v","16.667518987340994","500","250","psychophysics","495","1338168","0.0-495.0","6106e56a30bffe5aa77176ee","6213d22a43b6641d8941d8ca","7","","","","","1","4"
"null","","","null","","","","html-keyboard-response","496","1338677","0.0-496.0","6106e56a30bffe5aa77176ee","6213d22a43b6641d8941d8ca","","","","","<p style=""color:darkgreen;font-size:24px;"">Correct :)</p>","",""
