"rt","response_type","key_press","response","avg_frame_time","center_x","center_y","trial_type","trial_index","time_elapsed","internal_node_id","pid","sid","phase","guide","targ","resp","stimulus","is5","stim"
"2830","key"," "," ","16.86207058823529","500","250","psychophysics","0","2866","0.0-0.0","610ca99956e755634569a35a","6213cef3e04f86e6111d0eef","","","","","","",""
"3202","key"," "," ","16.659776041666664","500","250","psychophysics","1","6072","0.0-1.0","610ca99956e755634569a35a","6213cef3e04f86e6111d0eef","","","","","","",""
"1986","key"," "," ","16.666000000000004","500","250","psychophysics","2","8063","0.0-2.0","610ca99956e755634569a35a","6213cef3e04f86e6111d0eef","","","","","","",""
"1127","key"," "," ","16.66599999999999","500","250","psychophysics","3","9194","0.0-3.0","610ca99956e755634569a35a","6213cef3e04f86e6111d0eef","","","","","","",""
"10780","key"," "," ","16.666","500","250","psychophysics","4","19979","0.0-4.0","610ca99956e755634569a35a","6213cef3e04f86e6111d0eef","","","","","","",""
"6118","key"," "," ","17.134146067415735","500","250","psychophysics","5","26104","0.0-5.0","610ca99956e755634569a35a","6213cef3e04f86e6111d0eef","","","","","","",""
"2006","key"," "," ","16.803735537190086","500","250","psychophysics","6","28150","0.0-6.0","610ca99956e755634569a35a","6213cef3e04f86e6111d0eef","","","","","","",""
"2733","key"," "," ","16.66600000000001","500","250","psychophysics","7","30890","0.0-7.0","610ca99956e755634569a35a","6213cef3e04f86e6111d0eef","","","","","","",""
"8735","key"," "," ","16.665999999999993","500","250","psychophysics","8","39635","0.0-8.0","610ca99956e755634569a35a","6213cef3e04f86e6111d0eef","0","0","32","29","","",""
"2294","key"," "," ","16.665999999999954","500","250","psychophysics","9","41933","0.0-9.0","610ca99956e755634569a35a","6213cef3e04f86e6111d0eef","","","","","","",""
"1122","key"," "," ","16.666000000000007","500","250","psychophysics","10","43076","0.0-10.0","610ca99956e755634569a35a","6213cef3e04f86e6111d0eef","","","","","","",""
"1884","key"," "," ","16.665999999999972","500","250","psychophysics","11","44966","0.0-11.0","610ca99956e755634569a35a","6213cef3e04f86e6111d0eef","","","","","","",""
"1438","key"," "," ","16.665999999999976","500","250","psychophysics","12","46411","0.0-12.0","610ca99956e755634569a35a","6213cef3e04f86e6111d0eef","","","","","","",""
"1846","key"," "," ","16.666000000000018","500","250","psychophysics","13","48263","0.0-13.0","610ca99956e755634569a35a","6213cef3e04f86e6111d0eef","","","","","","",""
"1734","key"," "," ","16.665999999999958","500","250","psychophysics","14","50011","0.0-14.0","610ca99956e755634569a35a","6213cef3e04f86e6111d0eef","","","","","","",""
"2809","key"," "," ","16.665999999999993","500","250","psychophysics","15","52825","0.0-15.0","610ca99956e755634569a35a","6213cef3e04f86e6111d0eef","","","","","","",""
"1609","key"," "," ","16.666000000000015","500","250","psychophysics","16","54439","0.0-16.0","610ca99956e755634569a35a","6213cef3e04f86e6111d0eef","","","","","","",""
"7096","key"," "," ","16.666000000000007","500","250","psychophysics","17","61540","0.0-17.0","610ca99956e755634569a35a","6213cef3e04f86e6111d0eef","1","0","51","58","","",""
"6285","key"," "," ","16.66600000000001","500","250","psychophysics","18","67831","0.0-18.0","610ca99956e755634569a35a","6213cef3e04f86e6111d0eef","1","5","53","53","","",""
"9890","key"," "," ","16.66599999999999","500","250","psychophysics","19","77730","0.0-19.0","610ca99956e755634569a35a","6213cef3e04f86e6111d0eef","1","0","33","38","","",""
"6835","key"," "," ","16.66600000000003","500","250","psychophysics","20","84570","0.0-20.0","610ca99956e755634569a35a","6213cef3e04f86e6111d0eef","1","5","57","59","","",""
"5788","key"," "," ","16.665999999999997","500","250","psychophysics","21","90364","0.0-21.0","610ca99956e755634569a35a","6213cef3e04f86e6111d0eef","1","0","40","49","","",""
"4739","key"," "," ","16.66600000000001","500","250","psychophysics","22","95113","0.0-22.0","610ca99956e755634569a35a","6213cef3e04f86e6111d0eef","1","5","37","44","","",""
"5732","key"," "," ","16.666000000000018","500","250","psychophysics","23","100860","0.0-23.0","610ca99956e755634569a35a","6213cef3e04f86e6111d0eef","1","0","39","44","","",""
"7356","key"," "," ","16.666000000000007","500","250","psychophysics","24","108229","0.0-24.0","610ca99956e755634569a35a","6213cef3e04f86e6111d0eef","1","5","59","65","","",""
"11667","key"," "," ","16.666","500","250","psychophysics","25","119900","0.0-25.0","610ca99956e755634569a35a","6213cef3e04f86e6111d0eef","1","0","38","49","","",""
"3906","key"," "," ","16.66599999999999","500","250","psychophysics","26","123818","0.0-26.0","610ca99956e755634569a35a","6213cef3e04f86e6111d0eef","1","5","37","34","","",""
"5661","key"," "," ","16.666000000000015","500","250","psychophysics","27","129484","0.0-27.0","610ca99956e755634569a35a","6213cef3e04f86e6111d0eef","1","0","46","48","","",""
"4335","key"," "," ","16.66600000000002","500","250","psychophysics","28","133825","0.0-28.0","610ca99956e755634569a35a","6213cef3e04f86e6111d0eef","1","5","37","38","","",""
"6608","key"," "," ","16.666000000000004","500","250","psychophysics","29","140445","0.0-29.0","610ca99956e755634569a35a","6213cef3e04f86e6111d0eef","1","0","43","56","","",""
"4567","key"," "," ","16.666000000000007","500","250","psychophysics","30","145017","0.0-30.0","610ca99956e755634569a35a","6213cef3e04f86e6111d0eef","1","5","41","39","","",""
"3377","key"," "," ","16.748098522167496","500","250","psychophysics","31","148411","0.0-31.0","610ca99956e755634569a35a","6213cef3e04f86e6111d0eef","1","0","30","34","","",""
"4815","key"," "," ","16.665999999999965","500","250","psychophysics","32","153230","0.0-32.0","610ca99956e755634569a35a","6213cef3e04f86e6111d0eef","1","5","52","48","","",""
"4507","key"," "," ","16.666000000000025","500","250","psychophysics","33","157743","0.0-33.0","610ca99956e755634569a35a","6213cef3e04f86e6111d0eef","1","0","47","47","","",""
"4987","key"," "," ","16.666000000000075","500","250","psychophysics","34","162736","0.0-34.0","610ca99956e755634569a35a","6213cef3e04f86e6111d0eef","1","5","54","51","","",""
"4576","key"," "," ","16.727047619047607","500","250","psychophysics","35","167317","0.0-35.0","610ca99956e755634569a35a","6213cef3e04f86e6111d0eef","1","0","24","43","","",""
"3987","key"," "," ","16.73602521008403","500","250","psychophysics","36","171309","0.0-36.0","610ca99956e755634569a35a","6213cef3e04f86e6111d0eef","1","5","42","41","","",""
"2375","key"," "," ","16.665999999999915","500","250","psychophysics","37","173689","0.0-37.0","610ca99956e755634569a35a","6213cef3e04f86e6111d0eef","","","","","","",""
"2246","key"," "," ","16.666000000000047","500","250","psychophysics","38","175945","0.0-38.0","610ca99956e755634569a35a","6213cef3e04f86e6111d0eef","","","","","","",""
"1209","key"," "," ","16.66600000000023","500","250","psychophysics","39","177159","0.0-39.0","610ca99956e755634569a35a","6213cef3e04f86e6111d0eef","","","","","","",""
"6281","key"," "," ","16.665999999999993","500","250","psychophysics","40","183444","0.0-40.0","610ca99956e755634569a35a","6213cef3e04f86e6111d0eef","2","0","58","66","","",""
"2218","key"," "," ","16.666000000000064","500","250","psychophysics","41","185675","0.0-41.0","610ca99956e755634569a35a","6213cef3e04f86e6111d0eef","","","","","","",""
"2227","key"," "," ","16.665999999999848","500","250","psychophysics","42","187908","0.0-42.0","610ca99956e755634569a35a","6213cef3e04f86e6111d0eef","2","0","21","22","","",""
"1058","key"," "," ","16.665999999999787","500","250","psychophysics","43","188971","0.0-43.0","610ca99956e755634569a35a","6213cef3e04f86e6111d0eef","","","","","","",""
"3187","key"," "," ","16.666000000000015","500","250","psychophysics","44","192174","0.0-44.0","610ca99956e755634569a35a","6213cef3e04f86e6111d0eef","2","0","29","30","","",""
"982","key"," "," ","16.665999999999947","500","250","psychophysics","45","193161","0.0-45.0","610ca99956e755634569a35a","6213cef3e04f86e6111d0eef","","","","","","",""
"4278","key"," "," ","16.666000000000054","500","250","psychophysics","46","197445","0.0-46.0","610ca99956e755634569a35a","6213cef3e04f86e6111d0eef","2","0","38","42","","",""
"941","key"," "," ","16.666000000000036","500","250","psychophysics","47","198392","0.0-47.0","610ca99956e755634569a35a","6213cef3e04f86e6111d0eef","","","","","","",""
"2746","key"," "," ","16.665999999999922","500","250","psychophysics","48","201144","0.0-48.0","610ca99956e755634569a35a","6213cef3e04f86e6111d0eef","2","0","24","28","","",""
"710","key"," "," ","16.666000000000277","500","250","psychophysics","49","201858","0.0-49.0","610ca99956e755634569a35a","6213cef3e04f86e6111d0eef","","","","","","",""
"3035","key"," "," ","16.665999999999983","500","250","psychophysics","50","204907","0.0-50.0","610ca99956e755634569a35a","6213cef3e04f86e6111d0eef","2","0","36","31","","",""
"895","key"," "," ","16.666000000000185","500","250","psychophysics","51","205806","0.0-51.0","610ca99956e755634569a35a","6213cef3e04f86e6111d0eef","","","","","","",""
"3949","key"," "," ","16.66600000000003","500","250","psychophysics","52","209761","0.0-52.0","610ca99956e755634569a35a","6213cef3e04f86e6111d0eef","2","0","38","41","","",""
"1153","key"," "," ","16.66599999999997","500","250","psychophysics","53","210920","0.0-53.0","610ca99956e755634569a35a","6213cef3e04f86e6111d0eef","","","","","","",""
"1618","key"," "," ","16.666000000000167","500","250","psychophysics","54","212542","0.0-54.0","610ca99956e755634569a35a","6213cef3e04f86e6111d0eef","2","0","22","18","","",""
"757","key"," "," ","16.666000000000025","500","250","psychophysics","55","213303","0.0-55.0","610ca99956e755634569a35a","6213cef3e04f86e6111d0eef","","","","","","",""
"6098","key"," "," ","16.66599999999999","500","250","psychophysics","56","219407","0.0-56.0","610ca99956e755634569a35a","6213cef3e04f86e6111d0eef","2","0","54","62","","",""
"1158","key"," "," ","16.66599999999997","500","250","psychophysics","57","220570","0.0-57.0","610ca99956e755634569a35a","6213cef3e04f86e6111d0eef","","","","","","",""
"3632","key"," "," ","16.665999999999986","500","250","psychophysics","58","224208","0.0-58.0","610ca99956e755634569a35a","6213cef3e04f86e6111d0eef","2","0","25","31","","",""
"809","key"," "," ","16.665999999999865","500","250","psychophysics","59","225023","0.0-59.0","610ca99956e755634569a35a","6213cef3e04f86e6111d0eef","","","","","","",""
"1991","key"," "," ","16.665999999999883","500","250","psychophysics","60","227019","0.0-60.0","610ca99956e755634569a35a","6213cef3e04f86e6111d0eef","2","0","35","21","","",""
"746","key"," "," ","16.666000000000086","500","250","psychophysics","61","227769","0.0-61.0","610ca99956e755634569a35a","6213cef3e04f86e6111d0eef","","","","","","",""
"5183","key"," "," ","16.665999999999972","500","250","psychophysics","62","232959","0.0-62.0","610ca99956e755634569a35a","6213cef3e04f86e6111d0eef","2","0","48","54","","",""
"2560","key"," "," ","16.666000000000103","500","250","psychophysics","63","235527","0.0-63.0","610ca99956e755634569a35a","6213cef3e04f86e6111d0eef","","","","","","",""
"10901","key"," "," ","16.69152220520676","500","250","psychophysics","64","246435","0.0-64.0","610ca99956e755634569a35a","6213cef3e04f86e6111d0eef","2","0","27","31","","",""
"672","key"," "," ","16.665999999999677","500","250","psychophysics","65","247110","0.0-65.0","610ca99956e755634569a35a","6213cef3e04f86e6111d0eef","","","","","","",""
"2477","key"," "," ","16.665999999999997","500","250","psychophysics","66","249592","0.0-66.0","610ca99956e755634569a35a","6213cef3e04f86e6111d0eef","2","0","29","28","","",""
"490","key"," "," ","16.666000000000448","500","250","psychophysics","67","250088","0.0-67.0","610ca99956e755634569a35a","6213cef3e04f86e6111d0eef","","","","","","",""
"3567","key"," "," ","16.666000000000036","500","250","psychophysics","68","253660","0.0-68.0","610ca99956e755634569a35a","6213cef3e04f86e6111d0eef","2","0","42","38","","",""
"487","key"," "," ","16.665999999999446","500","250","psychophysics","69","254154","0.0-69.0","610ca99956e755634569a35a","6213cef3e04f86e6111d0eef","","","","","","",""
"2326","key"," "," ","16.66600000000016","500","250","psychophysics","70","256485","0.0-70.0","610ca99956e755634569a35a","6213cef3e04f86e6111d0eef","","","","","","",""
"1465","key"," "," ","16.66599999999978","500","250","psychophysics","71","257956","0.0-71.0","610ca99956e755634569a35a","6213cef3e04f86e6111d0eef","","","","","","",""
"2476","key"," "," ","16.665999999999997","500","250","psychophysics","72","260436","0.0-72.0","610ca99956e755634569a35a","6213cef3e04f86e6111d0eef","3","5","22","25","","",""
"6037","key"," "," ","16.665999999999936","500","250","psychophysics","73","266478","0.0-73.0","610ca99956e755634569a35a","6213cef3e04f86e6111d0eef","3","0","57","60","","",""
"8135","key"," "," ","16.665999999999944","500","250","psychophysics","74","274619","0.0-74.0","610ca99956e755634569a35a","6213cef3e04f86e6111d0eef","3","5","60","59","","",""
"5831","key"," "," ","16.666000000000025","500","250","psychophysics","75","280455","0.0-75.0","610ca99956e755634569a35a","6213cef3e04f86e6111d0eef","3","0","51","57","","",""
"5806","key"," "," ","16.665999999999947","500","250","psychophysics","76","286265","0.0-76.0","610ca99956e755634569a35a","6213cef3e04f86e6111d0eef","3","5","48","42","","",""
"4699","key"," "," ","16.66600000000003","500","250","psychophysics","77","290969","0.0-77.0","610ca99956e755634569a35a","6213cef3e04f86e6111d0eef","3","0","43","48","","",""
"5146","key"," "," ","16.720286644951226","500","250","psychophysics","78","296119","0.0-78.0","610ca99956e755634569a35a","6213cef3e04f86e6111d0eef","3","5","58","52","","",""
"5837","key"," "," ","16.6660000000001","500","250","psychophysics","79","301965","0.0-79.0","610ca99956e755634569a35a","6213cef3e04f86e6111d0eef","3","0","43","60","","",""
"5606","key"," "," ","16.666000000000132","500","250","psychophysics","80","307575","0.0-80.0","610ca99956e755634569a35a","6213cef3e04f86e6111d0eef","3","5","59","57","","",""
"2298","key"," "," ","16.66599999999997","500","250","psychophysics","81","309884","0.0-81.0","610ca99956e755634569a35a","6213cef3e04f86e6111d0eef","3","0","24","26","","",""
"2061","key"," "," ","16.666000000000043","500","250","psychophysics","82","311951","0.0-82.0","610ca99956e755634569a35a","6213cef3e04f86e6111d0eef","3","5","20","20","","",""
"6707","key"," "," ","16.666000000000047","500","250","psychophysics","83","318664","0.0-83.0","610ca99956e755634569a35a","6213cef3e04f86e6111d0eef","3","0","57","66","","",""
"5395","key"," "," ","16.665999999999872","500","250","psychophysics","84","324064","0.0-84.0","610ca99956e755634569a35a","6213cef3e04f86e6111d0eef","3","5","59","53","","",""
"3614","key"," "," ","16.665999999999865","500","250","psychophysics","85","327684","0.0-85.0","610ca99956e755634569a35a","6213cef3e04f86e6111d0eef","3","0","35","38","","",""
"3741","key"," "," ","16.666000000000036","500","250","psychophysics","86","331430","0.0-86.0","610ca99956e755634569a35a","6213cef3e04f86e6111d0eef","3","5","32","37","","",""
"2588","key"," "," ","16.666000000000086","500","250","psychophysics","87","334022","0.0-87.0","610ca99956e755634569a35a","6213cef3e04f86e6111d0eef","3","0","24","27","","",""
"5947","key"," "," ","16.665999999999965","500","250","psychophysics","88","339983","0.0-88.0","610ca99956e755634569a35a","6213cef3e04f86e6111d0eef","3","5","59","55","","",""
"4678","key"," "," ","16.666000000000142","500","250","psychophysics","89","344668","0.0-89.0","610ca99956e755634569a35a","6213cef3e04f86e6111d0eef","3","0","32","43","","",""
"5731","key"," "," ","16.666000000000068","500","250","psychophysics","90","350403","0.0-90.0","610ca99956e755634569a35a","6213cef3e04f86e6111d0eef","3","5","59","58","","",""
"2524","key"," "," ","16.665999999999944","500","250","psychophysics","91","352932","0.0-91.0","610ca99956e755634569a35a","6213cef3e04f86e6111d0eef","3","0","22","27","","",""
"1951","key"," "," ","16.665999999999947","500","250","psychophysics","92","354887","0.0-92.0","610ca99956e755634569a35a","6213cef3e04f86e6111d0eef","","","","","","",""
"24355","","","v","","","","html-keyboard-response","93","379246","0.0-93.0","610ca99956e755634569a35a","6213cef3e04f86e6111d0eef","","","","","<p> In this part of the experiment, we are going present digits 1, 2, 3, 4, 6, 7, 8, and 9.  Notice that 5 is missing.  Your job is to say whether the presented digit is less than or greater than 5.  For example, 3 is less than 5 and 7 is greater than 5.  If the digit is less than 5, press the v key; if it is greater than 5, press the n key. We are going to do 200 of these in total, but only 50 righ now. They go real fast.</p>  <br><br>  Ready? (press v or n)","",""
"2535","key","v","v","16.66600000000029","500","250","psychophysics","94","381789","0.0-94.0","610ca99956e755634569a35a","6213cef3e04f86e6111d0eef","4","","","","","1","2"
"null","","","null","","","","html-keyboard-response","95","382293","0.0-95.0","610ca99956e755634569a35a","6213cef3e04f86e6111d0eef","","","","","<p style=""color:darkgreen;font-size:24px;"">Correct :)</p>","",""
"2511","key","v","v","16.665999999999944","500","250","psychophysics","96","384817","0.0-96.0","610ca99956e755634569a35a","6213cef3e04f86e6111d0eef","4","","","","","1","1"
"null","","","null","","","","html-keyboard-response","97","385320","0.0-97.0","610ca99956e755634569a35a","6213cef3e04f86e6111d0eef","","","","","<p style=""color:darkgreen;font-size:24px;"">Correct :)</p>","",""
"2446","key","n","n","16.66600000000001","500","250","psychophysics","98","387772","0.0-98.0","610ca99956e755634569a35a","6213cef3e04f86e6111d0eef","4","","","","","1","7"
"null","","","null","","","","html-keyboard-response","99","388277","0.0-99.0","610ca99956e755634569a35a","6213cef3e04f86e6111d0eef","","","","","<p style=""color:darkgreen;font-size:24px;"">Correct :)</p>","",""
"2372","key","n","n","16.782545454545726","500","250","psychophysics","100","390680","0.0-100.0","610ca99956e755634569a35a","6213cef3e04f86e6111d0eef","4","","","","","1","9"
"null","","","null","","","","html-keyboard-response","101","391183","0.0-101.0","610ca99956e755634569a35a","6213cef3e04f86e6111d0eef","","","","","<p style=""color:darkgreen;font-size:24px;"">Correct :)</p>","",""
"2633","key","v","v","16.66599999999982","500","250","psychophysics","102","393821","0.0-102.0","610ca99956e755634569a35a","6213cef3e04f86e6111d0eef","4","","","","","1","4"
"null","","","null","","","","html-keyboard-response","103","394325","0.0-103.0","610ca99956e755634569a35a","6213cef3e04f86e6111d0eef","","","","","<p style=""color:darkgreen;font-size:24px;"">Correct :)</p>","",""
"2805","key","n","n","16.665999999999865","500","250","psychophysics","104","397136","0.0-104.0","610ca99956e755634569a35a","6213cef3e04f86e6111d0eef","4","","","","","1","6"
"null","","","null","","","","html-keyboard-response","105","397639","0.0-105.0","610ca99956e755634569a35a","6213cef3e04f86e6111d0eef","","","","","<p style=""color:darkgreen;font-size:24px;"">Correct :)</p>","",""
"2577","key","n","n","16.66599999999988","500","250","psychophysics","106","400221","0.0-106.0","610ca99956e755634569a35a","6213cef3e04f86e6111d0eef","4","","","","","1","7"
"null","","","null","","","","html-keyboard-response","107","400724","0.0-107.0","610ca99956e755634569a35a","6213cef3e04f86e6111d0eef","","","","","<p style=""color:darkgreen;font-size:24px;"">Correct :)</p>","",""
"2363","key","v","v","16.665999999999897","500","250","psychophysics","108","403092","0.0-108.0","610ca99956e755634569a35a","6213cef3e04f86e6111d0eef","4","","","","","1","3"
"null","","","null","","","","html-keyboard-response","109","403596","0.0-109.0","610ca99956e755634569a35a","6213cef3e04f86e6111d0eef","","","","","<p style=""color:darkgreen;font-size:24px;"">Correct :)</p>","",""
"2502","key","n","n","16.77710666666661","500","250","psychophysics","110","406105","0.0-110.0","610ca99956e755634569a35a","6213cef3e04f86e6111d0eef","4","","","","","1","6"
"null","","","null","","","","html-keyboard-response","111","406609","0.0-111.0","610ca99956e755634569a35a","6213cef3e04f86e6111d0eef","","","","","<p style=""color:darkgreen;font-size:24px;"">Correct :)</p>","",""
"2488","key","n","n","16.665999999999766","500","250","psychophysics","112","409104","0.0-112.0","610ca99956e755634569a35a","6213cef3e04f86e6111d0eef","4","","","","","1","9"
"null","","","null","","","","html-keyboard-response","113","409607","0.0-113.0","610ca99956e755634569a35a","6213cef3e04f86e6111d0eef","","","","","<p style=""color:darkgreen;font-size:24px;"">Correct :)</p>","",""
"2513","key","n","n","16.775644736842015","500","250","psychophysics","114","412152","0.0-114.0","610ca99956e755634569a35a","6213cef3e04f86e6111d0eef","4","","","","","1","7"
"null","","","null","","","","html-keyboard-response","115","412657","0.0-115.0","610ca99956e755634569a35a","6213cef3e04f86e6111d0eef","","","","","<p style=""color:darkgreen;font-size:24px;"">Correct :)</p>","",""
"2581","key","n","n","16.66599999999988","500","250","psychophysics","116","415243","0.0-116.0","610ca99956e755634569a35a","6213cef3e04f86e6111d0eef","4","","","","","1","6"
"null","","","null","","","","html-keyboard-response","117","415748","0.0-117.0","610ca99956e755634569a35a","6213cef3e04f86e6111d0eef","","","","","<p style=""color:darkgreen;font-size:24px;"">Correct :)</p>","",""
"2489","key","v","v","16.665999999999766","500","250","psychophysics","118","418245","0.0-118.0","610ca99956e755634569a35a","6213cef3e04f86e6111d0eef","4","","","","","1","3"
"null","","","null","","","","html-keyboard-response","119","418747","0.0-119.0","610ca99956e755634569a35a","6213cef3e04f86e6111d0eef","","","","","<p style=""color:darkgreen;font-size:24px;"">Correct :)</p>","",""
"2499","key","n","n","16.665999999999944","500","250","psychophysics","120","421253","0.0-120.0","610ca99956e755634569a35a","6213cef3e04f86e6111d0eef","4","","","","","1","8"
"null","","","null","","","","html-keyboard-response","121","421758","0.0-121.0","610ca99956e755634569a35a","6213cef3e04f86e6111d0eef","","","","","<p style=""color:darkgreen;font-size:24px;"">Correct :)</p>","",""
"2559","key","v","v","16.666000000000086","500","250","psychophysics","122","424323","0.0-122.0","610ca99956e755634569a35a","6213cef3e04f86e6111d0eef","4","","","","","1","3"
"null","","","null","","","","html-keyboard-response","123","424827","0.0-123.0","610ca99956e755634569a35a","6213cef3e04f86e6111d0eef","","","","","<p style=""color:darkgreen;font-size:24px;"">Correct :)</p>","",""
"2499","key","v","v","16.776370860927273","500","250","psychophysics","124","427358","0.0-124.0","610ca99956e755634569a35a","6213cef3e04f86e6111d0eef","4","","","","","1","3"
"null","","","null","","","","html-keyboard-response","125","427862","0.0-125.0","610ca99956e755634569a35a","6213cef3e04f86e6111d0eef","","","","","<p style=""color:darkgreen;font-size:24px;"">Correct :)</p>","",""
"2490","key","n","n","16.666000000000157","500","250","psychophysics","126","430365","0.0-126.0","610ca99956e755634569a35a","6213cef3e04f86e6111d0eef","4","","","","","1","6"
"null","","","null","","","","html-keyboard-response","127","430867","0.0-127.0","610ca99956e755634569a35a","6213cef3e04f86e6111d0eef","","","","","<p style=""color:darkgreen;font-size:24px;"">Correct :)</p>","",""
"2379","key","n","n","16.666000000000086","500","250","psychophysics","128","433252","0.0-128.0","610ca99956e755634569a35a","6213cef3e04f86e6111d0eef","4","","","","","1","2"
"null","","","null","","","","html-keyboard-response","129","433757","0.0-129.0","610ca99956e755634569a35a","6213cef3e04f86e6111d0eef","","","","","<p style=""color:red;font-size:24px;"">Error :(</p>","",""
"2640","key","n","n","16.770817610062878","500","250","psychophysics","130","436429","0.0-130.0","610ca99956e755634569a35a","6213cef3e04f86e6111d0eef","4","","","","","1","8"
"null","","","null","","","","html-keyboard-response","131","436934","0.0-131.0","610ca99956e755634569a35a","6213cef3e04f86e6111d0eef","","","","","<p style=""color:darkgreen;font-size:24px;"">Correct :)</p>","",""
"2527","key","v","v","16.665999999999737","500","250","psychophysics","132","439467","0.0-132.0","610ca99956e755634569a35a","6213cef3e04f86e6111d0eef","4","","","","","1","2"
"null","","","null","","","","html-keyboard-response","133","439971","0.0-133.0","610ca99956e755634569a35a","6213cef3e04f86e6111d0eef","","","","","<p style=""color:darkgreen;font-size:24px;"">Correct :)</p>","",""
"2491","key","v","v","16.665999999999766","500","250","psychophysics","134","442468","0.0-134.0","610ca99956e755634569a35a","6213cef3e04f86e6111d0eef","4","","","","","1","2"
"null","","","null","","","","html-keyboard-response","135","442973","0.0-135.0","610ca99956e755634569a35a","6213cef3e04f86e6111d0eef","","","","","<p style=""color:darkgreen;font-size:24px;"">Correct :)</p>","",""
"2472","key","n","n","16.66599999999998","500","250","psychophysics","136","445451","0.0-136.0","610ca99956e755634569a35a","6213cef3e04f86e6111d0eef","4","","","","","1","6"
"null","","","null","","","","html-keyboard-response","137","445954","0.0-137.0","610ca99956e755634569a35a","6213cef3e04f86e6111d0eef","","","","","<p style=""color:darkgreen;font-size:24px;"">Correct :)</p>","",""
"2457","key","v","v","16.666000000000192","500","250","psychophysics","138","448424","0.0-138.0","610ca99956e755634569a35a","6213cef3e04f86e6111d0eef","4","","","","","1","3"
"null","","","null","","","","html-keyboard-response","139","448927","0.0-139.0","610ca99956e755634569a35a","6213cef3e04f86e6111d0eef","","","","","<p style=""color:darkgreen;font-size:24px;"">Correct :)</p>","",""
"2659","key","n","n","16.665999999999986","500","250","psychophysics","140","451593","0.0-140.0","610ca99956e755634569a35a","6213cef3e04f86e6111d0eef","4","","","","","1","8"
"null","","","null","","","","html-keyboard-response","141","452095","0.0-141.0","610ca99956e755634569a35a","6213cef3e04f86e6111d0eef","","","","","<p style=""color:darkgreen;font-size:24px;"">Correct :)</p>","",""
"2545","key","n","n","16.66599999999991","500","250","psychophysics","142","454659","0.0-142.0","610ca99956e755634569a35a","6213cef3e04f86e6111d0eef","4","","","","","1","7"
"null","","","null","","","","html-keyboard-response","143","455162","0.0-143.0","610ca99956e755634569a35a","6213cef3e04f86e6111d0eef","","","","","<p style=""color:darkgreen;font-size:24px;"">Correct :)</p>","",""
"2474","key","v","v","16.665999999999798","500","250","psychophysics","144","457643","0.0-144.0","610ca99956e755634569a35a","6213cef3e04f86e6111d0eef","4","","","","","1","2"
"null","","","null","","","","html-keyboard-response","145","458146","0.0-145.0","610ca99956e755634569a35a","6213cef3e04f86e6111d0eef","","","","","<p style=""color:darkgreen;font-size:24px;"">Correct :)</p>","",""
"2513","key","n","n","16.665999999999944","500","250","psychophysics","146","460665","0.0-146.0","610ca99956e755634569a35a","6213cef3e04f86e6111d0eef","4","","","","","1","7"
"null","","","null","","","","html-keyboard-response","147","461169","0.0-147.0","610ca99956e755634569a35a","6213cef3e04f86e6111d0eef","","","","","<p style=""color:darkgreen;font-size:24px;"">Correct :)</p>","",""
"2474","key","n","n","16.66599999999998","500","250","psychophysics","148","463650","0.0-148.0","610ca99956e755634569a35a","6213cef3e04f86e6111d0eef","4","","","","","1","8"
"null","","","null","","","","html-keyboard-response","149","464153","0.0-149.0","610ca99956e755634569a35a","6213cef3e04f86e6111d0eef","","","","","<p style=""color:darkgreen;font-size:24px;"">Correct :)</p>","",""
"2515","key","n","n","16.665999999999944","500","250","psychophysics","150","466678","0.0-150.0","610ca99956e755634569a35a","6213cef3e04f86e6111d0eef","4","","","","","1","9"
"null","","","null","","","","html-keyboard-response","151","467183","0.0-151.0","610ca99956e755634569a35a","6213cef3e04f86e6111d0eef","","","","","<p style=""color:darkgreen;font-size:24px;"">Correct :)</p>","",""
"2426","key","n","n","16.66600000000023","500","250","psychophysics","152","469615","0.0-152.0","610ca99956e755634569a35a","6213cef3e04f86e6111d0eef","4","","","","","1","7"
"null","","","null","","","","html-keyboard-response","153","470118","0.0-153.0","610ca99956e755634569a35a","6213cef3e04f86e6111d0eef","","","","","<p style=""color:darkgreen;font-size:24px;"">Correct :)</p>","",""
"2620","key","n","n","16.665999999999848","500","250","psychophysics","154","472743","0.0-154.0","610ca99956e755634569a35a","6213cef3e04f86e6111d0eef","4","","","","","1","6"
"null","","","null","","","","html-keyboard-response","155","473246","0.0-155.0","610ca99956e755634569a35a","6213cef3e04f86e6111d0eef","","","","","<p style=""color:darkgreen;font-size:24px;"">Correct :)</p>","",""
"2578","key","v","v","16.66599999999988","500","250","psychophysics","156","475831","0.0-156.0","610ca99956e755634569a35a","6213cef3e04f86e6111d0eef","4","","","","","1","2"
"null","","","null","","","","html-keyboard-response","157","476334","0.0-157.0","610ca99956e755634569a35a","6213cef3e04f86e6111d0eef","","","","","<p style=""color:darkgreen;font-size:24px;"">Correct :)</p>","",""
"2594","key","v","v","16.66600000000005","500","250","psychophysics","158","478934","0.0-158.0","610ca99956e755634569a35a","6213cef3e04f86e6111d0eef","4","","","","","1","3"
"null","","","null","","","","html-keyboard-response","159","479438","0.0-159.0","610ca99956e755634569a35a","6213cef3e04f86e6111d0eef","","","","","<p style=""color:darkgreen;font-size:24px;"">Correct :)</p>","",""
"2565","key","n","n","16.666000000000086","500","250","psychophysics","160","482010","0.0-160.0","610ca99956e755634569a35a","6213cef3e04f86e6111d0eef","4","","","","","1","4"
"null","","","null","","","","html-keyboard-response","161","482515","0.0-161.0","610ca99956e755634569a35a","6213cef3e04f86e6111d0eef","","","","","<p style=""color:red;font-size:24px;"">Error :(</p>","",""
"2577","key","v","v","16.66599999999988","500","250","psychophysics","162","485097","0.0-162.0","610ca99956e755634569a35a","6213cef3e04f86e6111d0eef","4","","","","","1","4"
"null","","","null","","","","html-keyboard-response","163","485600","0.0-163.0","610ca99956e755634569a35a","6213cef3e04f86e6111d0eef","","","","","<p style=""color:darkgreen;font-size:24px;"">Correct :)</p>","",""
"2437","key","v","v","16.66600000000023","500","250","psychophysics","164","488043","0.0-164.0","610ca99956e755634569a35a","6213cef3e04f86e6111d0eef","4","","","","","1","1"
"null","","","null","","","","html-keyboard-response","165","488547","0.0-165.0","610ca99956e755634569a35a","6213cef3e04f86e6111d0eef","","","","","<p style=""color:darkgreen;font-size:24px;"">Correct :)</p>","",""
"2666","key","v","v","16.665999999999986","500","250","psychophysics","166","491219","0.0-166.0","610ca99956e755634569a35a","6213cef3e04f86e6111d0eef","4","","","","","1","3"
"null","","","null","","","","html-keyboard-response","167","491723","0.0-167.0","610ca99956e755634569a35a","6213cef3e04f86e6111d0eef","","","","","<p style=""color:darkgreen;font-size:24px;"">Correct :)</p>","",""
"2634","key","n","n","16.66599999999982","500","250","psychophysics","168","494363","0.0-168.0","610ca99956e755634569a35a","6213cef3e04f86e6111d0eef","4","","","","","1","9"
"null","","","null","","","","html-keyboard-response","169","494866","0.0-169.0","610ca99956e755634569a35a","6213cef3e04f86e6111d0eef","","","","","<p style=""color:darkgreen;font-size:24px;"">Correct :)</p>","",""
"3079","key","n","n","16.665999999999798","500","250","psychophysics","170","497951","0.0-170.0","610ca99956e755634569a35a","6213cef3e04f86e6111d0eef","4","","","","","1","7"
"null","","","null","","","","html-keyboard-response","171","498456","0.0-171.0","610ca99956e755634569a35a","6213cef3e04f86e6111d0eef","","","","","<p style=""color:darkgreen;font-size:24px;"">Correct :)</p>","",""
"2433","key","n","n","16.66599999999983","500","250","psychophysics","172","500894","0.0-172.0","610ca99956e755634569a35a","6213cef3e04f86e6111d0eef","4","","","","","1","9"
"null","","","null","","","","html-keyboard-response","173","501397","0.0-173.0","610ca99956e755634569a35a","6213cef3e04f86e6111d0eef","","","","","<p style=""color:darkgreen;font-size:24px;"">Correct :)</p>","",""
"2506","key","n","n","16.666000000000157","500","250","psychophysics","174","503909","0.0-174.0","610ca99956e755634569a35a","6213cef3e04f86e6111d0eef","4","","","","","1","7"
"null","","","null","","","","html-keyboard-response","175","504413","0.0-175.0","610ca99956e755634569a35a","6213cef3e04f86e6111d0eef","","","","","<p style=""color:darkgreen;font-size:24px;"">Correct :)</p>","",""
"2474","key","n","n","16.666000000000192","500","250","psychophysics","176","506893","0.0-176.0","610ca99956e755634569a35a","6213cef3e04f86e6111d0eef","4","","","","","1","6"
"null","","","null","","","","html-keyboard-response","177","507396","0.0-177.0","610ca99956e755634569a35a","6213cef3e04f86e6111d0eef","","","","","<p style=""color:darkgreen;font-size:24px;"">Correct :)</p>","",""
"2551","key","n","n","16.66599999999991","500","250","psychophysics","178","509954","0.0-178.0","610ca99956e755634569a35a","6213cef3e04f86e6111d0eef","4","","","","","1","6"
"null","","","null","","","","html-keyboard-response","179","510457","0.0-179.0","610ca99956e755634569a35a","6213cef3e04f86e6111d0eef","","","","","<p style=""color:darkgreen;font-size:24px;"">Correct :)</p>","",""
"2797","key","v","v","16.666000000000054","500","250","psychophysics","180","513259","0.0-180.0","610ca99956e755634569a35a","6213cef3e04f86e6111d0eef","4","","","","","1","4"
"null","","","null","","","","html-keyboard-response","181","513761","0.0-181.0","610ca99956e755634569a35a","6213cef3e04f86e6111d0eef","","","","","<p style=""color:darkgreen;font-size:24px;"">Correct :)</p>","",""
"2556","key","n","n","16.66599999999991","500","250","psychophysics","182","516321","0.0-182.0","610ca99956e755634569a35a","6213cef3e04f86e6111d0eef","4","","","","","1","7"
"null","","","null","","","","html-keyboard-response","183","516825","0.0-183.0","610ca99956e755634569a35a","6213cef3e04f86e6111d0eef","","","","","<p style=""color:darkgreen;font-size:24px;"">Correct :)</p>","",""
"3310","key","v","v","16.66599999999979","500","250","psychophysics","184","520141","0.0-184.0","610ca99956e755634569a35a","6213cef3e04f86e6111d0eef","4","","","","","1","1"
"null","","","null","","","","html-keyboard-response","185","520644","0.0-185.0","610ca99956e755634569a35a","6213cef3e04f86e6111d0eef","","","","","<p style=""color:darkgreen;font-size:24px;"">Correct :)</p>","",""
"2456","key","n","n","16.66600000000001","500","250","psychophysics","186","523106","0.0-186.0","610ca99956e755634569a35a","6213cef3e04f86e6111d0eef","4","","","","","1","7"
"null","","","null","","","","html-keyboard-response","187","523611","0.0-187.0","610ca99956e755634569a35a","6213cef3e04f86e6111d0eef","","","","","<p style=""color:darkgreen;font-size:24px;"">Correct :)</p>","",""
"2412","key","n","n","16.665999999999645","500","250","psychophysics","188","526029","0.0-188.0","610ca99956e755634569a35a","6213cef3e04f86e6111d0eef","4","","","","","1","1"
"null","","","null","","","","html-keyboard-response","189","526532","0.0-189.0","610ca99956e755634569a35a","6213cef3e04f86e6111d0eef","","","","","<p style=""color:red;font-size:24px;"">Error :(</p>","",""
"2604","key","n","n","16.665999999999677","500","250","psychophysics","190","529141","0.0-190.0","610ca99956e755634569a35a","6213cef3e04f86e6111d0eef","4","","","","","1","9"
"null","","","null","","","","html-keyboard-response","191","529646","0.0-191.0","610ca99956e755634569a35a","6213cef3e04f86e6111d0eef","","","","","<p style=""color:darkgreen;font-size:24px;"">Correct :)</p>","",""
"2708","key","v","v","16.66599999999976","500","250","psychophysics","192","532360","0.0-192.0","610ca99956e755634569a35a","6213cef3e04f86e6111d0eef","4","","","","","1","4"
"null","","","null","","","","html-keyboard-response","193","532865","0.0-193.0","610ca99956e755634569a35a","6213cef3e04f86e6111d0eef","","","","","<p style=""color:darkgreen;font-size:24px;"">Correct :)</p>","",""
"18602","","","v","","","","html-keyboard-response","194","551468","0.0-194.0","610ca99956e755634569a35a","6213cef3e04f86e6111d0eef","","","","","<p> Ok, now we are going present the same digits as before.  Your job is to say whether the digit is even or odd  If the digit is odd, press to v key; if it is even, press the n key. We are going to do 50 of these.  </p>  <br><br>  Ready? (press v or n)","",""
"3226","key","v","v","16.66599999999954","500","250","psychophysics","195","554699","0.0-195.0","610ca99956e755634569a35a","6213cef3e04f86e6111d0eef","5","","","","","0","1"
"null","","","null","","","","html-keyboard-response","196","555202","0.0-196.0","610ca99956e755634569a35a","6213cef3e04f86e6111d0eef","","","","","<p style=""color:darkgreen;font-size:24px;"">Correct :)</p>","",""
"2515","key","n","n","16.6660000000005","500","250","psychophysics","197","557723","0.0-197.0","610ca99956e755634569a35a","6213cef3e04f86e6111d0eef","5","","","","","0","8"
"null","","","null","","","","html-keyboard-response","198","558226","0.0-198.0","610ca99956e755634569a35a","6213cef3e04f86e6111d0eef","","","","","<p style=""color:darkgreen;font-size:24px;"">Correct :)</p>","",""
"2601","key","v","v","16.665999999999677","500","250","psychophysics","199","560833","0.0-199.0","610ca99956e755634569a35a","6213cef3e04f86e6111d0eef","5","","","","","0","9"
"null","","","null","","","","html-keyboard-response","200","561337","0.0-200.0","610ca99956e755634569a35a","6213cef3e04f86e6111d0eef","","","","","<p style=""color:darkgreen;font-size:24px;"">Correct :)</p>","",""
"2525","key","n","n","16.665999999999944","500","250","psychophysics","201","563867","0.0-201.0","610ca99956e755634569a35a","6213cef3e04f86e6111d0eef","5","","","","","0","9"
"null","","","null","","","","html-keyboard-response","202","564369","0.0-202.0","610ca99956e755634569a35a","6213cef3e04f86e6111d0eef","","","","","<p style=""color:red;font-size:24px;"">Error :(</p>","",""
"637","key","v","v","16.666000000002033","500","250","psychophysics","203","565013","0.0-203.0","610ca99956e755634569a35a","6213cef3e04f86e6111d0eef","5","","","","","0","9"
"null","","","null","","","","html-keyboard-response","204","565516","0.0-204.0","610ca99956e755634569a35a","6213cef3e04f86e6111d0eef","","","","","<p style=""color:darkgreen;font-size:24px;"">Correct :)</p>","",""
"2891","key","v","v","16.762335260115385","500","250","psychophysics","205","568413","0.0-205.0","610ca99956e755634569a35a","6213cef3e04f86e6111d0eef","5","","","","","0","3"
"null","","","null","","","","html-keyboard-response","206","568917","0.0-206.0","610ca99956e755634569a35a","6213cef3e04f86e6111d0eef","","","","","<p style=""color:darkgreen;font-size:24px;"">Correct :)</p>","",""
"2604","key","n","n","16.66600000000022","500","250","psychophysics","207","571526","0.0-207.0","610ca99956e755634569a35a","6213cef3e04f86e6111d0eef","5","","","","","0","4"
"null","","","null","","","","html-keyboard-response","208","572031","0.0-208.0","610ca99956e755634569a35a","6213cef3e04f86e6111d0eef","","","","","<p style=""color:darkgreen;font-size:24px;"">Correct :)</p>","",""
"3048","key","v","v","16.666000000000142","500","250","psychophysics","209","575085","0.0-209.0","610ca99956e755634569a35a","6213cef3e04f86e6111d0eef","5","","","","","0","7"
"null","","","null","","","","html-keyboard-response","210","575588","0.0-210.0","610ca99956e755634569a35a","6213cef3e04f86e6111d0eef","","","","","<p style=""color:darkgreen;font-size:24px;"">Correct :)</p>","",""
"2510","key","v","v","16.666000000000157","500","250","psychophysics","211","578104","0.0-211.0","610ca99956e755634569a35a","6213cef3e04f86e6111d0eef","5","","","","","0","3"
"null","","","null","","","","html-keyboard-response","212","578606","0.0-212.0","610ca99956e755634569a35a","6213cef3e04f86e6111d0eef","","","","","<p style=""color:darkgreen;font-size:24px;"">Correct :)</p>","",""
"2572","key","n","n","16.666000000000086","500","250","psychophysics","213","581184","0.0-213.0","610ca99956e755634569a35a","6213cef3e04f86e6111d0eef","5","","","","","0","8"
"null","","","null","","","","html-keyboard-response","214","581686","0.0-214.0","610ca99956e755634569a35a","6213cef3e04f86e6111d0eef","","","","","<p style=""color:darkgreen;font-size:24px;"">Correct :)</p>","",""
"2462","key","v","v","16.66600000000001","500","250","psychophysics","215","584153","0.0-215.0","610ca99956e755634569a35a","6213cef3e04f86e6111d0eef","5","","","","","0","3"
"null","","","null","","","","html-keyboard-response","216","584657","0.0-216.0","610ca99956e755634569a35a","6213cef3e04f86e6111d0eef","","","","","<p style=""color:darkgreen;font-size:24px;"">Correct :)</p>","",""
"2701","key","n","n","16.665999999999954","500","250","psychophysics","217","587364","0.0-217.0","610ca99956e755634569a35a","6213cef3e04f86e6111d0eef","5","","","","","0","6"
"null","","","null","","","","html-keyboard-response","218","587867","0.0-218.0","610ca99956e755634569a35a","6213cef3e04f86e6111d0eef","","","","","<p style=""color:darkgreen;font-size:24px;"">Correct :)</p>","",""
"2527","key","v","v","16.665999999999944","500","250","psychophysics","219","590401","0.0-219.0","610ca99956e755634569a35a","6213cef3e04f86e6111d0eef","5","","","","","0","1"
"null","","","null","","","","html-keyboard-response","220","590905","0.0-220.0","610ca99956e755634569a35a","6213cef3e04f86e6111d0eef","","","","","<p style=""color:darkgreen;font-size:24px;"">Correct :)</p>","",""
"2677","key","n","n","16.66600000000015","500","250","psychophysics","221","593588","0.0-221.0","610ca99956e755634569a35a","6213cef3e04f86e6111d0eef","5","","","","","0","6"
"null","","","null","","","","html-keyboard-response","222","594090","0.0-222.0","610ca99956e755634569a35a","6213cef3e04f86e6111d0eef","","","","","<p style=""color:darkgreen;font-size:24px;"">Correct :)</p>","",""
"3089","key","v","v","16.666000000000427","500","250","psychophysics","223","597185","0.0-223.0","610ca99956e755634569a35a","6213cef3e04f86e6111d0eef","5","","","","","0","9"
"null","","","null","","","","html-keyboard-response","224","597688","0.0-224.0","610ca99956e755634569a35a","6213cef3e04f86e6111d0eef","","","","","<p style=""color:darkgreen;font-size:24px;"">Correct :)</p>","",""
"2558","key","n","n","16.666000000000086","500","250","psychophysics","225","600253","0.0-225.0","610ca99956e755634569a35a","6213cef3e04f86e6111d0eef","5","","","","","0","6"
"null","","","null","","","","html-keyboard-response","226","600757","0.0-226.0","610ca99956e755634569a35a","6213cef3e04f86e6111d0eef","","","","","<p style=""color:darkgreen;font-size:24px;"">Correct :)</p>","",""
"2564","key","v","v","16.666000000000086","500","250","psychophysics","227","603325","0.0-227.0","610ca99956e755634569a35a","6213cef3e04f86e6111d0eef","5","","","","","0","7"
"null","","","null","","","","html-keyboard-response","228","603829","0.0-228.0","610ca99956e755634569a35a","6213cef3e04f86e6111d0eef","","","","","<p style=""color:darkgreen;font-size:24px;"">Correct :)</p>","",""
"2814","key","n","n","16.66600000000002","500","250","psychophysics","229","606648","0.0-229.0","610ca99956e755634569a35a","6213cef3e04f86e6111d0eef","5","","","","","0","2"
"null","","","null","","","","html-keyboard-response","230","607151","0.0-230.0","610ca99956e755634569a35a","6213cef3e04f86e6111d0eef","","","","","<p style=""color:darkgreen;font-size:24px;"">Correct :)</p>","",""
"2933","key","n","n","16.665999999999425","500","250","psychophysics","231","610087","0.0-231.0","610ca99956e755634569a35a","6213cef3e04f86e6111d0eef","5","","","","","0","6"
"null","","","null","","","","html-keyboard-response","232","610591","0.0-232.0","610ca99956e755634569a35a","6213cef3e04f86e6111d0eef","","","","","<p style=""color:darkgreen;font-size:24px;"">Correct :)</p>","",""
"2556","key","n","n","16.66599999999933","500","250","psychophysics","233","613153","0.0-233.0","610ca99956e755634569a35a","6213cef3e04f86e6111d0eef","5","","","","","0","2"
"null","","","null","","","","html-keyboard-response","234","613655","0.0-234.0","610ca99956e755634569a35a","6213cef3e04f86e6111d0eef","","","","","<p style=""color:darkgreen;font-size:24px;"">Correct :)</p>","",""
"2624","key","n","n","16.665999999999478","500","250","psychophysics","235","616282","0.0-235.0","610ca99956e755634569a35a","6213cef3e04f86e6111d0eef","5","","","","","0","3"
"null","","","null","","","","html-keyboard-response","236","616786","0.0-236.0","610ca99956e755634569a35a","6213cef3e04f86e6111d0eef","","","","","<p style=""color:red;font-size:24px;"">Error :(</p>","",""
"3119","key","n","n","16.665999999999748","500","250","psychophysics","237","619938","0.0-237.0","610ca99956e755634569a35a","6213cef3e04f86e6111d0eef","5","","","","","0","2"
"null","","","null","","","","html-keyboard-response","238","620441","0.0-238.0","610ca99956e755634569a35a","6213cef3e04f86e6111d0eef","","","","","<p style=""color:darkgreen;font-size:24px;"">Correct :)</p>","",""
"2516","key","v","v","16.665999999999944","500","250","psychophysics","239","622961","0.0-239.0","610ca99956e755634569a35a","6213cef3e04f86e6111d0eef","5","","","","","0","1"
"null","","","null","","","","html-keyboard-response","240","623465","0.0-240.0","610ca99956e755634569a35a","6213cef3e04f86e6111d0eef","","","","","<p style=""color:darkgreen;font-size:24px;"">Correct :)</p>","",""
"2523","key","n","n","16.665999999999944","500","250","psychophysics","241","625991","0.0-241.0","610ca99956e755634569a35a","6213cef3e04f86e6111d0eef","5","","","","","0","9"
"null","","","null","","","","html-keyboard-response","242","626494","0.0-242.0","610ca99956e755634569a35a","6213cef3e04f86e6111d0eef","","","","","<p style=""color:red;font-size:24px;"">Error :(</p>","",""
"2688","key","v","v","16.665999999999954","500","250","psychophysics","243","629184","0.0-243.0","610ca99956e755634569a35a","6213cef3e04f86e6111d0eef","5","","","","","0","9"
"null","","","null","","","","html-keyboard-response","244","629689","0.0-244.0","610ca99956e755634569a35a","6213cef3e04f86e6111d0eef","","","","","<p style=""color:darkgreen;font-size:24px;"">Correct :)</p>","",""
"2587","key","n","n","16.666000000000423","500","250","psychophysics","245","632284","0.0-245.0","610ca99956e755634569a35a","6213cef3e04f86e6111d0eef","5","","","","","0","8"
"null","","","null","","","","html-keyboard-response","246","632788","0.0-246.0","610ca99956e755634569a35a","6213cef3e04f86e6111d0eef","","","","","<p style=""color:darkgreen;font-size:24px;"">Correct :)</p>","",""
"2781","key","n","n","16.665999999999705","500","250","psychophysics","247","635578","0.0-247.0","610ca99956e755634569a35a","6213cef3e04f86e6111d0eef","5","","","","","0","4"
"null","","","null","","","","html-keyboard-response","248","636081","0.0-248.0","610ca99956e755634569a35a","6213cef3e04f86e6111d0eef","","","","","<p style=""color:darkgreen;font-size:24px;"">Correct :)</p>","",""
"3080","key","v","v","16.66599999999997","500","250","psychophysics","249","639164","0.0-249.0","610ca99956e755634569a35a","6213cef3e04f86e6111d0eef","5","","","","","0","7"
"null","","","null","","","","html-keyboard-response","250","639667","0.0-250.0","610ca99956e755634569a35a","6213cef3e04f86e6111d0eef","","","","","<p style=""color:darkgreen;font-size:24px;"">Correct :)</p>","",""
"2741","key","n","n","16.666000000000277","500","250","psychophysics","251","642411","0.0-251.0","610ca99956e755634569a35a","6213cef3e04f86e6111d0eef","5","","","","","0","6"
"null","","","null","","","","html-keyboard-response","252","642915","0.0-252.0","610ca99956e755634569a35a","6213cef3e04f86e6111d0eef","","","","","<p style=""color:darkgreen;font-size:24px;"">Correct :)</p>","",""
"3029","key","n","n","16.666000000000494","500","250","psychophysics","253","645947","0.0-253.0","610ca99956e755634569a35a","6213cef3e04f86e6111d0eef","5","","","","","0","4"
"null","","","null","","","","html-keyboard-response","254","646450","0.0-254.0","610ca99956e755634569a35a","6213cef3e04f86e6111d0eef","","","","","<p style=""color:darkgreen;font-size:24px;"">Correct :)</p>","",""
"2808","key","v","v","16.66600000000021","500","250","psychophysics","255","649262","0.0-255.0","610ca99956e755634569a35a","6213cef3e04f86e6111d0eef","5","","","","","0","9"
"null","","","null","","","","html-keyboard-response","256","649765","0.0-256.0","610ca99956e755634569a35a","6213cef3e04f86e6111d0eef","","","","","<p style=""color:darkgreen;font-size:24px;"">Correct :)</p>","",""
"2838","key","v","v","16.665999999999837","500","250","psychophysics","257","652606","0.0-257.0","610ca99956e755634569a35a","6213cef3e04f86e6111d0eef","5","","","","","0","1"
"null","","","null","","","","html-keyboard-response","258","653109","0.0-258.0","610ca99956e755634569a35a","6213cef3e04f86e6111d0eef","","","","","<p style=""color:darkgreen;font-size:24px;"">Correct :)</p>","",""
"3159","key","v","v","16.666000000000196","500","250","psychophysics","259","656271","0.0-259.0","610ca99956e755634569a35a","6213cef3e04f86e6111d0eef","5","","","","","0","9"
"null","","","null","","","","html-keyboard-response","260","656774","0.0-260.0","610ca99956e755634569a35a","6213cef3e04f86e6111d0eef","","","","","<p style=""color:darkgreen;font-size:24px;"">Correct :)</p>","",""
"2669","key","n","n","16.66600000000035","500","250","psychophysics","261","659449","0.0-261.0","610ca99956e755634569a35a","6213cef3e04f86e6111d0eef","5","","","","","0","7"
"null","","","null","","","","html-keyboard-response","262","659952","0.0-262.0","610ca99956e755634569a35a","6213cef3e04f86e6111d0eef","","","","","<p style=""color:red;font-size:24px;"">Error :(</p>","",""
"2714","key","v","v","16.8730310559011","500","250","psychophysics","263","662672","0.0-263.0","610ca99956e755634569a35a","6213cef3e04f86e6111d0eef","5","","","","","0","1"
"null","","","null","","","","html-keyboard-response","264","663176","0.0-264.0","610ca99956e755634569a35a","6213cef3e04f86e6111d0eef","","","","","<p style=""color:darkgreen;font-size:24px;"">Correct :)</p>","",""
"2901","key","n","n","16.665999999999602","500","250","psychophysics","265","666083","0.0-265.0","610ca99956e755634569a35a","6213cef3e04f86e6111d0eef","5","","","","","0","8"
"null","","","null","","","","html-keyboard-response","266","666587","0.0-266.0","610ca99956e755634569a35a","6213cef3e04f86e6111d0eef","","","","","<p style=""color:darkgreen;font-size:24px;"">Correct :)</p>","",""
"3337","key","n","n","16.66599999999961","500","250","psychophysics","267","669930","0.0-267.0","610ca99956e755634569a35a","6213cef3e04f86e6111d0eef","5","","","","","0","4"
"null","","","null","","","","html-keyboard-response","268","670434","0.0-268.0","610ca99956e755634569a35a","6213cef3e04f86e6111d0eef","","","","","<p style=""color:darkgreen;font-size:24px;"">Correct :)</p>","",""
"4104","key","n","n","16.666000000000043","500","250","psychophysics","269","674544","0.0-269.0","610ca99956e755634569a35a","6213cef3e04f86e6111d0eef","5","","","","","0","2"
"null","","","null","","","","html-keyboard-response","270","675047","0.0-270.0","610ca99956e755634569a35a","6213cef3e04f86e6111d0eef","","","","","<p style=""color:darkgreen;font-size:24px;"">Correct :)</p>","",""
"2767","key","n","n","16.665999999999705","500","250","psychophysics","271","677843","0.0-271.0","610ca99956e755634569a35a","6213cef3e04f86e6111d0eef","5","","","","","0","6"
"null","","","null","","","","html-keyboard-response","272","678344","0.0-272.0","610ca99956e755634569a35a","6213cef3e04f86e6111d0eef","","","","","<p style=""color:darkgreen;font-size:24px;"">Correct :)</p>","",""
"2819","key","n","n","16.66600000000002","500","250","psychophysics","273","681167","0.0-273.0","610ca99956e755634569a35a","6213cef3e04f86e6111d0eef","5","","","","","0","4"
"null","","","null","","","","html-keyboard-response","274","681671","0.0-274.0","610ca99956e755634569a35a","6213cef3e04f86e6111d0eef","","","","","<p style=""color:darkgreen;font-size:24px;"">Correct :)</p>","",""
"2501","key","v","v","16.77710666666661","500","250","psychophysics","275","684182","0.0-275.0","610ca99956e755634569a35a","6213cef3e04f86e6111d0eef","5","","","","","0","1"
"null","","","null","","","","html-keyboard-response","276","684687","0.0-276.0","610ca99956e755634569a35a","6213cef3e04f86e6111d0eef","","","","","<p style=""color:darkgreen;font-size:24px;"">Correct :)</p>","",""
"3347","key","v","v","16.66600000000019","500","250","psychophysics","277","688038","0.0-277.0","610ca99956e755634569a35a","6213cef3e04f86e6111d0eef","5","","","","","0","7"
"null","","","null","","","","html-keyboard-response","278","688542","0.0-278.0","610ca99956e755634569a35a","6213cef3e04f86e6111d0eef","","","","","<p style=""color:darkgreen;font-size:24px;"">Correct :)</p>","",""
"3379","key","v","v","16.666000000000032","500","250","psychophysics","279","691925","0.0-279.0","610ca99956e755634569a35a","6213cef3e04f86e6111d0eef","5","","","","","0","3"
"null","","","null","","","","html-keyboard-response","280","692429","0.0-280.0","610ca99956e755634569a35a","6213cef3e04f86e6111d0eef","","","","","<p style=""color:darkgreen;font-size:24px;"">Correct :)</p>","",""
"2532","key","n","n","16.6660000000005","500","250","psychophysics","281","694964","0.0-281.0","610ca99956e755634569a35a","6213cef3e04f86e6111d0eef","5","","","","","0","8"
"null","","","null","","","","html-keyboard-response","282","695467","0.0-282.0","610ca99956e755634569a35a","6213cef3e04f86e6111d0eef","","","","","<p style=""color:darkgreen;font-size:24px;"">Correct :)</p>","",""
"2677","key","v","v","16.66600000000015","500","250","psychophysics","283","698148","0.0-283.0","610ca99956e755634569a35a","6213cef3e04f86e6111d0eef","5","","","","","0","9"
"null","","","null","","","","html-keyboard-response","284","698651","0.0-284.0","610ca99956e755634569a35a","6213cef3e04f86e6111d0eef","","","","","<p style=""color:darkgreen;font-size:24px;"">Correct :)</p>","",""
"2620","key","n","n","16.771481012658047","500","250","psychophysics","285","701306","0.0-285.0","610ca99956e755634569a35a","6213cef3e04f86e6111d0eef","5","","","","","0","4"
"null","","","null","","","","html-keyboard-response","286","701808","0.0-286.0","610ca99956e755634569a35a","6213cef3e04f86e6111d0eef","","","","","<p style=""color:darkgreen;font-size:24px;"">Correct :)</p>","",""
"3176","key","v","v","16.665999999999585","500","250","psychophysics","287","704991","0.0-287.0","610ca99956e755634569a35a","6213cef3e04f86e6111d0eef","5","","","","","0","8"
"null","","","null","","","","html-keyboard-response","288","705494","0.0-288.0","610ca99956e755634569a35a","6213cef3e04f86e6111d0eef","","","","","<p style=""color:red;font-size:24px;"">Error :(</p>","",""
"2806","key","v","v","16.665999999999517","500","250","psychophysics","289","708304","0.0-289.0","610ca99956e755634569a35a","6213cef3e04f86e6111d0eef","5","","","","","0","3"
"null","","","null","","","","html-keyboard-response","290","708808","0.0-290.0","610ca99956e755634569a35a","6213cef3e04f86e6111d0eef","","","","","<p style=""color:darkgreen;font-size:24px;"">Correct :)</p>","",""
"2658","key","n","n","16.66599999999982","500","250","psychophysics","291","711471","0.0-291.0","610ca99956e755634569a35a","6213cef3e04f86e6111d0eef","5","","","","","0","6"
"null","","","null","","","","html-keyboard-response","292","711973","0.0-292.0","610ca99956e755634569a35a","6213cef3e04f86e6111d0eef","","","","","<p style=""color:darkgreen;font-size:24px;"">Correct :)</p>","",""
"2928","key","v","v","16.666000000000267","500","250","psychophysics","293","714905","0.0-293.0","610ca99956e755634569a35a","6213cef3e04f86e6111d0eef","5","","","","","0","7"
"null","","","null","","","","html-keyboard-response","294","715407","0.0-294.0","610ca99956e755634569a35a","6213cef3e04f86e6111d0eef","","","","","<p style=""color:darkgreen;font-size:24px;"">Correct :)</p>","",""
"10722","","","v","","","","html-keyboard-response","295","726130","0.0-295.0","610ca99956e755634569a35a","6213cef3e04f86e6111d0eef","","","","","<p> Here, the tasks are going to switch.  For some trials, your job is to decide if the digit is less than or greater than 5.  For others, it is to decide if the digit is even or odd.  You will be told which type of trial the current one is.  But, pay attention, the type of trial changes too.  We are going to do 50 of these.  </p>  <br><br>  Ready? (press v or n)","",""
"2709","key","n","n","16.666000000000473","500","250","psychophysics","296","728843","0.0-296.0","610ca99956e755634569a35a","6213cef3e04f86e6111d0eef","6","","","","","0","2"
"null","","","null","","","","html-keyboard-response","297","729346","0.0-297.0","610ca99956e755634569a35a","6213cef3e04f86e6111d0eef","","","","","<p style=""color:darkgreen;font-size:24px;"">Correct :)</p>","",""
"2828","key","v","v","16.665999999999837","500","250","psychophysics","298","732177","0.0-298.0","610ca99956e755634569a35a","6213cef3e04f86e6111d0eef","6","","","","","1","3"
"null","","","null","","","","html-keyboard-response","299","732679","0.0-299.0","610ca99956e755634569a35a","6213cef3e04f86e6111d0eef","","","","","<p style=""color:darkgreen;font-size:24px;"">Correct :)</p>","",""
"3129","key","n","n","16.665999999999915","500","250","psychophysics","300","735810","0.0-300.0","610ca99956e755634569a35a","6213cef3e04f86e6111d0eef","6","","","","","1","9"
"null","","","null","","","","html-keyboard-response","301","736314","0.0-301.0","610ca99956e755634569a35a","6213cef3e04f86e6111d0eef","","","","","<p style=""color:darkgreen;font-size:24px;"">Correct :)</p>","",""
"3051","key","n","n","16.665999999999507","500","250","psychophysics","302","739368","0.0-302.0","610ca99956e755634569a35a","6213cef3e04f86e6111d0eef","6","","","","","1","9"
"null","","","null","","","","html-keyboard-response","303","739870","0.0-303.0","610ca99956e755634569a35a","6213cef3e04f86e6111d0eef","","","","","<p style=""color:darkgreen;font-size:24px;"">Correct :)</p>","",""
"2699","key","n","n","16.665999999999954","500","250","psychophysics","304","742575","0.0-304.0","610ca99956e755634569a35a","6213cef3e04f86e6111d0eef","6","","","","","0","8"
"null","","","null","","","","html-keyboard-response","305","743079","0.0-305.0","610ca99956e755634569a35a","6213cef3e04f86e6111d0eef","","","","","<p style=""color:darkgreen;font-size:24px;"">Correct :)</p>","",""
"2827","key","v","v","16.76346198830424","500","250","psychophysics","306","745941","0.0-306.0","610ca99956e755634569a35a","6213cef3e04f86e6111d0eef","6","","","","","1","3"
"null","","","null","","","","html-keyboard-response","307","746444","0.0-307.0","610ca99956e755634569a35a","6213cef3e04f86e6111d0eef","","","","","<p style=""color:darkgreen;font-size:24px;"">Correct :)</p>","",""
"2760","key","n","n","16.665999999999894","500","250","psychophysics","308","749209","0.0-308.0","610ca99956e755634569a35a","6213cef3e04f86e6111d0eef","6","","","","","0","6"
"null","","","null","","","","html-keyboard-response","309","749713","0.0-309.0","610ca99956e755634569a35a","6213cef3e04f86e6111d0eef","","","","","<p style=""color:darkgreen;font-size:24px;"">Correct :)</p>","",""
"2698","key","n","n","16.665999999999954","500","250","psychophysics","310","752417","0.0-310.0","610ca99956e755634569a35a","6213cef3e04f86e6111d0eef","6","","","","","0","6"
"null","","","null","","","","html-keyboard-response","311","752921","0.0-311.0","610ca99956e755634569a35a","6213cef3e04f86e6111d0eef","","","","","<p style=""color:darkgreen;font-size:24px;"">Correct :)</p>","",""
"2447","key","n","n","16.66600000000001","500","250","psychophysics","312","755373","0.0-312.0","610ca99956e755634569a35a","6213cef3e04f86e6111d0eef","6","","","","","1","7"
"null","","","null","","","","html-keyboard-response","313","755875","0.0-313.0","610ca99956e755634569a35a","6213cef3e04f86e6111d0eef","","","","","<p style=""color:darkgreen;font-size:24px;"">Correct :)</p>","",""
"2756","key","n","n","16.666000000000086","500","250","psychophysics","314","758637","0.0-314.0","610ca99956e755634569a35a","6213cef3e04f86e6111d0eef","6","","","","","0","8"
"null","","","null","","","","html-keyboard-response","315","759142","0.0-315.0","610ca99956e755634569a35a","6213cef3e04f86e6111d0eef","","","","","<p style=""color:darkgreen;font-size:24px;"">Correct :)</p>","",""
"2517","key","v","v","16.665999999999944","500","250","psychophysics","316","761670","0.0-316.0","610ca99956e755634569a35a","6213cef3e04f86e6111d0eef","6","","","","","1","1"
"null","","","null","","","","html-keyboard-response","317","762174","0.0-317.0","610ca99956e755634569a35a","6213cef3e04f86e6111d0eef","","","","","<p style=""color:darkgreen;font-size:24px;"">Correct :)</p>","",""
"2630","key","n","n","16.666000000000018","500","250","psychophysics","318","764816","0.0-318.0","610ca99956e755634569a35a","6213cef3e04f86e6111d0eef","6","","","","","1","9"
"null","","","null","","","","html-keyboard-response","319","765318","0.0-319.0","610ca99956e755634569a35a","6213cef3e04f86e6111d0eef","","","","","<p style=""color:darkgreen;font-size:24px;"">Correct :)</p>","",""
"2551","key","n","n","16.666000000000086","500","250","psychophysics","320","767875","0.0-320.0","610ca99956e755634569a35a","6213cef3e04f86e6111d0eef","6","","","","","0","4"
"null","","","null","","","","html-keyboard-response","321","768379","0.0-321.0","610ca99956e755634569a35a","6213cef3e04f86e6111d0eef","","","","","<p style=""color:darkgreen;font-size:24px;"">Correct :)</p>","",""
"2725","key","n","n","16.666000000000277","500","250","psychophysics","322","771112","0.0-322.0","610ca99956e755634569a35a","6213cef3e04f86e6111d0eef","6","","","","","0","4"
"null","","","null","","","","html-keyboard-response","323","771616","0.0-323.0","610ca99956e755634569a35a","6213cef3e04f86e6111d0eef","","","","","<p style=""color:darkgreen;font-size:24px;"">Correct :)</p>","",""
"3219","key","n","n","16.66599999999954","500","250","psychophysics","324","774841","0.0-324.0","610ca99956e755634569a35a","6213cef3e04f86e6111d0eef","6","","","","","1","6"
"null","","","null","","","","html-keyboard-response","325","775344","0.0-325.0","610ca99956e755634569a35a","6213cef3e04f86e6111d0eef","","","","","<p style=""color:darkgreen;font-size:24px;"">Correct :)</p>","",""
"2849","key","n","n","16.665999999999652","500","250","psychophysics","326","778198","0.0-326.0","610ca99956e755634569a35a","6213cef3e04f86e6111d0eef","6","","","","","0","2"
"null","","","null","","","","html-keyboard-response","327","778701","0.0-327.0","610ca99956e755634569a35a","6213cef3e04f86e6111d0eef","","","","","<p style=""color:darkgreen;font-size:24px;"">Correct :)</p>","",""
"2471","key","n","n","16.665999999999798","500","250","psychophysics","328","781179","0.0-328.0","610ca99956e755634569a35a","6213cef3e04f86e6111d0eef","6","","","","","0","2"
"null","","","null","","","","html-keyboard-response","329","781682","0.0-329.0","610ca99956e755634569a35a","6213cef3e04f86e6111d0eef","","","","","<p style=""color:darkgreen;font-size:24px;"">Correct :)</p>","",""
"2597","key","n","n","16.665999999999677","500","250","psychophysics","330","784286","0.0-330.0","610ca99956e755634569a35a","6213cef3e04f86e6111d0eef","6","","","","","0","4"
"null","","","null","","","","html-keyboard-response","331","784789","0.0-331.0","610ca99956e755634569a35a","6213cef3e04f86e6111d0eef","","","","","<p style=""color:darkgreen;font-size:24px;"">Correct :)</p>","",""
"2616","key","n","n","16.66600000000022","500","250","psychophysics","332","787411","0.0-332.0","610ca99956e755634569a35a","6213cef3e04f86e6111d0eef","6","","","","","1","7"
"null","","","null","","","","html-keyboard-response","333","787914","0.0-333.0","610ca99956e755634569a35a","6213cef3e04f86e6111d0eef","","","","","<p style=""color:darkgreen;font-size:24px;"">Correct :)</p>","",""
"2891","key","n","n","16.66599999999978","500","250","psychophysics","334","790811","0.0-334.0","610ca99956e755634569a35a","6213cef3e04f86e6111d0eef","6","","","","","0","8"
"null","","","null","","","","html-keyboard-response","335","791314","0.0-335.0","610ca99956e755634569a35a","6213cef3e04f86e6111d0eef","","","","","<p style=""color:darkgreen;font-size:24px;"">Correct :)</p>","",""
"3189","key","v","v","16.665999999999865","500","250","psychophysics","336","794508","0.0-336.0","610ca99956e755634569a35a","6213cef3e04f86e6111d0eef","6","","","","","0","7"
"null","","","null","","","","html-keyboard-response","337","795013","0.0-337.0","610ca99956e755634569a35a","6213cef3e04f86e6111d0eef","","","","","<p style=""color:darkgreen;font-size:24px;"">Correct :)</p>","",""
"2649","key","v","v","16.66599999999982","500","250","psychophysics","338","797668","0.0-338.0","610ca99956e755634569a35a","6213cef3e04f86e6111d0eef","6","","","","","0","1"
"null","","","null","","","","html-keyboard-response","339","798172","0.0-339.0","610ca99956e755634569a35a","6213cef3e04f86e6111d0eef","","","","","<p style=""color:darkgreen;font-size:24px;"">Correct :)</p>","",""
"2547","key","n","n","16.66600000000029","500","250","psychophysics","340","800725","0.0-340.0","610ca99956e755634569a35a","6213cef3e04f86e6111d0eef","6","","","","","1","8"
"null","","","null","","","","html-keyboard-response","341","801230","0.0-341.0","610ca99956e755634569a35a","6213cef3e04f86e6111d0eef","","","","","<p style=""color:darkgreen;font-size:24px;"">Correct :)</p>","",""
"2364","key","v","v","16.66600000000031","500","250","psychophysics","342","803600","0.0-342.0","610ca99956e755634569a35a","6213cef3e04f86e6111d0eef","6","","","","","1","3"
"null","","","null","","","","html-keyboard-response","343","804103","0.0-343.0","610ca99956e755634569a35a","6213cef3e04f86e6111d0eef","","","","","<p style=""color:darkgreen;font-size:24px;"">Correct :)</p>","",""
"2974","key","v","v","16.666000000000203","500","250","psychophysics","344","807084","0.0-344.0","610ca99956e755634569a35a","6213cef3e04f86e6111d0eef","6","","","","","1","2"
"null","","","null","","","","html-keyboard-response","345","807588","0.0-345.0","610ca99956e755634569a35a","6213cef3e04f86e6111d0eef","","","","","<p style=""color:darkgreen;font-size:24px;"">Correct :)</p>","",""
"2477","key","v","v","16.66599999999959","500","250","psychophysics","346","810070","0.0-346.0","610ca99956e755634569a35a","6213cef3e04f86e6111d0eef","6","","","","","0","2"
"null","","","null","","","","html-keyboard-response","347","810575","0.0-347.0","610ca99956e755634569a35a","6213cef3e04f86e6111d0eef","","","","","<p style=""color:red;font-size:24px;"">Error :(</p>","",""
"3079","key","n","n","16.756086486486115","500","250","psychophysics","348","813670","0.0-348.0","610ca99956e755634569a35a","6213cef3e04f86e6111d0eef","6","","","","","0","3"
"null","","","null","","","","html-keyboard-response","349","814174","0.0-349.0","610ca99956e755634569a35a","6213cef3e04f86e6111d0eef","","","","","<p style=""color:red;font-size:24px;"">Error :(</p>","",""
"3139","key","n","n","16.666000000000366","500","250","psychophysics","350","817318","0.0-350.0","610ca99956e755634569a35a","6213cef3e04f86e6111d0eef","6","","","","","1","7"
"null","","","null","","","","html-keyboard-response","351","817819","0.0-351.0","610ca99956e755634569a35a","6213cef3e04f86e6111d0eef","","","","","<p style=""color:darkgreen;font-size:24px;"">Correct :)</p>","",""
"2574","key","v","v","16.666000000000086","500","250","psychophysics","352","820398","0.0-352.0","610ca99956e755634569a35a","6213cef3e04f86e6111d0eef","6","","","","","1","1"
"null","","","null","","","","html-keyboard-response","353","820901","0.0-353.0","610ca99956e755634569a35a","6213cef3e04f86e6111d0eef","","","","","<p style=""color:darkgreen;font-size:24px;"">Correct :)</p>","",""
"3241","key","v","v","16.665999999999976","500","250","psychophysics","354","824156","0.0-354.0","610ca99956e755634569a35a","6213cef3e04f86e6111d0eef","6","","","","","1","4"
"null","","","null","","","","html-keyboard-response","355","824659","0.0-355.0","610ca99956e755634569a35a","6213cef3e04f86e6111d0eef","","","","","<p style=""color:darkgreen;font-size:24px;"">Correct :)</p>","",""
"2644","key","v","v","16.66600000000055","500","250","psychophysics","356","827310","0.0-356.0","610ca99956e755634569a35a","6213cef3e04f86e6111d0eef","6","","","","","0","3"
"null","","","null","","","","html-keyboard-response","357","827814","0.0-357.0","610ca99956e755634569a35a","6213cef3e04f86e6111d0eef","","","","","<p style=""color:darkgreen;font-size:24px;"">Correct :)</p>","",""
"2621","key","v","v","16.66600000000022","500","250","psychophysics","358","830441","0.0-358.0","610ca99956e755634569a35a","6213cef3e04f86e6111d0eef","6","","","","","1","4"
"null","","","null","","","","html-keyboard-response","359","830944","0.0-359.0","610ca99956e755634569a35a","6213cef3e04f86e6111d0eef","","","","","<p style=""color:darkgreen;font-size:24px;"">Correct :)</p>","",""
"2697","key","v","v","16.665999999999954","500","250","psychophysics","360","833647","0.0-360.0","610ca99956e755634569a35a","6213cef3e04f86e6111d0eef","6","","","","","1","3"
"null","","","null","","","","html-keyboard-response","361","834152","0.0-361.0","610ca99956e755634569a35a","6213cef3e04f86e6111d0eef","","","","","<p style=""color:darkgreen;font-size:24px;"">Correct :)</p>","",""
"2758","key","v","v","16.666000000000594","500","250","psychophysics","362","836916","0.0-362.0","610ca99956e755634569a35a","6213cef3e04f86e6111d0eef","6","","","","","1","1"
"null","","","null","","","","html-keyboard-response","363","837421","0.0-363.0","610ca99956e755634569a35a","6213cef3e04f86e6111d0eef","","","","","<p style=""color:darkgreen;font-size:24px;"">Correct :)</p>","",""
"2508","key","n","n","16.665999999999944","500","250","psychophysics","364","839936","0.0-364.0","610ca99956e755634569a35a","6213cef3e04f86e6111d0eef","6","","","","","1","9"
"null","","","null","","","","html-keyboard-response","365","840440","0.0-365.0","610ca99956e755634569a35a","6213cef3e04f86e6111d0eef","","","","","<p style=""color:darkgreen;font-size:24px;"">Correct :)</p>","",""
"3333","key","v","v","16.665999999999766","500","250","psychophysics","366","843779","0.0-366.0","610ca99956e755634569a35a","6213cef3e04f86e6111d0eef","6","","","","","1","4"
"null","","","null","","","","html-keyboard-response","367","844282","0.0-367.0","610ca99956e755634569a35a","6213cef3e04f86e6111d0eef","","","","","<p style=""color:darkgreen;font-size:24px;"">Correct :)</p>","",""
"2523","key","n","n","16.665999999999944","500","250","psychophysics","368","846811","0.0-368.0","610ca99956e755634569a35a","6213cef3e04f86e6111d0eef","6","","","","","1","8"
"null","","","null","","","","html-keyboard-response","369","847314","0.0-369.0","610ca99956e755634569a35a","6213cef3e04f86e6111d0eef","","","","","<p style=""color:darkgreen;font-size:24px;"">Correct :)</p>","",""
"3061","key","n","n","16.66599999999997","500","250","psychophysics","370","850381","0.0-370.0","610ca99956e755634569a35a","6213cef3e04f86e6111d0eef","6","","","","","0","6"
"null","","","null","","","","html-keyboard-response","371","850885","0.0-371.0","610ca99956e755634569a35a","6213cef3e04f86e6111d0eef","","","","","<p style=""color:darkgreen;font-size:24px;"">Correct :)</p>","",""
"2591","key","v","v","16.665999999999677","500","250","psychophysics","372","853481","0.0-372.0","610ca99956e755634569a35a","6213cef3e04f86e6111d0eef","6","","","","","0","1"
"null","","","null","","","","html-keyboard-response","373","853986","0.0-373.0","610ca99956e755634569a35a","6213cef3e04f86e6111d0eef","","","","","<p style=""color:darkgreen;font-size:24px;"">Correct :)</p>","",""
"2505","key","n","n","16.665999999999944","500","250","psychophysics","374","856497","0.0-374.0","610ca99956e755634569a35a","6213cef3e04f86e6111d0eef","6","","","","","1","6"
"null","","","null","","","","html-keyboard-response","375","857000","0.0-375.0","610ca99956e755634569a35a","6213cef3e04f86e6111d0eef","","","","","<p style=""color:darkgreen;font-size:24px;"">Correct :)</p>","",""
"3067","key","v","v","16.850154696132098","500","250","psychophysics","376","860071","0.0-376.0","610ca99956e755634569a35a","6213cef3e04f86e6111d0eef","6","","","","","1","1"
"null","","","null","","","","html-keyboard-response","377","860575","0.0-377.0","610ca99956e755634569a35a","6213cef3e04f86e6111d0eef","","","","","<p style=""color:darkgreen;font-size:24px;"">Correct :)</p>","",""
"3177","key","v","v","16.66600000000003","500","250","psychophysics","378","863759","0.0-378.0","610ca99956e755634569a35a","6213cef3e04f86e6111d0eef","6","","","","","1","2"
"null","","","null","","","","html-keyboard-response","379","864262","0.0-379.0","610ca99956e755634569a35a","6213cef3e04f86e6111d0eef","","","","","<p style=""color:darkgreen;font-size:24px;"">Correct :)</p>","",""
"2604","key","v","v","16.665999999999677","500","250","psychophysics","380","866873","0.0-380.0","610ca99956e755634569a35a","6213cef3e04f86e6111d0eef","6","","","","","0","1"
"null","","","null","","","","html-keyboard-response","381","867377","0.0-381.0","610ca99956e755634569a35a","6213cef3e04f86e6111d0eef","","","","","<p style=""color:darkgreen;font-size:24px;"">Correct :)</p>","",""
"2565","key","n","n","16.666000000000086","500","250","psychophysics","382","869946","0.0-382.0","610ca99956e755634569a35a","6213cef3e04f86e6111d0eef","6","","","","","1","8"
"null","","","null","","","","html-keyboard-response","383","870449","0.0-383.0","610ca99956e755634569a35a","6213cef3e04f86e6111d0eef","","","","","<p style=""color:darkgreen;font-size:24px;"">Correct :)</p>","",""
"2681","key","n","n","16.66600000000015","500","250","psychophysics","384","873135","0.0-384.0","610ca99956e755634569a35a","6213cef3e04f86e6111d0eef","6","","","","","1","8"
"null","","","null","","","","html-keyboard-response","385","873638","0.0-385.0","610ca99956e755634569a35a","6213cef3e04f86e6111d0eef","","","","","<p style=""color:darkgreen;font-size:24px;"">Correct :)</p>","",""
"2791","key","v","v","16.66600000000021","500","250","psychophysics","386","876435","0.0-386.0","610ca99956e755634569a35a","6213cef3e04f86e6111d0eef","6","","","","","1","2"
"null","","","null","","","","html-keyboard-response","387","876939","0.0-387.0","610ca99956e755634569a35a","6213cef3e04f86e6111d0eef","","","","","<p style=""color:darkgreen;font-size:24px;"">Correct :)</p>","",""
"3322","key","v","v","16.665999999999766","500","250","psychophysics","388","880268","0.0-388.0","610ca99956e755634569a35a","6213cef3e04f86e6111d0eef","6","","","","","1","2"
"null","","","null","","","","html-keyboard-response","389","880771","0.0-389.0","610ca99956e755634569a35a","6213cef3e04f86e6111d0eef","","","","","<p style=""color:darkgreen;font-size:24px;"">Correct :)</p>","",""
"2642","key","v","v","16.66600000000055","500","250","psychophysics","390","883419","0.0-390.0","610ca99956e755634569a35a","6213cef3e04f86e6111d0eef","6","","","","","1","3"
"null","","","null","","","","html-keyboard-response","391","883924","0.0-391.0","610ca99956e755634569a35a","6213cef3e04f86e6111d0eef","","","","","<p style=""color:darkgreen;font-size:24px;"">Correct :)</p>","",""
"2594","key","n","n","16.665999999999677","500","250","psychophysics","392","886524","0.0-392.0","610ca99956e755634569a35a","6213cef3e04f86e6111d0eef","6","","","","","0","3"
"null","","","null","","","","html-keyboard-response","393","887027","0.0-393.0","610ca99956e755634569a35a","6213cef3e04f86e6111d0eef","","","","","<p style=""color:red;font-size:24px;"">Error :(</p>","",""
"3121","key","n","n","16.66599999999946","500","250","psychophysics","394","890154","0.0-394.0","610ca99956e755634569a35a","6213cef3e04f86e6111d0eef","6","","","","","1","6"
"null","","","null","","","","html-keyboard-response","395","890659","0.0-395.0","610ca99956e755634569a35a","6213cef3e04f86e6111d0eef","","","","","<p style=""color:darkgreen;font-size:24px;"">Correct :)</p>","",""
"4398","","","v","","","","html-keyboard-response","396","895058","0.0-396.0","610ca99956e755634569a35a","6213cef3e04f86e6111d0eef","","","","","<p> Last set of trials.  Here, the tasks are going to switch once again.  We are going to do 50 of these.  And then you are done with the experiment.  </p>  <br><br>  Ready? (press v or n)","",""
"2539","key","v","v","16.665999999999737","500","250","psychophysics","397","897602","0.0-397.0","610ca99956e755634569a35a","6213cef3e04f86e6111d0eef","7","","","","","0","2"
"null","","","null","","","","html-keyboard-response","398","898106","0.0-398.0","610ca99956e755634569a35a","6213cef3e04f86e6111d0eef","","","","","<p style=""color:red;font-size:24px;"">Error :(</p>","",""
"2572","key","v","v","16.66599999999988","500","250","psychophysics","399","900685","0.0-399.0","610ca99956e755634569a35a","6213cef3e04f86e6111d0eef","7","","","","","1","1"
"null","","","null","","","","html-keyboard-response","400","901188","0.0-400.0","610ca99956e755634569a35a","6213cef3e04f86e6111d0eef","","","","","<p style=""color:darkgreen;font-size:24px;"">Correct :)</p>","",""
"2506","key","n","n","16.666000000000714","500","250","psychophysics","401","903697","0.0-401.0","610ca99956e755634569a35a","6213cef3e04f86e6111d0eef","7","","","","","0","4"
"null","","","null","","","","html-keyboard-response","402","904202","0.0-402.0","610ca99956e755634569a35a","6213cef3e04f86e6111d0eef","","","","","<p style=""color:darkgreen;font-size:24px;"">Correct :)</p>","",""
"2454","key","v","v","16.77937414965966","500","250","psychophysics","403","906676","0.0-403.0","610ca99956e755634569a35a","6213cef3e04f86e6111d0eef","7","","","","","1","1"
"null","","","null","","","","html-keyboard-response","404","907180","0.0-404.0","610ca99956e755634569a35a","6213cef3e04f86e6111d0eef","","","","","<p style=""color:darkgreen;font-size:24px;"">Correct :)</p>","",""
"2631","key","n","n","16.666000000000018","500","250","psychophysics","405","909823","0.0-405.0","610ca99956e755634569a35a","6213cef3e04f86e6111d0eef","7","","","","","1","7"
"null","","","null","","","","html-keyboard-response","406","910327","0.0-406.0","610ca99956e755634569a35a","6213cef3e04f86e6111d0eef","","","","","<p style=""color:darkgreen;font-size:24px;"">Correct :)</p>","",""
"2593","key","n","n","16.665999999999677","500","250","psychophysics","407","912927","0.0-407.0","610ca99956e755634569a35a","6213cef3e04f86e6111d0eef","7","","","","","0","6"
"null","","","null","","","","html-keyboard-response","408","913431","0.0-408.0","610ca99956e755634569a35a","6213cef3e04f86e6111d0eef","","","","","<p style=""color:darkgreen;font-size:24px;"">Correct :)</p>","",""
"2935","key","n","n","16.666000000000086","500","250","psychophysics","409","916372","0.0-409.0","610ca99956e755634569a35a","6213cef3e04f86e6111d0eef","7","","","","","1","7"
"null","","","null","","","","html-keyboard-response","410","916876","0.0-410.0","610ca99956e755634569a35a","6213cef3e04f86e6111d0eef","","","","","<p style=""color:darkgreen;font-size:24px;"">Correct :)</p>","",""
"2931","key","v","v","16.666000000000086","500","250","psychophysics","411","919813","0.0-411.0","610ca99956e755634569a35a","6213cef3e04f86e6111d0eef","7","","","","","1","2"
"null","","","null","","","","html-keyboard-response","412","920315","0.0-412.0","610ca99956e755634569a35a","6213cef3e04f86e6111d0eef","","","","","<p style=""color:darkgreen;font-size:24px;"">Correct :)</p>","",""
"2692","key","v","v","16.665999999999954","500","250","psychophysics","413","923013","0.0-413.0","610ca99956e755634569a35a","6213cef3e04f86e6111d0eef","7","","","","","1","4"
"null","","","null","","","","html-keyboard-response","414","923516","0.0-414.0","610ca99956e755634569a35a","6213cef3e04f86e6111d0eef","","","","","<p style=""color:darkgreen;font-size:24px;"">Correct :)</p>","",""
"3021","key","n","n","16.665999999999677","500","250","psychophysics","415","926544","0.0-415.0","610ca99956e755634569a35a","6213cef3e04f86e6111d0eef","7","","","","","0","2"
"null","","","null","","","","html-keyboard-response","416","927046","0.0-416.0","610ca99956e755634569a35a","6213cef3e04f86e6111d0eef","","","","","<p style=""color:darkgreen;font-size:24px;"">Correct :)</p>","",""
"2972","key","n","n","16.665999999999553","500","250","psychophysics","417","930024","0.0-417.0","610ca99956e755634569a35a","6213cef3e04f86e6111d0eef","7","","","","","1","7"
"null","","","null","","","","html-keyboard-response","418","930529","0.0-418.0","610ca99956e755634569a35a","6213cef3e04f86e6111d0eef","","","","","<p style=""color:darkgreen;font-size:24px;"">Correct :)</p>","",""
"2624","key","n","n","16.666000000000018","500","250","psychophysics","419","933159","0.0-419.0","610ca99956e755634569a35a","6213cef3e04f86e6111d0eef","7","","","","","0","4"
"null","","","null","","","","html-keyboard-response","420","933662","0.0-420.0","610ca99956e755634569a35a","6213cef3e04f86e6111d0eef","","","","","<p style=""color:darkgreen;font-size:24px;"">Correct :)</p>","",""
"2545","key","n","n","16.77422077922066","500","250","psychophysics","421","936241","0.0-421.0","610ca99956e755634569a35a","6213cef3e04f86e6111d0eef","7","","","","","1","7"
"null","","","null","","","","html-keyboard-response","422","936745","0.0-422.0","610ca99956e755634569a35a","6213cef3e04f86e6111d0eef","","","","","<p style=""color:darkgreen;font-size:24px;"">Correct :)</p>","",""
"2823","key","v","v","16.665999999999837","500","250","psychophysics","423","939574","0.0-423.0","610ca99956e755634569a35a","6213cef3e04f86e6111d0eef","7","","","","","1","3"
"null","","","null","","","","html-keyboard-response","424","940076","0.0-424.0","610ca99956e755634569a35a","6213cef3e04f86e6111d0eef","","","","","<p style=""color:darkgreen;font-size:24px;"">Correct :)</p>","",""
"2480","key","n","n","16.66600000000037","500","250","psychophysics","425","942562","0.0-425.0","610ca99956e755634569a35a","6213cef3e04f86e6111d0eef","7","","","","","1","7"
"null","","","null","","","","html-keyboard-response","426","943066","0.0-426.0","610ca99956e755634569a35a","6213cef3e04f86e6111d0eef","","","","","<p style=""color:darkgreen;font-size:24px;"">Correct :)</p>","",""
"2551","key","v","v","16.666000000000086","500","250","psychophysics","427","945623","0.0-427.0","610ca99956e755634569a35a","6213cef3e04f86e6111d0eef","7","","","","","1","4"
"null","","","null","","","","html-keyboard-response","428","946125","0.0-428.0","610ca99956e755634569a35a","6213cef3e04f86e6111d0eef","","","","","<p style=""color:darkgreen;font-size:24px;"">Correct :)</p>","",""
"2657","key","v","v","16.66600000000035","500","250","psychophysics","429","948789","0.0-429.0","610ca99956e755634569a35a","6213cef3e04f86e6111d0eef","7","","","","","1","3"
"null","","","null","","","","html-keyboard-response","430","949293","0.0-430.0","610ca99956e755634569a35a","6213cef3e04f86e6111d0eef","","","","","<p style=""color:darkgreen;font-size:24px;"">Correct :)</p>","",""
"3628","key","v","v","16.66599999999984","500","250","psychophysics","431","952928","0.0-431.0","610ca99956e755634569a35a","6213cef3e04f86e6111d0eef","7","","","","","1","4"
"null","","","null","","","","html-keyboard-response","432","953432","0.0-432.0","610ca99956e755634569a35a","6213cef3e04f86e6111d0eef","","","","","<p style=""color:darkgreen;font-size:24px;"">Correct :)</p>","",""
"2592","key","n","n","16.666000000000423","500","250","psychophysics","433","956030","0.0-433.0","610ca99956e755634569a35a","6213cef3e04f86e6111d0eef","7","","","","","0","6"
"null","","","null","","","","html-keyboard-response","434","956534","0.0-434.0","610ca99956e755634569a35a","6213cef3e04f86e6111d0eef","","","","","<p style=""color:darkgreen;font-size:24px;"">Correct :)</p>","",""
"2513","key","n","n","16.665999999999944","500","250","psychophysics","435","959053","0.0-435.0","610ca99956e755634569a35a","6213cef3e04f86e6111d0eef","7","","","","","1","7"
"null","","","null","","","","html-keyboard-response","436","959556","0.0-436.0","610ca99956e755634569a35a","6213cef3e04f86e6111d0eef","","","","","<p style=""color:darkgreen;font-size:24px;"">Correct :)</p>","",""
"3048","key","n","n","16.666000000000142","500","250","psychophysics","437","962609","0.0-437.0","610ca99956e755634569a35a","6213cef3e04f86e6111d0eef","7","","","","","0","4"
"null","","","null","","","","html-keyboard-response","438","963111","0.0-438.0","610ca99956e755634569a35a","6213cef3e04f86e6111d0eef","","","","","<p style=""color:darkgreen;font-size:24px;"">Correct :)</p>","",""
"2518","key","v","v","16.665999999999944","500","250","psychophysics","439","965634","0.0-439.0","610ca99956e755634569a35a","6213cef3e04f86e6111d0eef","7","","","","","0","2"
"null","","","null","","","","html-keyboard-response","440","966137","0.0-440.0","610ca99956e755634569a35a","6213cef3e04f86e6111d0eef","","","","","<p style=""color:red;font-size:24px;"">Error :(</p>","",""
"2698","key","n","n","16.665999999999954","500","250","psychophysics","441","968840","0.0-441.0","610ca99956e755634569a35a","6213cef3e04f86e6111d0eef","7","","","","","0","4"
"null","","","null","","","","html-keyboard-response","442","969343","0.0-442.0","610ca99956e755634569a35a","6213cef3e04f86e6111d0eef","","","","","<p style=""color:darkgreen;font-size:24px;"">Correct :)</p>","",""
"2865","key","v","v","16.666000000000146","500","250","psychophysics","443","972215","0.0-443.0","610ca99956e755634569a35a","6213cef3e04f86e6111d0eef","7","","","","","1","1"
"null","","","null","","","","html-keyboard-response","444","972719","0.0-444.0","610ca99956e755634569a35a","6213cef3e04f86e6111d0eef","","","","","<p style=""color:darkgreen;font-size:24px;"">Correct :)</p>","",""
"2858","key","n","n","16.66600000000033","500","250","psychophysics","445","975583","0.0-445.0","610ca99956e755634569a35a","6213cef3e04f86e6111d0eef","7","","","","","0","6"
"null","","","null","","","","html-keyboard-response","446","976085","0.0-446.0","610ca99956e755634569a35a","6213cef3e04f86e6111d0eef","","","","","<p style=""color:darkgreen;font-size:24px;"">Correct :)</p>","",""
"3060","key","v","v","16.665999999999798","500","250","psychophysics","447","979180","0.0-447.0","610ca99956e755634569a35a","6213cef3e04f86e6111d0eef","7","","","","","0","7"
"null","","","null","","","","html-keyboard-response","448","979684","0.0-448.0","610ca99956e755634569a35a","6213cef3e04f86e6111d0eef","","","","","<p style=""color:darkgreen;font-size:24px;"">Correct :)</p>","",""
"2899","key","v","v","16.66599999999978","500","250","psychophysics","449","982588","0.0-449.0","610ca99956e755634569a35a","6213cef3e04f86e6111d0eef","7","","","","","0","3"
"null","","","null","","","","html-keyboard-response","450","983092","0.0-450.0","610ca99956e755634569a35a","6213cef3e04f86e6111d0eef","","","","","<p style=""color:darkgreen;font-size:24px;"">Correct :)</p>","",""
"2574","key","n","n","16.66600000000063","500","250","psychophysics","451","985672","0.0-451.0","610ca99956e755634569a35a","6213cef3e04f86e6111d0eef","7","","","","","0","6"
"null","","","null","","","","html-keyboard-response","452","986174","0.0-452.0","610ca99956e755634569a35a","6213cef3e04f86e6111d0eef","","","","","<p style=""color:darkgreen;font-size:24px;"">Correct :)</p>","",""
"2593","key","v","v","16.665999999999677","500","250","psychophysics","453","988772","0.0-453.0","610ca99956e755634569a35a","6213cef3e04f86e6111d0eef","7","","","","","1","2"
"null","","","null","","","","html-keyboard-response","454","989275","0.0-454.0","610ca99956e755634569a35a","6213cef3e04f86e6111d0eef","","","","","<p style=""color:darkgreen;font-size:24px;"">Correct :)</p>","",""
"2575","key","n","n","16.66599999999988","500","250","psychophysics","455","991856","0.0-455.0","610ca99956e755634569a35a","6213cef3e04f86e6111d0eef","7","","","","","0","7"
"null","","","null","","","","html-keyboard-response","456","992361","0.0-456.0","610ca99956e755634569a35a","6213cef3e04f86e6111d0eef","","","","","<p style=""color:red;font-size:24px;"">Error :(</p>","",""
"3167","key","n","n","16.66600000000003","500","250","psychophysics","457","995534","0.0-457.0","610ca99956e755634569a35a","6213cef3e04f86e6111d0eef","7","","","","","0","2"
"null","","","null","","","","html-keyboard-response","458","996038","0.0-458.0","610ca99956e755634569a35a","6213cef3e04f86e6111d0eef","","","","","<p style=""color:darkgreen;font-size:24px;"">Correct :)</p>","",""
"2581","key","n","n","16.66599999999988","500","250","psychophysics","459","998630","0.0-459.0","610ca99956e755634569a35a","6213cef3e04f86e6111d0eef","7","","","","","1","7"
"null","","","null","","","","html-keyboard-response","460","999134","0.0-460.0","610ca99956e755634569a35a","6213cef3e04f86e6111d0eef","","","","","<p style=""color:darkgreen;font-size:24px;"">Correct :)</p>","",""
"4103","key","v","v","16.666000000000043","500","250","psychophysics","461","1003243","0.0-461.0","610ca99956e755634569a35a","6213cef3e04f86e6111d0eef","7","","","","","1","4"
"null","","","null","","","","html-keyboard-response","462","1003747","0.0-462.0","610ca99956e755634569a35a","6213cef3e04f86e6111d0eef","","","","","<p style=""color:darkgreen;font-size:24px;"">Correct :)</p>","",""
"3231","key","n","n","16.751466666667078","500","250","psychophysics","463","1007012","0.0-463.0","610ca99956e755634569a35a","6213cef3e04f86e6111d0eef","7","","","","","0","1"
"null","","","null","","","","html-keyboard-response","464","1007517","0.0-464.0","610ca99956e755634569a35a","6213cef3e04f86e6111d0eef","","","","","<p style=""color:red;font-size:24px;"">Error :(</p>","",""
"3080","key","v","v","16.75657608695632","500","250","psychophysics","465","1010604","0.0-465.0","610ca99956e755634569a35a","6213cef3e04f86e6111d0eef","7","","","","","1","3"
"null","","","null","","","","html-keyboard-response","466","1011106","0.0-466.0","610ca99956e755634569a35a","6213cef3e04f86e6111d0eef","","","","","<p style=""color:darkgreen;font-size:24px;"">Correct :)</p>","",""
"3065","key","v","v","16.66599999999997","500","250","psychophysics","467","1014180","0.0-467.0","610ca99956e755634569a35a","6213cef3e04f86e6111d0eef","7","","","","","1","4"
"null","","","null","","","","html-keyboard-response","468","1014685","0.0-468.0","610ca99956e755634569a35a","6213cef3e04f86e6111d0eef","","","","","<p style=""color:darkgreen;font-size:24px;"">Correct :)</p>","",""
"2582","key","v","v","16.66599999999988","500","250","psychophysics","469","1017273","0.0-469.0","610ca99956e755634569a35a","6213cef3e04f86e6111d0eef","7","","","","","0","1"
"null","","","null","","","","html-keyboard-response","470","1017776","0.0-470.0","610ca99956e755634569a35a","6213cef3e04f86e6111d0eef","","","","","<p style=""color:darkgreen;font-size:24px;"">Correct :)</p>","",""
"2730","key","n","n","16.666000000000277","500","250","psychophysics","471","1020512","0.0-471.0","610ca99956e755634569a35a","6213cef3e04f86e6111d0eef","7","","","","","0","2"
"null","","","null","","","","html-keyboard-response","472","1021015","0.0-472.0","610ca99956e755634569a35a","6213cef3e04f86e6111d0eef","","","","","<p style=""color:darkgreen;font-size:24px;"">Correct :)</p>","",""
"2684","key","v","v","16.66600000000015","500","250","psychophysics","473","1023704","0.0-473.0","610ca99956e755634569a35a","6213cef3e04f86e6111d0eef","7","","","","","1","1"
"null","","","null","","","","html-keyboard-response","474","1024207","0.0-474.0","610ca99956e755634569a35a","6213cef3e04f86e6111d0eef","","","","","<p style=""color:darkgreen;font-size:24px;"">Correct :)</p>","",""
"2615","key","n","n","16.772152866242056","500","250","psychophysics","475","1026835","0.0-475.0","610ca99956e755634569a35a","6213cef3e04f86e6111d0eef","7","","","","","0","4"
"null","","","null","","","","html-keyboard-response","476","1027340","0.0-476.0","610ca99956e755634569a35a","6213cef3e04f86e6111d0eef","","","","","<p style=""color:darkgreen;font-size:24px;"">Correct :)</p>","",""
"3164","key","n","n","16.665999999999585","500","250","psychophysics","477","1030511","0.0-477.0","610ca99956e755634569a35a","6213cef3e04f86e6111d0eef","7","","","","","0","6"
"null","","","null","","","","html-keyboard-response","478","1031015","0.0-478.0","610ca99956e755634569a35a","6213cef3e04f86e6111d0eef","","","","","<p style=""color:darkgreen;font-size:24px;"">Correct :)</p>","",""
"3007","key","n","n","16.66599999999985","500","250","psychophysics","479","1034037","0.0-479.0","610ca99956e755634569a35a","6213cef3e04f86e6111d0eef","7","","","","","1","6"
"null","","","null","","","","html-keyboard-response","480","1034542","0.0-480.0","610ca99956e755634569a35a","6213cef3e04f86e6111d0eef","","","","","<p style=""color:darkgreen;font-size:24px;"">Correct :)</p>","",""
"3152","key","v","v","16.666000000000196","500","250","psychophysics","481","1037699","0.0-481.0","610ca99956e755634569a35a","6213cef3e04f86e6111d0eef","7","","","","","0","7"
"null","","","null","","","","html-keyboard-response","482","1038204","0.0-482.0","610ca99956e755634569a35a","6213cef3e04f86e6111d0eef","","","","","<p style=""color:darkgreen;font-size:24px;"">Correct :)</p>","",""
"3153","key","v","v","16.75417989418009","500","250","psychophysics","483","1041369","0.0-483.0","610ca99956e755634569a35a","6213cef3e04f86e6111d0eef","7","","","","","0","7"
"null","","","null","","","","html-keyboard-response","484","1041873","0.0-484.0","610ca99956e755634569a35a","6213cef3e04f86e6111d0eef","","","","","<p style=""color:darkgreen;font-size:24px;"">Correct :)</p>","",""
"4374","key","n","n","16.665999999999762","500","250","psychophysics","485","1046253","0.0-485.0","610ca99956e755634569a35a","6213cef3e04f86e6111d0eef","7","","","","","0","2"
"null","","","null","","","","html-keyboard-response","486","1046755","0.0-486.0","610ca99956e755634569a35a","6213cef3e04f86e6111d0eef","","","","","<p style=""color:darkgreen;font-size:24px;"">Correct :)</p>","",""
"2579","key","v","v","16.773522580645587","500","250","psychophysics","487","1049348","0.0-487.0","610ca99956e755634569a35a","6213cef3e04f86e6111d0eef","7","","","","","1","3"
"null","","","null","","","","html-keyboard-response","488","1049851","0.0-488.0","610ca99956e755634569a35a","6213cef3e04f86e6111d0eef","","","","","<p style=""color:darkgreen;font-size:24px;"">Correct :)</p>","",""
"2594","key","v","v","16.665999999999677","500","250","psychophysics","489","1052451","0.0-489.0","610ca99956e755634569a35a","6213cef3e04f86e6111d0eef","7","","","","","1","2"
"null","","","null","","","","html-keyboard-response","490","1052955","0.0-490.0","610ca99956e755634569a35a","6213cef3e04f86e6111d0eef","","","","","<p style=""color:darkgreen;font-size:24px;"">Correct :)</p>","",""
"2576","key","v","v","16.7728333333343","500","250","psychophysics","491","1055563","0.0-491.0","610ca99956e755634569a35a","6213cef3e04f86e6111d0eef","7","","","","","1","1"
"null","","","null","","","","html-keyboard-response","492","1056067","0.0-492.0","610ca99956e755634569a35a","6213cef3e04f86e6111d0eef","","","","","<p style=""color:darkgreen;font-size:24px;"">Correct :)</p>","",""
"3122","key","v","v","16.66599999999946","500","250","psychophysics","493","1059195","0.0-493.0","610ca99956e755634569a35a","6213cef3e04f86e6111d0eef","7","","","","","0","7"
"null","","","null","","","","html-keyboard-response","494","1059699","0.0-494.0","610ca99956e755634569a35a","6213cef3e04f86e6111d0eef","","","","","<p style=""color:darkgreen;font-size:24px;"">Correct :)</p>","",""
"3341","key","n","n","16.666000000000768","500","250","psychophysics","495","1063047","0.0-495.0","610ca99956e755634569a35a","6213cef3e04f86e6111d0eef","7","","","","","1","6"
"null","","","null","","","","html-keyboard-response","496","1063549","0.0-496.0","610ca99956e755634569a35a","6213cef3e04f86e6111d0eef","","","","","<p style=""color:darkgreen;font-size:24px;"">Correct :)</p>","",""
