"rt","response_type","key_press","response","avg_frame_time","center_x","center_y","trial_type","trial_index","time_elapsed","internal_node_id","pid","sid","phase","guide","targ","resp","stimulus","is5","stim"
"5007","key"," "," ","16.82255033557047","500","250","psychophysics","0","5041","0.0-0.0","60f72f4f1341357926bf94cc","6213c8c8535641bc05c0276a","","","","","","",""
"55676","key"," "," ","16.773520192887283","500","250","psychophysics","1","60720","0.0-1.0","60f72f4f1341357926bf94cc","6213c8c8535641bc05c0276a","","","","","","",""
"4483","key"," "," ","16.765468164794026","500","250","psychophysics","2","65208","0.0-2.0","60f72f4f1341357926bf94cc","6213c8c8535641bc05c0276a","","","","","","",""
"1509","key"," "," ","16.764719101123568","500","250","psychophysics","3","66719","0.0-3.0","60f72f4f1341357926bf94cc","6213c8c8535641bc05c0276a","","","","","","",""
"3317","key"," "," ","16.764670050761417","500","250","psychophysics","4","70039","0.0-4.0","60f72f4f1341357926bf94cc","6213c8c8535641bc05c0276a","","","","","","",""
"10869","key"," "," ","16.763395061728406","500","250","psychophysics","5","80912","0.0-5.0","60f72f4f1341357926bf94cc","6213c8c8535641bc05c0276a","","","","","","",""
"5685","key"," "," ","16.76568047337279","500","250","psychophysics","6","86599","0.0-6.0","60f72f4f1341357926bf94cc","6213c8c8535641bc05c0276a","","","","","","",""
"4910","key"," "," ","16.761712328767118","500","250","psychophysics","7","91511","0.0-7.0","60f72f4f1341357926bf94cc","6213c8c8535641bc05c0276a","","","","","","",""
"12886","key"," "," ","16.763984375000007","500","250","psychophysics","8","104398","0.0-8.0","60f72f4f1341357926bf94cc","6213c8c8535641bc05c0276a","0","0","37","35","","",""
"6637","key"," "," ","16.764151898734205","500","250","psychophysics","9","111039","0.0-9.0","60f72f4f1341357926bf94cc","6213c8c8535641bc05c0276a","","","","","","",""
"3253","key"," "," ","16.756373056994796","500","250","psychophysics","10","114296","0.0-10.0","60f72f4f1341357926bf94cc","6213c8c8535641bc05c0276a","","","","","","",""
"3869","key"," "," ","16.764869565217385","500","250","psychophysics","11","118167","0.0-11.0","60f72f4f1341357926bf94cc","6213c8c8535641bc05c0276a","","","","","","",""
"6646","key"," "," ","16.76348484848484","500","250","psychophysics","12","124815","0.0-12.0","60f72f4f1341357926bf94cc","6213c8c8535641bc05c0276a","","","","","","",""
"2101","key"," "," ","16.76370967741933","500","250","psychophysics","13","126918","0.0-13.0","60f72f4f1341357926bf94cc","6213c8c8535641bc05c0276a","","","","","","",""
"5126","key"," "," ","16.7643934426229","500","250","psychophysics","14","132046","0.0-14.0","60f72f4f1341357926bf94cc","6213c8c8535641bc05c0276a","","","","","","",""
"4543","key"," "," ","16.76340740740739","500","250","psychophysics","15","136591","0.0-15.0","60f72f4f1341357926bf94cc","6213c8c8535641bc05c0276a","","","","","","",""
"3581","key"," "," ","16.764976525821606","500","250","psychophysics","16","140175","0.0-16.0","60f72f4f1341357926bf94cc","6213c8c8535641bc05c0276a","","","","","","",""
"7694","key"," "," ","16.76537117903932","500","250","psychophysics","17","147870","0.0-17.0","60f72f4f1341357926bf94cc","6213c8c8535641bc05c0276a","1","0","30","29","","",""
"8549","key"," "," ","16.763339882121766","500","250","psychophysics","18","156423","0.0-18.0","60f72f4f1341357926bf94cc","6213c8c8535641bc05c0276a","1","5","35","33","","",""
"11975","key"," "," ","16.76224089635857","500","250","psychophysics","19","168399","0.0-19.0","60f72f4f1341357926bf94cc","6213c8c8535641bc05c0276a","1","0","42","40","","",""
"10893","key"," "," ","16.763543913713374","500","250","psychophysics","20","179294","0.0-20.0","60f72f4f1341357926bf94cc","6213c8c8535641bc05c0276a","1","5","58","60","","",""
"7213","key"," "," ","16.764522144522168","500","250","psychophysics","21","186510","0.0-21.0","60f72f4f1341357926bf94cc","6213c8c8535641bc05c0276a","1","0","20","19","","",""
"12295","key"," "," ","16.76450204638469","500","250","psychophysics","22","198807","0.0-22.0","60f72f4f1341357926bf94cc","6213c8c8535641bc05c0276a","1","5","37","39","","",""
"12044","key"," "," ","16.76443514644352","500","250","psychophysics","23","210854","0.0-23.0","60f72f4f1341357926bf94cc","6213c8c8535641bc05c0276a","1","0","60","56","","",""
"6533","key"," "," ","16.76128534704374","500","250","psychophysics","24","217390","0.0-24.0","60f72f4f1341357926bf94cc","6213c8c8535641bc05c0276a","1","5","25","25","","",""
"7846","key"," "," ","16.763169164882278","500","250","psychophysics","25","225238","0.0-25.0","60f72f4f1341357926bf94cc","6213c8c8535641bc05c0276a","1","0","33","35","","",""
"6458","key"," "," ","16.76197402597399","500","250","psychophysics","26","231701","0.0-26.0","60f72f4f1341357926bf94cc","6213c8c8535641bc05c0276a","1","5","30","30","","",""
"4175","key"," "," ","16.757741935483924","500","250","psychophysics","27","235878","0.0-27.0","60f72f4f1341357926bf94cc","6213c8c8535641bc05c0276a","1","0","24","24","","",""
"7166","key"," "," ","16.765526932084253","500","250","psychophysics","28","243046","0.0-28.0","60f72f4f1341357926bf94cc","6213c8c8535641bc05c0276a","1","5","59","57","","",""
"8565","key"," "," ","16.761803921568607","500","250","psychophysics","29","251614","0.0-29.0","60f72f4f1341357926bf94cc","6213c8c8535641bc05c0276a","1","0","34","30","","",""
"8269","key"," "," ","16.80048879837069","500","250","psychophysics","30","259886","0.0-30.0","60f72f4f1341357926bf94cc","6213c8c8535641bc05c0276a","1","5","32","30","","",""
"7434","key"," "," ","16.762121896162583","500","250","psychophysics","31","267326","0.0-31.0","60f72f4f1341357926bf94cc","6213c8c8535641bc05c0276a","1","0","53","46","","",""
"5189","key"," "," ","16.761359223301","500","250","psychophysics","32","272518","0.0-32.0","60f72f4f1341357926bf94cc","6213c8c8535641bc05c0276a","1","5","52","50","","",""
"7164","key"," "," ","16.765352112676005","500","250","psychophysics","33","279686","0.0-33.0","60f72f4f1341357926bf94cc","6213c8c8535641bc05c0276a","1","0","48","45","","",""
"5763","key"," "," ","16.763615160349808","500","250","psychophysics","34","285454","0.0-34.0","60f72f4f1341357926bf94cc","6213c8c8535641bc05c0276a","1","5","25","26","","",""
"6019","key"," "," ","16.765069637882938","500","250","psychophysics","35","291477","0.0-35.0","60f72f4f1341357926bf94cc","6213c8c8535641bc05c0276a","1","0","29","27","","",""
"4412","key"," "," ","16.759389312976957","500","250","psychophysics","36","295894","0.0-36.0","60f72f4f1341357926bf94cc","6213c8c8535641bc05c0276a","1","5","23","23","","",""
"2661","key"," "," ","16.766582278480982","500","250","psychophysics","37","298557","0.0-37.0","60f72f4f1341357926bf94cc","6213c8c8535641bc05c0276a","","","","","","",""
"6014","key"," "," ","16.764078212290606","500","250","psychophysics","38","304574","0.0-38.0","60f72f4f1341357926bf94cc","6213c8c8535641bc05c0276a","","","","","","",""
"2357","key"," "," ","16.766428571428488","500","250","psychophysics","39","306933","0.0-39.0","60f72f4f1341357926bf94cc","6213c8c8535641bc05c0276a","","","","","","",""
"6030","key"," "," ","16.763844011142144","500","250","psychophysics","40","312968","0.0-40.0","60f72f4f1341357926bf94cc","6213c8c8535641bc05c0276a","2","0","30","28","","",""
"2648","key"," "," ","16.767006369426646","500","250","psychophysics","41","315622","0.0-41.0","60f72f4f1341357926bf94cc","6213c8c8535641bc05c0276a","","","","","","",""
"8244","key"," "," ","16.763054989816766","500","250","psychophysics","42","323870","0.0-42.0","60f72f4f1341357926bf94cc","6213c8c8535641bc05c0276a","2","0","58","59","","",""
"2413","key"," "," ","16.764055944056008","500","250","psychophysics","43","326285","0.0-43.0","60f72f4f1341357926bf94cc","6213c8c8535641bc05c0276a","","","","","","",""
"6894","key"," "," ","16.764963503649692","500","250","psychophysics","44","333183","0.0-44.0","60f72f4f1341357926bf94cc","6213c8c8535641bc05c0276a","2","0","22","21","","",""
"1363","key"," "," ","16.75225000000064","500","250","psychophysics","45","334549","0.0-45.0","60f72f4f1341357926bf94cc","6213c8c8535641bc05c0276a","","","","","","",""
"7605","key"," "," ","16.76331125827808","500","250","psychophysics","46","342157","0.0-46.0","60f72f4f1341357926bf94cc","6213c8c8535641bc05c0276a","2","0","52","54","","",""
"1646","key"," "," ","16.778969072164923","500","250","psychophysics","47","343805","0.0-47.0","60f72f4f1341357926bf94cc","6213c8c8535641bc05c0276a","","","","","","",""
"8949","key"," "," ","16.760900562851777","500","250","psychophysics","48","352757","0.0-48.0","60f72f4f1341357926bf94cc","6213c8c8535641bc05c0276a","2","0","50","49","","",""
"2077","key"," "," ","16.765528455284343","500","250","psychophysics","49","354837","0.0-49.0","60f72f4f1341357926bf94cc","6213c8c8535641bc05c0276a","","","","","","",""
"7844","key"," "," ","16.763846153846114","500","250","psychophysics","50","362686","0.0-50.0","60f72f4f1341357926bf94cc","6213c8c8535641bc05c0276a","2","0","27","27","","",""
"1348","key"," "," ","16.757215189873506","500","250","psychophysics","51","364037","0.0-51.0","60f72f4f1341357926bf94cc","6213c8c8535641bc05c0276a","","","","","","",""
"8398","key"," "," ","16.761040000000037","500","250","psychophysics","52","372437","0.0-52.0","60f72f4f1341357926bf94cc","6213c8c8535641bc05c0276a","2","0","48","47","","",""
"1054","key"," "," ","16.778709677418867","500","250","psychophysics","53","373493","0.0-53.0","60f72f4f1341357926bf94cc","6213c8c8535641bc05c0276a","","","","","","",""
"5910","key"," "," ","16.76034090909095","500","250","psychophysics","54","379405","0.0-54.0","60f72f4f1341357926bf94cc","6213c8c8535641bc05c0276a","2","0","54","52","","",""
"1135","key"," "," ","16.772537313432974","500","250","psychophysics","55","380542","0.0-55.0","60f72f4f1341357926bf94cc","6213c8c8535641bc05c0276a","","","","","","",""
"7901","key"," "," ","16.7629361702128","500","250","psychophysics","56","388445","0.0-56.0","60f72f4f1341357926bf94cc","6213c8c8535641bc05c0276a","2","0","41","36","","",""
"2526","key"," "," ","16.77213333333299","500","250","psychophysics","57","390973","0.0-57.0","60f72f4f1341357926bf94cc","6213c8c8535641bc05c0276a","","","","","","",""
"10077","key"," "," ","16.762899999999984","500","250","psychophysics","58","401053","0.0-58.0","60f72f4f1341357926bf94cc","6213c8c8535641bc05c0276a","2","0","54","56","","",""
"1311","key"," "," ","16.754615384615207","500","250","psychophysics","59","402366","0.0-59.0","60f72f4f1341357926bf94cc","6213c8c8535641bc05c0276a","","","","","","",""
"6196","key"," "," ","16.767336956521753","500","250","psychophysics","60","408565","0.0-60.0","60f72f4f1341357926bf94cc","6213c8c8535641bc05c0276a","2","0","22","21","","",""
"972","key"," "," ","16.755862068964955","500","250","psychophysics","61","409541","0.0-61.0","60f72f4f1341357926bf94cc","6213c8c8535641bc05c0276a","","","","","","",""
"9150","key"," "," ","16.76308256880735","500","250","psychophysics","62","418693","0.0-62.0","60f72f4f1341357926bf94cc","6213c8c8535641bc05c0276a","2","0","55","54","","",""
"1036","key"," "," ","16.780983606556653","500","250","psychophysics","63","419733","0.0-63.0","60f72f4f1341357926bf94cc","6213c8c8535641bc05c0276a","","","","","","",""
"5396","key"," "," ","16.758566978193148","500","250","psychophysics","64","425133","0.0-64.0","60f72f4f1341357926bf94cc","6213c8c8535641bc05c0276a","2","0","31","32","","",""
"1397","key"," "," ","16.775853658537237","500","250","psychophysics","65","426532","0.0-65.0","60f72f4f1341357926bf94cc","6213c8c8535641bc05c0276a","","","","","","",""
"6589","key"," "," ","16.76448979591835","500","250","psychophysics","66","433125","0.0-66.0","60f72f4f1341357926bf94cc","6213c8c8535641bc05c0276a","2","0","49","51","","",""
"1235","key"," "," ","16.76082191780793","500","250","psychophysics","67","434365","0.0-67.0","60f72f4f1341357926bf94cc","6213c8c8535641bc05c0276a","","","","","","",""
"4779","key"," "," ","16.764421052631736","500","250","psychophysics","68","439148","0.0-68.0","60f72f4f1341357926bf94cc","6213c8c8535641bc05c0276a","2","0","58","57","","",""
"1006","key"," "," ","16.75322033898309","500","250","psychophysics","69","440157","0.0-69.0","60f72f4f1341357926bf94cc","6213c8c8535641bc05c0276a","","","","","","",""
"3426","key"," "," ","16.760980392156817","500","250","psychophysics","70","443589","0.0-70.0","60f72f4f1341357926bf94cc","6213c8c8535641bc05c0276a","","","","","","",""
"2293","key"," "," ","16.75499999999995","500","250","psychophysics","71","445885","0.0-71.0","60f72f4f1341357926bf94cc","6213c8c8535641bc05c0276a","","","","","","",""
"7587","key"," "," ","16.76331858407071","500","250","psychophysics","72","453478","0.0-72.0","60f72f4f1341357926bf94cc","6213c8c8535641bc05c0276a","3","5","48","48","","",""
"7908","key"," "," ","16.763821656050975","500","250","psychophysics","73","461389","0.0-73.0","60f72f4f1341357926bf94cc","6213c8c8535641bc05c0276a","3","0","41","44","","",""
"5067","key"," "," ","16.765514950166253","500","250","psychophysics","74","466460","0.0-74.0","60f72f4f1341357926bf94cc","6213c8c8535641bc05c0276a","3","5","30","32","","",""
"6283","key"," "," ","16.765775401069583","500","250","psychophysics","75","472748","0.0-75.0","60f72f4f1341357926bf94cc","6213c8c8535641bc05c0276a","3","0","41","41","","",""
"5246","key"," "," ","16.76108974358981","500","250","psychophysics","76","477996","0.0-76.0","60f72f4f1341357926bf94cc","6213c8c8535641bc05c0276a","3","5","31","33","","",""
"8781","key"," "," ","16.764053537284852","500","250","psychophysics","77","486780","0.0-77.0","60f72f4f1341357926bf94cc","6213c8c8535641bc05c0276a","3","0","48","47","","",""
"5909","key"," "," ","16.760909090909","500","250","psychophysics","78","492692","0.0-78.0","60f72f4f1341357926bf94cc","6213c8c8535641bc05c0276a","3","5","43","41","","",""
"8006","key"," "," ","16.765995807127894","500","250","psychophysics","79","500701","0.0-79.0","60f72f4f1341357926bf94cc","6213c8c8535641bc05c0276a","3","0","58","57","","",""
"8760","key"," "," ","16.763486590038273","500","250","psychophysics","80","509469","0.0-80.0","60f72f4f1341357926bf94cc","6213c8c8535641bc05c0276a","3","5","59","56","","",""
"6044","key"," "," ","16.764066852367655","500","250","psychophysics","81","515516","0.0-81.0","60f72f4f1341357926bf94cc","6213c8c8535641bc05c0276a","3","0","24","25","","",""
"6266","key"," "," ","16.7648128342247","500","250","psychophysics","82","521788","0.0-82.0","60f72f4f1341357926bf94cc","6213c8c8535641bc05c0276a","3","5","45","42","","",""
"10613","key"," "," ","16.762816455696257","500","250","psychophysics","83","532403","0.0-83.0","60f72f4f1341357926bf94cc","6213c8c8535641bc05c0276a","3","0","53","50","","",""
"6029","key"," "," ","16.76440111420592","500","250","psychophysics","84","538436","0.0-84.0","60f72f4f1341357926bf94cc","6213c8c8535641bc05c0276a","3","5","41","41","","",""
"4404","key"," "," ","16.7589312977098","500","250","psychophysics","85","542845","0.0-85.0","60f72f4f1341357926bf94cc","6213c8c8535641bc05c0276a","3","0","26","26","","",""
"7260","key"," "," ","16.76490740740755","500","250","psychophysics","86","550108","0.0-86.0","60f72f4f1341357926bf94cc","6213c8c8535641bc05c0276a","3","5","54","53","","",""
"7270","key"," "," ","16.763510392609916","500","250","psychophysics","87","557379","0.0-87.0","60f72f4f1341357926bf94cc","6213c8c8535641bc05c0276a","3","0","27","31","","",""
"4110","key"," "," ","16.76737704918029","500","250","psychophysics","88","561491","0.0-88.0","60f72f4f1341357926bf94cc","6213c8c8535641bc05c0276a","3","5","24","25","","",""
"6926","key"," "," ","16.76393203883493","500","250","psychophysics","89","568419","0.0-89.0","60f72f4f1341357926bf94cc","6213c8c8535641bc05c0276a","3","0","32","35","","",""
"7526","key"," "," ","16.763482142857224","500","250","psychophysics","90","575948","0.0-90.0","60f72f4f1341357926bf94cc","6213c8c8535641bc05c0276a","3","5","49","50","","",""
"7115","key"," "," ","16.761226415094363","500","250","psychophysics","91","583067","0.0-91.0","60f72f4f1341357926bf94cc","6213c8c8535641bc05c0276a","3","0","41","41","","",""
"2126","key"," "," ","16.763492063491693","500","250","psychophysics","92","585196","0.0-92.0","60f72f4f1341357926bf94cc","6213c8c8535641bc05c0276a","","","","","","",""
"22199","","","n","","","","html-keyboard-response","93","607395","0.0-93.0","60f72f4f1341357926bf94cc","6213c8c8535641bc05c0276a","","","","","<p> In this part of the experiment, we are going present digits 1, 2, 3, 4, 6, 7, 8, and 9.  Notice that 5 is missing.  Your job is to say whether the presented digit is less than or greater than 5.  For example, 3 is less than 5 and 7 is greater than 5.  If the digit is less than 5, press the v key; if it is greater than 5, press the n key. We are going to do 200 of these in total, but only 50 righ now. They go real fast.</p>  <br><br>  Ready? (press v or n)","",""
"2641","key","v","v","16.657721518987607","500","250","psychophysics","94","610043","0.0-94.0","60f72f4f1341357926bf94cc","6213c8c8535641bc05c0276a","4","","","","","1","4"
"null","","","null","","","","html-keyboard-response","95","610545","0.0-95.0","60f72f4f1341357926bf94cc","6213c8c8535641bc05c0276a","","","","","<p style=""color:darkgreen;font-size:24px;"">Correct :)</p>","",""
"2421","key","n","n","16.653931034483207","500","250","psychophysics","96","612970","0.0-96.0","60f72f4f1341357926bf94cc","6213c8c8535641bc05c0276a","4","","","","","1","8"
"null","","","null","","","","html-keyboard-response","97","613481","0.0-97.0","60f72f4f1341357926bf94cc","6213c8c8535641bc05c0276a","","","","","<p style=""color:darkgreen;font-size:24px;"">Correct :)</p>","",""
"2463","key","n","n","16.6558108108104","500","250","psychophysics","98","615948","0.0-98.0","60f72f4f1341357926bf94cc","6213c8c8535641bc05c0276a","4","","","","","1","8"
"null","","","null","","","","html-keyboard-response","99","616454","0.0-99.0","60f72f4f1341357926bf94cc","6213c8c8535641bc05c0276a","","","","","<p style=""color:darkgreen;font-size:24px;"">Correct :)</p>","",""
"2488","key","v","v","16.612885906039924","500","250","psychophysics","100","618947","0.0-100.0","60f72f4f1341357926bf94cc","6213c8c8535641bc05c0276a","4","","","","","1","6"
"null","","","null","","","","html-keyboard-response","101","619455","0.0-101.0","60f72f4f1341357926bf94cc","6213c8c8535641bc05c0276a","","","","","<p style=""color:red;font-size:24px;"">Error :(</p>","",""
"2568","key","n","n","16.613246753247147","500","250","psychophysics","102","622027","0.0-102.0","60f72f4f1341357926bf94cc","6213c8c8535641bc05c0276a","4","","","","","1","7"
"null","","","null","","","","html-keyboard-response","103","622535","0.0-103.0","60f72f4f1341357926bf94cc","6213c8c8535641bc05c0276a","","","","","<p style=""color:darkgreen;font-size:24px;"">Correct :)</p>","",""
"2488","key","n","n","16.646845637583922","500","250","psychophysics","104","625027","0.0-104.0","60f72f4f1341357926bf94cc","6213c8c8535641bc05c0276a","4","","","","","1","7"
"null","","","null","","","","html-keyboard-response","105","625537","0.0-105.0","60f72f4f1341357926bf94cc","6213c8c8535641bc05c0276a","","","","","<p style=""color:darkgreen;font-size:24px;"">Correct :)</p>","",""
"2470","key","n","n","16.63621621621565","500","250","psychophysics","106","628011","0.0-106.0","60f72f4f1341357926bf94cc","6213c8c8535641bc05c0276a","4","","","","","1","6"
"null","","","null","","","","html-keyboard-response","107","628518","0.0-107.0","60f72f4f1341357926bf94cc","6213c8c8535641bc05c0276a","","","","","<p style=""color:darkgreen;font-size:24px;"">Correct :)</p>","",""
"2487","key","v","v","16.651946308724927","500","250","psychophysics","108","631011","0.0-108.0","60f72f4f1341357926bf94cc","6213c8c8535641bc05c0276a","4","","","","","1","3"
"null","","","null","","","","html-keyboard-response","109","631525","0.0-109.0","60f72f4f1341357926bf94cc","6213c8c8535641bc05c0276a","","","","","<p style=""color:darkgreen;font-size:24px;"">Correct :)</p>","",""
"2530","key","n","n","16.61552631578984","500","250","psychophysics","110","634059","0.0-110.0","60f72f4f1341357926bf94cc","6213c8c8535641bc05c0276a","4","","","","","1","8"
"null","","","null","","","","html-keyboard-response","111","634573","0.0-111.0","60f72f4f1341357926bf94cc","6213c8c8535641bc05c0276a","","","","","<p style=""color:darkgreen;font-size:24px;"">Correct :)</p>","",""
"2481","key","v","v","16.63073825503343","500","250","psychophysics","112","637059","0.0-112.0","60f72f4f1341357926bf94cc","6213c8c8535641bc05c0276a","4","","","","","1","3"
"null","","","null","","","","html-keyboard-response","113","637569","0.0-113.0","60f72f4f1341357926bf94cc","6213c8c8535641bc05c0276a","","","","","<p style=""color:darkgreen;font-size:24px;"">Correct :)</p>","",""
"2447","key","n","n","16.660000000000128","500","250","psychophysics","114","640020","0.0-114.0","60f72f4f1341357926bf94cc","6213c8c8535641bc05c0276a","4","","","","","1","6"
"null","","","null","","","","html-keyboard-response","115","640528","0.0-115.0","60f72f4f1341357926bf94cc","6213c8c8535641bc05c0276a","","","","","<p style=""color:darkgreen;font-size:24px;"">Correct :)</p>","",""
"2558","key","n","n","16.607792207792055","500","250","psychophysics","116","643091","0.0-116.0","60f72f4f1341357926bf94cc","6213c8c8535641bc05c0276a","4","","","","","1","9"
"null","","","null","","","","html-keyboard-response","117","643600","0.0-117.0","60f72f4f1341357926bf94cc","6213c8c8535641bc05c0276a","","","","","<p style=""color:darkgreen;font-size:24px;"">Correct :)</p>","",""
"2504","key","v","v","16.68879999999966","500","250","psychophysics","118","646107","0.0-118.0","60f72f4f1341357926bf94cc","6213c8c8535641bc05c0276a","4","","","","","1","1"
"null","","","null","","","","html-keyboard-response","119","646618","0.0-119.0","60f72f4f1341357926bf94cc","6213c8c8535641bc05c0276a","","","","","<p style=""color:darkgreen;font-size:24px;"">Correct :)</p>","",""
"2549","key","n","n","16.684868421052478","500","250","psychophysics","120","649171","0.0-120.0","60f72f4f1341357926bf94cc","6213c8c8535641bc05c0276a","4","","","","","1","9"
"null","","","null","","","","html-keyboard-response","121","649681","0.0-121.0","60f72f4f1341357926bf94cc","6213c8c8535641bc05c0276a","","","","","<p style=""color:darkgreen;font-size:24px;"">Correct :)</p>","",""
"2501","key","n","n","16.598266666666603","500","250","psychophysics","122","652186","0.0-122.0","60f72f4f1341357926bf94cc","6213c8c8535641bc05c0276a","4","","","","","1","9"
"null","","","null","","","","html-keyboard-response","123","652698","0.0-123.0","60f72f4f1341357926bf94cc","6213c8c8535641bc05c0276a","","","","","<p style=""color:darkgreen;font-size:24px;"">Correct :)</p>","",""
"2508","key","n","n","16.604105960264715","500","250","psychophysics","124","655211","0.0-124.0","60f72f4f1341357926bf94cc","6213c8c8535641bc05c0276a","4","","","","","1","9"
"null","","","null","","","","html-keyboard-response","125","655719","0.0-125.0","60f72f4f1341357926bf94cc","6213c8c8535641bc05c0276a","","","","","<p style=""color:darkgreen;font-size:24px;"">Correct :)</p>","",""
"2556","key","v","v","16.69490196078398","500","250","psychophysics","126","658282","0.0-126.0","60f72f4f1341357926bf94cc","6213c8c8535641bc05c0276a","4","","","","","1","3"
"null","","","null","","","","html-keyboard-response","127","658797","0.0-127.0","60f72f4f1341357926bf94cc","6213c8c8535641bc05c0276a","","","","","<p style=""color:darkgreen;font-size:24px;"">Correct :)</p>","",""
"2448","key","n","n","16.628571428571586","500","250","psychophysics","128","661251","0.0-128.0","60f72f4f1341357926bf94cc","6213c8c8535641bc05c0276a","4","","","","","1","9"
"null","","","null","","","","html-keyboard-response","129","661763","0.0-129.0","60f72f4f1341357926bf94cc","6213c8c8535641bc05c0276a","","","","","<p style=""color:darkgreen;font-size:24px;"">Correct :)</p>","",""
"2521","key","v","v","16.636953642384444","500","250","psychophysics","130","664290","0.0-130.0","60f72f4f1341357926bf94cc","6213c8c8535641bc05c0276a","4","","","","","1","2"
"null","","","null","","","","html-keyboard-response","131","664804","0.0-131.0","60f72f4f1341357926bf94cc","6213c8c8535641bc05c0276a","","","","","<p style=""color:darkgreen;font-size:24px;"">Correct :)</p>","",""
"2754","key","v","v","16.706909090909175","500","250","psychophysics","132","667564","0.0-132.0","60f72f4f1341357926bf94cc","6213c8c8535641bc05c0276a","4","","","","","1","4"
"null","","","null","","","","html-keyboard-response","133","668068","0.0-133.0","60f72f4f1341357926bf94cc","6213c8c8535641bc05c0276a","","","","","<p style=""color:darkgreen;font-size:24px;"">Correct :)</p>","",""
"2522","key","n","n","16.622781456953117","500","250","psychophysics","134","670596","0.0-134.0","60f72f4f1341357926bf94cc","6213c8c8535641bc05c0276a","4","","","","","1","7"
"null","","","null","","","","html-keyboard-response","135","671101","0.0-135.0","60f72f4f1341357926bf94cc","6213c8c8535641bc05c0276a","","","","","<p style=""color:darkgreen;font-size:24px;"">Correct :)</p>","",""
"2601","key","v","v","16.624871794871677","500","250","psychophysics","136","673707","0.0-136.0","60f72f4f1341357926bf94cc","6213c8c8535641bc05c0276a","4","","","","","1","4"
"null","","","null","","","","html-keyboard-response","137","674209","0.0-137.0","60f72f4f1341357926bf94cc","6213c8c8535641bc05c0276a","","","","","<p style=""color:darkgreen;font-size:24px;"">Correct :)</p>","",""
"2478","key","v","v","16.700810810810623","500","250","psychophysics","138","676691","0.0-138.0","60f72f4f1341357926bf94cc","6213c8c8535641bc05c0276a","4","","","","","1","4"
"null","","","null","","","","html-keyboard-response","139","677203","0.0-139.0","60f72f4f1341357926bf94cc","6213c8c8535641bc05c0276a","","","","","<p style=""color:darkgreen;font-size:24px;"">Correct :)</p>","",""
"2604","key","n","n","16.627692307692577","500","250","psychophysics","140","679810","0.0-140.0","60f72f4f1341357926bf94cc","6213c8c8535641bc05c0276a","4","","","","","1","9"
"null","","","null","","","","html-keyboard-response","141","680322","0.0-141.0","60f72f4f1341357926bf94cc","6213c8c8535641bc05c0276a","","","","","<p style=""color:darkgreen;font-size:24px;"">Correct :)</p>","",""
"2516","key","n","n","16.622119205297643","500","250","psychophysics","142","682843","0.0-142.0","60f72f4f1341357926bf94cc","6213c8c8535641bc05c0276a","4","","","","","1","6"
"null","","","null","","","","html-keyboard-response","143","683352","0.0-143.0","60f72f4f1341357926bf94cc","6213c8c8535641bc05c0276a","","","","","<p style=""color:darkgreen;font-size:24px;"">Correct :)</p>","",""
"2495","key","v","v","16.645200000000187","500","250","psychophysics","144","685852","0.0-144.0","60f72f4f1341357926bf94cc","6213c8c8535641bc05c0276a","4","","","","","1","3"
"null","","","null","","","","html-keyboard-response","145","686355","0.0-145.0","60f72f4f1341357926bf94cc","6213c8c8535641bc05c0276a","","","","","<p style=""color:darkgreen;font-size:24px;"">Correct :)</p>","",""
"2604","key","n","n","16.637051282051313","500","250","psychophysics","146","688962","0.0-146.0","60f72f4f1341357926bf94cc","6213c8c8535641bc05c0276a","4","","","","","1","6"
"null","","","null","","","","html-keyboard-response","147","689465","0.0-147.0","60f72f4f1341357926bf94cc","6213c8c8535641bc05c0276a","","","","","<p style=""color:darkgreen;font-size:24px;"">Correct :)</p>","",""
"2589","key","v","v","16.685548387096834","500","250","psychophysics","148","692058","0.0-148.0","60f72f4f1341357926bf94cc","6213c8c8535641bc05c0276a","4","","","","","1","4"
"null","","","null","","","","html-keyboard-response","149","692568","0.0-149.0","60f72f4f1341357926bf94cc","6213c8c8535641bc05c0276a","","","","","<p style=""color:darkgreen;font-size:24px;"">Correct :)</p>","",""
"2558","key","v","v","16.676209150327313","500","250","psychophysics","150","695131","0.0-150.0","60f72f4f1341357926bf94cc","6213c8c8535641bc05c0276a","4","","","","","1","2"
"null","","","null","","","","html-keyboard-response","151","695632","0.0-151.0","60f72f4f1341357926bf94cc","6213c8c8535641bc05c0276a","","","","","<p style=""color:darkgreen;font-size:24px;"">Correct :)</p>","",""
"2598","key","n","n","16.698709677419654","500","250","psychophysics","152","698234","0.0-152.0","60f72f4f1341357926bf94cc","6213c8c8535641bc05c0276a","4","","","","","1","6"
"null","","","null","","","","html-keyboard-response","153","698739","0.0-153.0","60f72f4f1341357926bf94cc","6213c8c8535641bc05c0276a","","","","","<p style=""color:darkgreen;font-size:24px;"">Correct :)</p>","",""
"2483","key","v","v","16.66026845637587","500","250","psychophysics","154","701227","0.0-154.0","60f72f4f1341357926bf94cc","6213c8c8535641bc05c0276a","4","","","","","1","2"
"null","","","null","","","","html-keyboard-response","155","701729","0.0-155.0","60f72f4f1341357926bf94cc","6213c8c8535641bc05c0276a","","","","","<p style=""color:darkgreen;font-size:24px;"">Correct :)</p>","",""
"2534","key","v","v","16.62302631578917","500","250","psychophysics","156","704266","0.0-156.0","60f72f4f1341357926bf94cc","6213c8c8535641bc05c0276a","4","","","","","1","4"
"null","","","null","","","","html-keyboard-response","157","704781","0.0-157.0","60f72f4f1341357926bf94cc","6213c8c8535641bc05c0276a","","","","","<p style=""color:darkgreen;font-size:24px;"">Correct :)</p>","",""
"2527","key","v","v","16.61342105263152","500","250","psychophysics","158","707314","0.0-158.0","60f72f4f1341357926bf94cc","6213c8c8535641bc05c0276a","4","","","","","1","4"
"null","","","null","","","","html-keyboard-response","159","707817","0.0-159.0","60f72f4f1341357926bf94cc","6213c8c8535641bc05c0276a","","","","","<p style=""color:darkgreen;font-size:24px;"">Correct :)</p>","",""
"2567","key","n","n","16.606753246752884","500","250","psychophysics","160","710387","0.0-160.0","60f72f4f1341357926bf94cc","6213c8c8535641bc05c0276a","4","","","","","1","7"
"null","","","null","","","","html-keyboard-response","161","710897","0.0-161.0","60f72f4f1341357926bf94cc","6213c8c8535641bc05c0276a","","","","","<p style=""color:darkgreen;font-size:24px;"">Correct :)</p>","",""
"2565","key","v","v","16.629480519480158","500","250","psychophysics","162","713467","0.0-162.0","60f72f4f1341357926bf94cc","6213c8c8535641bc05c0276a","4","","","","","1","1"
"null","","","null","","","","html-keyboard-response","163","713983","0.0-163.0","60f72f4f1341357926bf94cc","6213c8c8535641bc05c0276a","","","","","<p style=""color:darkgreen;font-size:24px;"">Correct :)</p>","",""
"2508","key","n","n","16.624768211921086","500","250","psychophysics","164","716499","0.0-164.0","60f72f4f1341357926bf94cc","6213c8c8535641bc05c0276a","4","","","","","1","9"
"null","","","null","","","","html-keyboard-response","165","717009","0.0-165.0","60f72f4f1341357926bf94cc","6213c8c8535641bc05c0276a","","","","","<p style=""color:darkgreen;font-size:24px;"">Correct :)</p>","",""
"2554","key","n","n","16.672810457515975","500","250","psychophysics","166","719570","0.0-166.0","60f72f4f1341357926bf94cc","6213c8c8535641bc05c0276a","4","","","","","1","9"
"null","","","null","","","","html-keyboard-response","167","720076","0.0-167.0","60f72f4f1341357926bf94cc","6213c8c8535641bc05c0276a","","","","","<p style=""color:darkgreen;font-size:24px;"">Correct :)</p>","",""
"2554","key","v","v","16.681699346405534","500","250","psychophysics","168","722635","0.0-168.0","60f72f4f1341357926bf94cc","6213c8c8535641bc05c0276a","4","","","","","1","4"
"null","","","null","","","","html-keyboard-response","169","723139","0.0-169.0","60f72f4f1341357926bf94cc","6213c8c8535641bc05c0276a","","","","","<p style=""color:darkgreen;font-size:24px;"">Correct :)</p>","",""
"2548","key","v","v","16.603137254902144","500","250","psychophysics","170","725690","0.0-170.0","60f72f4f1341357926bf94cc","6213c8c8535641bc05c0276a","4","","","","","1","4"
"null","","","null","","","","html-keyboard-response","171","726198","0.0-171.0","60f72f4f1341357926bf94cc","6213c8c8535641bc05c0276a","","","","","<p style=""color:darkgreen;font-size:24px;"">Correct :)</p>","",""
"2561","key","n","n","16.66039215686299","500","250","psychophysics","172","728762","0.0-172.0","60f72f4f1341357926bf94cc","6213c8c8535641bc05c0276a","4","","","","","1","9"
"null","","","null","","","","html-keyboard-response","173","729265","0.0-173.0","60f72f4f1341357926bf94cc","6213c8c8535641bc05c0276a","","","","","<p style=""color:darkgreen;font-size:24px;"">Correct :)</p>","",""
"2573","key","v","v","16.66298701298686","500","250","psychophysics","174","731842","0.0-174.0","60f72f4f1341357926bf94cc","6213c8c8535641bc05c0276a","4","","","","","1","4"
"null","","","null","","","","html-keyboard-response","175","732357","0.0-175.0","60f72f4f1341357926bf94cc","6213c8c8535641bc05c0276a","","","","","<p style=""color:darkgreen;font-size:24px;"">Correct :)</p>","",""
"2546","key","n","n","16.61516339869278","500","250","psychophysics","176","734906","0.0-176.0","60f72f4f1341357926bf94cc","6213c8c8535641bc05c0276a","4","","","","","1","6"
"null","","","null","","","","html-keyboard-response","177","735422","0.0-177.0","60f72f4f1341357926bf94cc","6213c8c8535641bc05c0276a","","","","","<p style=""color:darkgreen;font-size:24px;"">Correct :)</p>","",""
"2529","key","v","v","16.63355263157849","500","250","psychophysics","178","737955","0.0-178.0","60f72f4f1341357926bf94cc","6213c8c8535641bc05c0276a","4","","","","","1","4"
"null","","","null","","","","html-keyboard-response","179","738464","0.0-179.0","60f72f4f1341357926bf94cc","6213c8c8535641bc05c0276a","","","","","<p style=""color:darkgreen;font-size:24px;"">Correct :)</p>","",""
"2591","key","v","v","16.692774193548416","500","250","psychophysics","180","741058","0.0-180.0","60f72f4f1341357926bf94cc","6213c8c8535641bc05c0276a","4","","","","","1","3"
"null","","","null","","","","html-keyboard-response","181","741563","0.0-181.0","60f72f4f1341357926bf94cc","6213c8c8535641bc05c0276a","","","","","<p style=""color:darkgreen;font-size:24px;"">Correct :)</p>","",""
"2523","key","n","n","16.591184210526222","500","250","psychophysics","182","744090","0.0-182.0","60f72f4f1341357926bf94cc","6213c8c8535641bc05c0276a","4","","","","","1","6"
"null","","","null","","","","html-keyboard-response","183","744597","0.0-183.0","60f72f4f1341357926bf94cc","6213c8c8535641bc05c0276a","","","","","<p style=""color:darkgreen;font-size:24px;"">Correct :)</p>","",""
"2618","key","n","n","16.598726114649683","500","250","psychophysics","184","747218","0.0-184.0","60f72f4f1341357926bf94cc","6213c8c8535641bc05c0276a","4","","","","","1","6"
"null","","","null","","","","html-keyboard-response","185","747723","0.0-185.0","60f72f4f1341357926bf94cc","6213c8c8535641bc05c0276a","","","","","<p style=""color:darkgreen;font-size:24px;"">Correct :)</p>","",""
"2514","key","n","n","16.65271523178845","500","250","psychophysics","186","750243","0.0-186.0","60f72f4f1341357926bf94cc","6213c8c8535641bc05c0276a","4","","","","","1","6"
"null","","","null","","","","html-keyboard-response","187","750755","0.0-187.0","60f72f4f1341357926bf94cc","6213c8c8535641bc05c0276a","","","","","<p style=""color:darkgreen;font-size:24px;"">Correct :)</p>","",""
"2507","key","v","v","16.662133333333767","500","250","psychophysics","188","753265","0.0-188.0","60f72f4f1341357926bf94cc","6213c8c8535641bc05c0276a","4","","","","","1","2"
"null","","","null","","","","html-keyboard-response","189","753777","0.0-189.0","60f72f4f1341357926bf94cc","6213c8c8535641bc05c0276a","","","","","<p style=""color:darkgreen;font-size:24px;"">Correct :)</p>","",""
"2646","key","n","n","16.639874213836418","500","250","psychophysics","190","756426","0.0-190.0","60f72f4f1341357926bf94cc","6213c8c8535641bc05c0276a","4","","","","","1","9"
"null","","","null","","","","html-keyboard-response","191","756933","0.0-191.0","60f72f4f1341357926bf94cc","6213c8c8535641bc05c0276a","","","","","<p style=""color:darkgreen;font-size:24px;"">Correct :)</p>","",""
"2480","key","v","v","16.60416107382563","500","250","psychophysics","192","759417","0.0-192.0","60f72f4f1341357926bf94cc","6213c8c8535641bc05c0276a","4","","","","","1","4"
"null","","","null","","","","html-keyboard-response","193","759925","0.0-193.0","60f72f4f1341357926bf94cc","6213c8c8535641bc05c0276a","","","","","<p style=""color:darkgreen;font-size:24px;"">Correct :)</p>","",""
"29867","","","v","","","","html-keyboard-response","194","789794","0.0-194.0","60f72f4f1341357926bf94cc","6213c8c8535641bc05c0276a","","","","","<p> Ok, now we are going present the same digits as before.  Your job is to say whether the digit is even or odd  If the digit is odd, press to v key; if it is even, press the n key. We are going to do 50 of these.  </p>  <br><br>  Ready? (press v or n)","",""
"3218","key","n","n","16.701354166666835","500","250","psychophysics","195","793018","0.0-195.0","60f72f4f1341357926bf94cc","6213c8c8535641bc05c0276a","5","","","","","0","9"
"null","","","null","","","","html-keyboard-response","196","793529","0.0-196.0","60f72f4f1341357926bf94cc","6213c8c8535641bc05c0276a","","","","","<p style=""color:red;font-size:24px;"">Error :(</p>","",""
"2916","key","n","n","16.71505747126394","500","250","psychophysics","197","796450","0.0-197.0","60f72f4f1341357926bf94cc","6213c8c8535641bc05c0276a","5","","","","","0","4"
"null","","","null","","","","html-keyboard-response","198","796952","0.0-198.0","60f72f4f1341357926bf94cc","6213c8c8535641bc05c0276a","","","","","<p style=""color:darkgreen;font-size:24px;"">Correct :)</p>","",""
"2629","key","v","v","16.687388535031374","500","250","psychophysics","199","799586","0.0-199.0","60f72f4f1341357926bf94cc","6213c8c8535641bc05c0276a","5","","","","","0","7"
"null","","","null","","","","html-keyboard-response","200","800095","0.0-200.0","60f72f4f1341357926bf94cc","6213c8c8535641bc05c0276a","","","","","<p style=""color:darkgreen;font-size:24px;"">Correct :)</p>","",""
"2734","key","v","v","16.63804878048789","500","250","psychophysics","201","802834","0.0-201.0","60f72f4f1341357926bf94cc","6213c8c8535641bc05c0276a","5","","","","","0","1"
"null","","","null","","","","html-keyboard-response","202","803344","0.0-202.0","60f72f4f1341357926bf94cc","6213c8c8535641bc05c0276a","","","","","<p style=""color:darkgreen;font-size:24px;"">Correct :)</p>","",""
"2603","key","v","v","16.6517948717952","500","250","psychophysics","203","805954","0.0-203.0","60f72f4f1341357926bf94cc","6213c8c8535641bc05c0276a","5","","","","","0","7"
"null","","","null","","","","html-keyboard-response","204","806457","0.0-204.0","60f72f4f1341357926bf94cc","6213c8c8535641bc05c0276a","","","","","<p style=""color:darkgreen;font-size:24px;"">Correct :)</p>","",""
"2732","key","n","n","16.678773006135057","500","250","psychophysics","205","809193","0.0-205.0","60f72f4f1341357926bf94cc","6213c8c8535641bc05c0276a","5","","","","","0","4"
"null","","","null","","","","html-keyboard-response","206","809698","0.0-206.0","60f72f4f1341357926bf94cc","6213c8c8535641bc05c0276a","","","","","<p style=""color:darkgreen;font-size:24px;"">Correct :)</p>","",""
"2683","key","v","v","16.649440993788446","500","250","psychophysics","207","812385","0.0-207.0","60f72f4f1341357926bf94cc","6213c8c8535641bc05c0276a","5","","","","","0","7"
"null","","","null","","","","html-keyboard-response","208","812890","0.0-208.0","60f72f4f1341357926bf94cc","6213c8c8535641bc05c0276a","","","","","<p style=""color:darkgreen;font-size:24px;"">Correct :)</p>","",""
"2866","key","n","n","16.622558139535318","500","250","psychophysics","209","815761","0.0-209.0","60f72f4f1341357926bf94cc","6213c8c8535641bc05c0276a","5","","","","","0","8"
"null","","","null","","","","html-keyboard-response","210","816268","0.0-210.0","60f72f4f1341357926bf94cc","6213c8c8535641bc05c0276a","","","","","<p style=""color:darkgreen;font-size:24px;"">Correct :)</p>","",""
"2883","key","v","v","16.66936416184931","500","250","psychophysics","211","819154","0.0-211.0","60f72f4f1341357926bf94cc","6213c8c8535641bc05c0276a","5","","","","","0","9"
"null","","","null","","","","html-keyboard-response","212","819667","0.0-212.0","60f72f4f1341357926bf94cc","6213c8c8535641bc05c0276a","","","","","<p style=""color:darkgreen;font-size:24px;"">Correct :)</p>","",""
"2939","key","n","n","16.69386363636361","500","250","psychophysics","213","822609","0.0-213.0","60f72f4f1341357926bf94cc","6213c8c8535641bc05c0276a","5","","","","","0","6"
"null","","","null","","","","html-keyboard-response","214","823115","0.0-214.0","60f72f4f1341357926bf94cc","6213c8c8535641bc05c0276a","","","","","<p style=""color:darkgreen;font-size:24px;"">Correct :)</p>","",""
"2602","key","v","v","16.613974358974538","500","250","psychophysics","215","825721","0.0-215.0","60f72f4f1341357926bf94cc","6213c8c8535641bc05c0276a","5","","","","","0","1"
"null","","","null","","","","html-keyboard-response","216","826227","0.0-216.0","60f72f4f1341357926bf94cc","6213c8c8535641bc05c0276a","","","","","<p style=""color:darkgreen;font-size:24px;"">Correct :)</p>","",""
"2770","key","n","n","16.664096385542113","500","250","psychophysics","217","829001","0.0-217.0","60f72f4f1341357926bf94cc","6213c8c8535641bc05c0276a","5","","","","","0","4"
"null","","","null","","","","html-keyboard-response","218","829511","0.0-218.0","60f72f4f1341357926bf94cc","6213c8c8535641bc05c0276a","","","","","<p style=""color:darkgreen;font-size:24px;"">Correct :)</p>","",""
"2799","key","n","n","16.669642857142858","500","250","psychophysics","219","832314","0.0-219.0","60f72f4f1341357926bf94cc","6213c8c8535641bc05c0276a","5","","","","","0","2"
"null","","","null","","","","html-keyboard-response","220","832825","0.0-220.0","60f72f4f1341357926bf94cc","6213c8c8535641bc05c0276a","","","","","<p style=""color:darkgreen;font-size:24px;"">Correct :)</p>","",""
"2980","key","n","n","16.70033707865187","500","250","psychophysics","221","835811","0.0-221.0","60f72f4f1341357926bf94cc","6213c8c8535641bc05c0276a","5","","","","","0","4"
"null","","","null","","","","html-keyboard-response","222","836320","0.0-222.0","60f72f4f1341357926bf94cc","6213c8c8535641bc05c0276a","","","","","<p style=""color:darkgreen;font-size:24px;"">Correct :)</p>","",""
"2601","key","n","n","16.64025641025644","500","250","psychophysics","223","838929","0.0-223.0","60f72f4f1341357926bf94cc","6213c8c8535641bc05c0276a","5","","","","","0","6"
"null","","","null","","","","html-keyboard-response","224","839433","0.0-224.0","60f72f4f1341357926bf94cc","6213c8c8535641bc05c0276a","","","","","<p style=""color:darkgreen;font-size:24px;"">Correct :)</p>","",""
"2762","key","v","v","16.68351515151532","500","250","psychophysics","225","842202","0.0-225.0","60f72f4f1341357926bf94cc","6213c8c8535641bc05c0276a","5","","","","","0","9"
"null","","","null","","","","html-keyboard-response","226","842717","0.0-226.0","60f72f4f1341357926bf94cc","6213c8c8535641bc05c0276a","","","","","<p style=""color:darkgreen;font-size:24px;"">Correct :)</p>","",""
"2543","key","v","v","16.675789473684027","500","250","psychophysics","227","845265","0.0-227.0","60f72f4f1341357926bf94cc","6213c8c8535641bc05c0276a","5","","","","","0","1"
"null","","","null","","","","html-keyboard-response","228","845780","0.0-228.0","60f72f4f1341357926bf94cc","6213c8c8535641bc05c0276a","","","","","<p style=""color:darkgreen;font-size:24px;"">Correct :)</p>","",""
"2568","key","v","v","16.60285714285693","500","250","psychophysics","229","848353","0.0-229.0","60f72f4f1341357926bf94cc","6213c8c8535641bc05c0276a","5","","","","","0","3"
"null","","","null","","","","html-keyboard-response","230","848859","0.0-230.0","60f72f4f1341357926bf94cc","6213c8c8535641bc05c0276a","","","","","<p style=""color:darkgreen;font-size:24px;"">Correct :)</p>","",""
"2651","key","v","v","16.641257861634987","500","250","psychophysics","231","851513","0.0-231.0","60f72f4f1341357926bf94cc","6213c8c8535641bc05c0276a","5","","","","","0","7"
"null","","","null","","","","html-keyboard-response","232","852019","0.0-232.0","60f72f4f1341357926bf94cc","6213c8c8535641bc05c0276a","","","","","<p style=""color:darkgreen;font-size:24px;"">Correct :)</p>","",""
"2722","key","n","n","16.68932515337415","500","250","psychophysics","233","854745","0.0-233.0","60f72f4f1341357926bf94cc","6213c8c8535641bc05c0276a","5","","","","","0","6"
"null","","","null","","","","html-keyboard-response","234","855258","0.0-234.0","60f72f4f1341357926bf94cc","6213c8c8535641bc05c0276a","","","","","<p style=""color:darkgreen;font-size:24px;"">Correct :)</p>","",""
"2604","key","v","v","16.673205128205247","500","250","psychophysics","235","857865","0.0-235.0","60f72f4f1341357926bf94cc","6213c8c8535641bc05c0276a","5","","","","","0","9"
"null","","","null","","","","html-keyboard-response","236","858370","0.0-236.0","60f72f4f1341357926bf94cc","6213c8c8535641bc05c0276a","","","","","<p style=""color:darkgreen;font-size:24px;"">Correct :)</p>","",""
"2675","key","n","n","16.60211180124261","500","250","psychophysics","237","861049","0.0-237.0","60f72f4f1341357926bf94cc","6213c8c8535641bc05c0276a","5","","","","","0","8"
"null","","","null","","","","html-keyboard-response","238","861563","0.0-238.0","60f72f4f1341357926bf94cc","6213c8c8535641bc05c0276a","","","","","<p style=""color:darkgreen;font-size:24px;"">Correct :)</p>","",""
"2579","key","v","v","16.66000000000009","500","250","psychophysics","239","864145","0.0-239.0","60f72f4f1341357926bf94cc","6213c8c8535641bc05c0276a","5","","","","","0","1"
"null","","","null","","","","html-keyboard-response","240","864655","0.0-240.0","60f72f4f1341357926bf94cc","6213c8c8535641bc05c0276a","","","","","<p style=""color:darkgreen;font-size:24px;"">Correct :)</p>","",""
"2653","key","n","n","16.604528301887495","500","250","psychophysics","241","867313","0.0-241.0","60f72f4f1341357926bf94cc","6213c8c8535641bc05c0276a","5","","","","","0","6"
"null","","","null","","","","html-keyboard-response","242","867822","0.0-242.0","60f72f4f1341357926bf94cc","6213c8c8535641bc05c0276a","","","","","<p style=""color:darkgreen;font-size:24px;"">Correct :)</p>","",""
"2687","key","n","n","16.620124223602282","500","250","psychophysics","243","870513","0.0-243.0","60f72f4f1341357926bf94cc","6213c8c8535641bc05c0276a","5","","","","","0","6"
"null","","","null","","","","html-keyboard-response","244","871025","0.0-244.0","60f72f4f1341357926bf94cc","6213c8c8535641bc05c0276a","","","","","<p style=""color:darkgreen;font-size:24px;"">Correct :)</p>","",""
"2628","key","v","v","16.60594936708855","500","250","psychophysics","245","873657","0.0-245.0","60f72f4f1341357926bf94cc","6213c8c8535641bc05c0276a","5","","","","","0","3"
"null","","","null","","","","html-keyboard-response","246","874164","0.0-246.0","60f72f4f1341357926bf94cc","6213c8c8535641bc05c0276a","","","","","<p style=""color:darkgreen;font-size:24px;"">Correct :)</p>","",""
"2593","key","n","n","16.68516129032228","500","250","psychophysics","247","876761","0.0-247.0","60f72f4f1341357926bf94cc","6213c8c8535641bc05c0276a","5","","","","","0","6"
"null","","","null","","","","html-keyboard-response","248","877265","0.0-248.0","60f72f4f1341357926bf94cc","6213c8c8535641bc05c0276a","","","","","<p style=""color:darkgreen;font-size:24px;"">Correct :)</p>","",""
"2572","key","v","v","16.695584415584385","500","250","psychophysics","249","879841","0.0-249.0","60f72f4f1341357926bf94cc","6213c8c8535641bc05c0276a","5","","","","","0","1"
"null","","","null","","","","html-keyboard-response","250","880356","0.0-250.0","60f72f4f1341357926bf94cc","6213c8c8535641bc05c0276a","","","","","<p style=""color:darkgreen;font-size:24px;"">Correct :)</p>","",""
"2851","key","n","n","16.663859649122916","500","250","psychophysics","251","883210","0.0-251.0","60f72f4f1341357926bf94cc","6213c8c8535641bc05c0276a","5","","","","","0","9"
"null","","","null","","","","html-keyboard-response","252","883723","0.0-252.0","60f72f4f1341357926bf94cc","6213c8c8535641bc05c0276a","","","","","<p style=""color:red;font-size:24px;"">Error :(</p>","",""
"2739","key","v","v","16.673292682927084","500","250","psychophysics","253","886465","0.0-253.0","60f72f4f1341357926bf94cc","6213c8c8535641bc05c0276a","5","","","","","0","1"
"null","","","null","","","","html-keyboard-response","254","886977","0.0-254.0","60f72f4f1341357926bf94cc","6213c8c8535641bc05c0276a","","","","","<p style=""color:darkgreen;font-size:24px;"">Correct :)</p>","",""
"2635","key","v","v","16.655696202531498","500","250","psychophysics","255","889617","0.0-255.0","60f72f4f1341357926bf94cc","6213c8c8535641bc05c0276a","5","","","","","0","7"
"null","","","null","","","","html-keyboard-response","256","890125","0.0-256.0","60f72f4f1341357926bf94cc","6213c8c8535641bc05c0276a","","","","","<p style=""color:darkgreen;font-size:24px;"">Correct :)</p>","",""
"2753","key","n","n","16.68703030303022","500","250","psychophysics","257","892881","0.0-257.0","60f72f4f1341357926bf94cc","6213c8c8535641bc05c0276a","5","","","","","0","4"
"null","","","null","","","","html-keyboard-response","258","893393","0.0-258.0","60f72f4f1341357926bf94cc","6213c8c8535641bc05c0276a","","","","","<p style=""color:darkgreen;font-size:24px;"">Correct :)</p>","",""
"2830","key","n","n","16.694235294117757","500","250","psychophysics","259","896234","0.0-259.0","60f72f4f1341357926bf94cc","6213c8c8535641bc05c0276a","5","","","","","0","2"
"null","","","null","","","","html-keyboard-response","260","896747","0.0-260.0","60f72f4f1341357926bf94cc","6213c8c8535641bc05c0276a","","","","","<p style=""color:darkgreen;font-size:24px;"">Correct :)</p>","",""
"2631","key","n","n","16.67278481012614","500","250","psychophysics","261","899387","0.0-261.0","60f72f4f1341357926bf94cc","6213c8c8535641bc05c0276a","5","","","","","0","8"
"null","","","null","","","","html-keyboard-response","262","899891","0.0-262.0","60f72f4f1341357926bf94cc","6213c8c8535641bc05c0276a","","","","","<p style=""color:darkgreen;font-size:24px;"">Correct :)</p>","",""
"2774","key","v","v","16.628982035928367","500","250","psychophysics","263","902673","0.0-263.0","60f72f4f1341357926bf94cc","6213c8c8535641bc05c0276a","5","","","","","0","9"
"null","","","null","","","","html-keyboard-response","264","903181","0.0-264.0","60f72f4f1341357926bf94cc","6213c8c8535641bc05c0276a","","","","","<p style=""color:darkgreen;font-size:24px;"">Correct :)</p>","",""
"2655","key","v","v","16.692578616352172","500","250","psychophysics","265","905841","0.0-265.0","60f72f4f1341357926bf94cc","6213c8c8535641bc05c0276a","5","","","","","0","7"
"null","","","null","","","","html-keyboard-response","266","906355","0.0-266.0","60f72f4f1341357926bf94cc","6213c8c8535641bc05c0276a","","","","","<p style=""color:darkgreen;font-size:24px;"">Correct :)</p>","",""
"2611","key","v","v","16.662435897436435","500","250","psychophysics","267","908969","0.0-267.0","60f72f4f1341357926bf94cc","6213c8c8535641bc05c0276a","5","","","","","0","1"
"null","","","null","","","","html-keyboard-response","268","909479","0.0-268.0","60f72f4f1341357926bf94cc","6213c8c8535641bc05c0276a","","","","","<p style=""color:darkgreen;font-size:24px;"">Correct :)</p>","",""
"2703","key","v","v","16.621604938272036","500","250","psychophysics","269","912185","0.0-269.0","60f72f4f1341357926bf94cc","6213c8c8535641bc05c0276a","5","","","","","0","9"
"null","","","null","","","","html-keyboard-response","270","912698","0.0-270.0","60f72f4f1341357926bf94cc","6213c8c8535641bc05c0276a","","","","","<p style=""color:darkgreen;font-size:24px;"">Correct :)</p>","",""
"2787","key","n","n","16.63005988024005","500","250","psychophysics","271","915489","0.0-271.0","60f72f4f1341357926bf94cc","6213c8c8535641bc05c0276a","5","","","","","0","6"
"null","","","null","","","","html-keyboard-response","272","915995","0.0-272.0","60f72f4f1341357926bf94cc","6213c8c8535641bc05c0276a","","","","","<p style=""color:darkgreen;font-size:24px;"">Correct :)</p>","",""
"2555","key","v","v","16.654117647059312","500","250","psychophysics","273","918553","0.0-273.0","60f72f4f1341357926bf94cc","6213c8c8535641bc05c0276a","5","","","","","0","7"
"null","","","null","","","","html-keyboard-response","274","919055","0.0-274.0","60f72f4f1341357926bf94cc","6213c8c8535641bc05c0276a","","","","","<p style=""color:darkgreen;font-size:24px;"">Correct :)</p>","",""
"2734","key","v","v","16.70957055214744","500","250","psychophysics","275","921792","0.0-275.0","60f72f4f1341357926bf94cc","6213c8c8535641bc05c0276a","5","","","","","0","7"
"null","","","null","","","","html-keyboard-response","276","922302","0.0-276.0","60f72f4f1341357926bf94cc","6213c8c8535641bc05c0276a","","","","","<p style=""color:darkgreen;font-size:24px;"">Correct :)</p>","",""
"2527","key","v","v","16.625","500","250","psychophysics","277","924833","0.0-277.0","60f72f4f1341357926bf94cc","6213c8c8535641bc05c0276a","5","","","","","0","9"
"null","","","null","","","","html-keyboard-response","278","925341","0.0-278.0","60f72f4f1341357926bf94cc","6213c8c8535641bc05c0276a","","","","","<p style=""color:darkgreen;font-size:24px;"">Correct :)</p>","",""
"2615","key","v","v","16.70064102564058","500","250","psychophysics","279","927961","0.0-279.0","60f72f4f1341357926bf94cc","6213c8c8535641bc05c0276a","5","","","","","0","3"
"null","","","null","","","","html-keyboard-response","280","928470","0.0-280.0","60f72f4f1341357926bf94cc","6213c8c8535641bc05c0276a","","","","","<p style=""color:darkgreen;font-size:24px;"">Correct :)</p>","",""
"2454","key","v","v","16.61714285714346","500","250","psychophysics","281","930928","0.0-281.0","60f72f4f1341357926bf94cc","6213c8c8535641bc05c0276a","5","","","","","0","9"
"null","","","null","","","","html-keyboard-response","282","931439","0.0-282.0","60f72f4f1341357926bf94cc","6213c8c8535641bc05c0276a","","","","","<p style=""color:darkgreen;font-size:24px;"">Correct :)</p>","",""
"2478","key","v","v","16.62053691275143","500","250","psychophysics","283","933921","0.0-283.0","60f72f4f1341357926bf94cc","6213c8c8535641bc05c0276a","5","","","","","0","9"
"null","","","null","","","","html-keyboard-response","284","934423","0.0-284.0","60f72f4f1341357926bf94cc","6213c8c8535641bc05c0276a","","","","","<p style=""color:darkgreen;font-size:24px;"">Correct :)</p>","",""
"2669","key","n","n","16.618999999999506","500","250","psychophysics","285","937097","0.0-285.0","60f72f4f1341357926bf94cc","6213c8c8535641bc05c0276a","5","","","","","0","8"
"null","","","null","","","","html-keyboard-response","286","937598","0.0-286.0","60f72f4f1341357926bf94cc","6213c8c8535641bc05c0276a","","","","","<p style=""color:darkgreen;font-size:24px;"">Correct :)</p>","",""
"2607","key","v","v","16.681794871794782","500","250","psychophysics","287","940209","0.0-287.0","60f72f4f1341357926bf94cc","6213c8c8535641bc05c0276a","5","","","","","0","1"
"null","","","null","","","","html-keyboard-response","288","940719","0.0-288.0","60f72f4f1341357926bf94cc","6213c8c8535641bc05c0276a","","","","","<p style=""color:darkgreen;font-size:24px;"">Correct :)</p>","",""
"2614","key","n","n","16.66205128205146","500","250","psychophysics","289","943337","0.0-289.0","60f72f4f1341357926bf94cc","6213c8c8535641bc05c0276a","5","","","","","0","4"
"null","","","null","","","","html-keyboard-response","290","943847","0.0-290.0","60f72f4f1341357926bf94cc","6213c8c8535641bc05c0276a","","","","","<p style=""color:darkgreen;font-size:24px;"">Correct :)</p>","",""
"2709","key","v","v","16.604049079754372","500","250","psychophysics","291","946560","0.0-291.0","60f72f4f1341357926bf94cc","6213c8c8535641bc05c0276a","5","","","","","0","9"
"null","","","null","","","","html-keyboard-response","292","947069","0.0-292.0","60f72f4f1341357926bf94cc","6213c8c8535641bc05c0276a","","","","","<p style=""color:darkgreen;font-size:24px;"">Correct :)</p>","",""
"2655","key","v","v","16.684025157232764","500","250","psychophysics","293","949728","0.0-293.0","60f72f4f1341357926bf94cc","6213c8c8535641bc05c0276a","5","","","","","0","7"
"null","","","null","","","","html-keyboard-response","294","950231","0.0-294.0","60f72f4f1341357926bf94cc","6213c8c8535641bc05c0276a","","","","","<p style=""color:darkgreen;font-size:24px;"">Correct :)</p>","",""
"29472","","","v","","","","html-keyboard-response","295","979705","0.0-295.0","60f72f4f1341357926bf94cc","6213c8c8535641bc05c0276a","","","","","<p> Here, the tasks are going to switch.  For some trials, your job is to decide if the digit is less than or greater than 5.  For others, it is to decide if the digit is even or odd.  You will be told which type of trial the current one is.  But, pay attention, the type of trial changes too.  We are going to do 50 of these.  </p>  <br><br>  Ready? (press v or n)","",""
"2675","key","n","n","16.70274999999965","500","250","psychophysics","296","982385","0.0-296.0","60f72f4f1341357926bf94cc","6213c8c8535641bc05c0276a","6","","","","","1","8"
"null","","","null","","","","html-keyboard-response","297","982896","0.0-297.0","60f72f4f1341357926bf94cc","6213c8c8535641bc05c0276a","","","","","<p style=""color:darkgreen;font-size:24px;"">Correct :)</p>","",""
"2995","key","v","v","16.668044692737197","500","250","psychophysics","298","985896","0.0-298.0","60f72f4f1341357926bf94cc","6213c8c8535641bc05c0276a","6","","","","","0","9"
"null","","","null","","","","html-keyboard-response","299","986411","0.0-299.0","60f72f4f1341357926bf94cc","6213c8c8535641bc05c0276a","","","","","<p style=""color:darkgreen;font-size:24px;"">Correct :)</p>","",""
"2697","key","n","n","16.695527950310442","500","250","psychophysics","300","989112","0.0-300.0","60f72f4f1341357926bf94cc","6213c8c8535641bc05c0276a","6","","","","","1","7"
"null","","","null","","","","html-keyboard-response","301","989620","0.0-301.0","60f72f4f1341357926bf94cc","6213c8c8535641bc05c0276a","","","","","<p style=""color:darkgreen;font-size:24px;"">Correct :)</p>","",""
"2687","key","n","n","16.64708074534121","500","250","psychophysics","302","992312","0.0-302.0","60f72f4f1341357926bf94cc","6213c8c8535641bc05c0276a","6","","","","","0","2"
"null","","","null","","","","html-keyboard-response","303","992819","0.0-303.0","60f72f4f1341357926bf94cc","6213c8c8535641bc05c0276a","","","","","<p style=""color:darkgreen;font-size:24px;"">Correct :)</p>","",""
"2608","key","n","n","16.669487179487568","500","250","psychophysics","304","995432","0.0-304.0","60f72f4f1341357926bf94cc","6213c8c8535641bc05c0276a","6","","","","","0","4"
"null","","","null","","","","html-keyboard-response","305","995942","0.0-305.0","60f72f4f1341357926bf94cc","6213c8c8535641bc05c0276a","","","","","<p style=""color:darkgreen;font-size:24px;"">Correct :)</p>","",""
"2677","key","v","v","16.63515527950244","500","250","psychophysics","306","998625","0.0-306.0","60f72f4f1341357926bf94cc","6213c8c8535641bc05c0276a","6","","","","","1","2"
"null","","","null","","","","html-keyboard-response","307","999139","0.0-307.0","60f72f4f1341357926bf94cc","6213c8c8535641bc05c0276a","","","","","<p style=""color:darkgreen;font-size:24px;"">Correct :)</p>","",""
"2913","key","v","v","16.677931034482544","500","250","psychophysics","308","1002056","0.0-308.0","60f72f4f1341357926bf94cc","6213c8c8535641bc05c0276a","6","","","","","1","4"
"null","","","null","","","","html-keyboard-response","309","1002558","0.0-309.0","60f72f4f1341357926bf94cc","6213c8c8535641bc05c0276a","","","","","<p style=""color:darkgreen;font-size:24px;"">Correct :)</p>","",""
"2927","key","v","v","16.68160000000016","500","250","psychophysics","310","1005489","0.0-310.0","60f72f4f1341357926bf94cc","6213c8c8535641bc05c0276a","6","","","","","0","1"
"null","","","null","","","","html-keyboard-response","311","1006000","0.0-311.0","60f72f4f1341357926bf94cc","6213c8c8535641bc05c0276a","","","","","<p style=""color:darkgreen;font-size:24px;"">Correct :)</p>","",""
"2867","key","v","v","16.650465116279097","500","250","psychophysics","312","1008872","0.0-312.0","60f72f4f1341357926bf94cc","6213c8c8535641bc05c0276a","6","","","","","1","1"
"null","","","null","","","","html-keyboard-response","313","1009384","0.0-313.0","60f72f4f1341357926bf94cc","6213c8c8535641bc05c0276a","","","","","<p style=""color:darkgreen;font-size:24px;"">Correct :)</p>","",""
"2501","key","v","v","16.65506666666673","500","250","psychophysics","314","1011888","0.0-314.0","60f72f4f1341357926bf94cc","6213c8c8535641bc05c0276a","6","","","","","0","1"
"null","","","null","","","","html-keyboard-response","315","1012390","0.0-315.0","60f72f4f1341357926bf94cc","6213c8c8535641bc05c0276a","","","","","<p style=""color:darkgreen;font-size:24px;"">Correct :)</p>","",""
"2725","key","v","v","16.620243902439565","500","250","psychophysics","316","1015120","0.0-316.0","60f72f4f1341357926bf94cc","6213c8c8535641bc05c0276a","6","","","","","0","9"
"null","","","null","","","","html-keyboard-response","317","1015634","0.0-317.0","60f72f4f1341357926bf94cc","6213c8c8535641bc05c0276a","","","","","<p style=""color:darkgreen;font-size:24px;"">Correct :)</p>","",""
"2481","key","v","v","16.663892617449946","500","250","psychophysics","318","1018121","0.0-318.0","60f72f4f1341357926bf94cc","6213c8c8535641bc05c0276a","6","","","","","1","2"
"null","","","null","","","","html-keyboard-response","319","1018633","0.0-319.0","60f72f4f1341357926bf94cc","6213c8c8535641bc05c0276a","","","","","<p style=""color:darkgreen;font-size:24px;"">Correct :)</p>","",""
"2767","key","n","n","16.68975903614458","500","250","psychophysics","320","1021408","0.0-320.0","60f72f4f1341357926bf94cc","6213c8c8535641bc05c0276a","6","","","","","0","8"
"null","","","null","","","","html-keyboard-response","321","1021924","0.0-321.0","60f72f4f1341357926bf94cc","6213c8c8535641bc05c0276a","","","","","<p style=""color:darkgreen;font-size:24px;"">Correct :)</p>","",""
"2662","key","v","v","16.648999999999795","500","250","psychophysics","322","1024593","0.0-322.0","60f72f4f1341357926bf94cc","6213c8c8535641bc05c0276a","6","","","","","1","1"
"null","","","null","","","","html-keyboard-response","323","1025109","0.0-323.0","60f72f4f1341357926bf94cc","6213c8c8535641bc05c0276a","","","","","<p style=""color:darkgreen;font-size:24px;"">Correct :)</p>","",""
"2605","key","v","v","16.648589743589326","500","250","psychophysics","324","1027720","0.0-324.0","60f72f4f1341357926bf94cc","6213c8c8535641bc05c0276a","6","","","","","1","4"
"null","","","null","","","","html-keyboard-response","325","1028228","0.0-325.0","60f72f4f1341357926bf94cc","6213c8c8535641bc05c0276a","","","","","<p style=""color:darkgreen;font-size:24px;"">Correct :)</p>","",""
"2583","key","n","n","16.63483870967757","500","250","psychophysics","326","1030817","0.0-326.0","60f72f4f1341357926bf94cc","6213c8c8535641bc05c0276a","6","","","","","0","6"
"null","","","null","","","","html-keyboard-response","327","1031326","0.0-327.0","60f72f4f1341357926bf94cc","6213c8c8535641bc05c0276a","","","","","<p style=""color:darkgreen;font-size:24px;"">Correct :)</p>","",""
"2549","key","v","v","16.656470588234928","500","250","psychophysics","328","1033880","0.0-328.0","60f72f4f1341357926bf94cc","6213c8c8535641bc05c0276a","6","","","","","1","1"
"null","","","null","","","","html-keyboard-response","329","1034382","0.0-329.0","60f72f4f1341357926bf94cc","6213c8c8535641bc05c0276a","","","","","<p style=""color:darkgreen;font-size:24px;"">Correct :)</p>","",""
"2573","key","n","n","16.621948051948234","500","250","psychophysics","330","1036959","0.0-330.0","60f72f4f1341357926bf94cc","6213c8c8535641bc05c0276a","6","","","","","1","6"
"null","","","null","","","","html-keyboard-response","331","1037466","0.0-331.0","60f72f4f1341357926bf94cc","6213c8c8535641bc05c0276a","","","","","<p style=""color:darkgreen;font-size:24px;"">Correct :)</p>","",""
"2489","key","v","v","16.62912751677846","500","250","psychophysics","332","1039960","0.0-332.0","60f72f4f1341357926bf94cc","6213c8c8535641bc05c0276a","6","","","","","1","2"
"null","","","null","","","","html-keyboard-response","333","1040471","0.0-333.0","60f72f4f1341357926bf94cc","6213c8c8535641bc05c0276a","","","","","<p style=""color:darkgreen;font-size:24px;"">Correct :)</p>","",""
"2637","key","n","n","16.606202531645746","500","250","psychophysics","334","1043112","0.0-334.0","60f72f4f1341357926bf94cc","6213c8c8535641bc05c0276a","6","","","","","1","8"
"null","","","null","","","","html-keyboard-response","335","1043620","0.0-335.0","60f72f4f1341357926bf94cc","6213c8c8535641bc05c0276a","","","","","<p style=""color:darkgreen;font-size:24px;"">Correct :)</p>","",""
"2560","key","n","n","16.620519480519086","500","250","psychophysics","336","1046184","0.0-336.0","60f72f4f1341357926bf94cc","6213c8c8535641bc05c0276a","6","","","","","0","6"
"null","","","null","","","","html-keyboard-response","337","1046699","0.0-337.0","60f72f4f1341357926bf94cc","6213c8c8535641bc05c0276a","","","","","<p style=""color:darkgreen;font-size:24px;"">Correct :)</p>","",""
"2681","key","v","v","16.65391304347771","500","250","psychophysics","338","1049385","0.0-338.0","60f72f4f1341357926bf94cc","6213c8c8535641bc05c0276a","6","","","","","1","4"
"null","","","null","","","","html-keyboard-response","339","1049887","0.0-339.0","60f72f4f1341357926bf94cc","6213c8c8535641bc05c0276a","","","","","<p style=""color:darkgreen;font-size:24px;"">Correct :)</p>","",""
"2716","key","v","v","16.647852760736768","500","250","psychophysics","340","1052608","0.0-340.0","60f72f4f1341357926bf94cc","6213c8c8535641bc05c0276a","6","","","","","1","4"
"null","","","null","","","","html-keyboard-response","341","1053113","0.0-341.0","60f72f4f1341357926bf94cc","6213c8c8535641bc05c0276a","","","","","<p style=""color:darkgreen;font-size:24px;"">Correct :)</p>","",""
"2834","key","n","n","16.69597633136023","500","250","psychophysics","342","1055952","0.0-342.0","60f72f4f1341357926bf94cc","6213c8c8535641bc05c0276a","6","","","","","1","6"
"null","","","null","","","","html-keyboard-response","343","1056453","0.0-343.0","60f72f4f1341357926bf94cc","6213c8c8535641bc05c0276a","","","","","<p style=""color:darkgreen;font-size:24px;"">Correct :)</p>","",""
"2559","key","n","n","16.669673202614135","500","250","psychophysics","344","1059016","0.0-344.0","60f72f4f1341357926bf94cc","6213c8c8535641bc05c0276a","6","","","","","0","2"
"null","","","null","","","","html-keyboard-response","345","1059527","0.0-345.0","60f72f4f1341357926bf94cc","6213c8c8535641bc05c0276a","","","","","<p style=""color:darkgreen;font-size:24px;"">Correct :)</p>","",""
"2533","key","v","v","16.631710526315914","500","250","psychophysics","346","1062064","0.0-346.0","60f72f4f1341357926bf94cc","6213c8c8535641bc05c0276a","6","","","","","0","6"
"null","","","null","","","","html-keyboard-response","347","1062573","0.0-347.0","60f72f4f1341357926bf94cc","6213c8c8535641bc05c0276a","","","","","<p style=""color:red;font-size:24px;"">Error :(</p>","",""
"2822","key","v","v","16.6699408284022","500","250","psychophysics","348","1065400","0.0-348.0","60f72f4f1341357926bf94cc","6213c8c8535641bc05c0276a","6","","","","","0","2"
"null","","","null","","","","html-keyboard-response","349","1065910","0.0-349.0","60f72f4f1341357926bf94cc","6213c8c8535641bc05c0276a","","","","","<p style=""color:red;font-size:24px;"">Error :(</p>","",""
"3269","key","v","v","16.672448979592076","500","250","psychophysics","350","1069184","0.0-350.0","60f72f4f1341357926bf94cc","6213c8c8535641bc05c0276a","6","","","","","0","7"
"null","","","null","","","","html-keyboard-response","351","1069697","0.0-351.0","60f72f4f1341357926bf94cc","6213c8c8535641bc05c0276a","","","","","<p style=""color:darkgreen;font-size:24px;"">Correct :)</p>","",""
"2963","key","n","n","16.675819209040178","500","250","psychophysics","352","1072664","0.0-352.0","60f72f4f1341357926bf94cc","6213c8c8535641bc05c0276a","6","","","","","0","4"
"null","","","null","","","","html-keyboard-response","353","1073167","0.0-353.0","60f72f4f1341357926bf94cc","6213c8c8535641bc05c0276a","","","","","<p style=""color:darkgreen;font-size:24px;"">Correct :)</p>","",""
"2638","key","v","v","16.66240506329208","500","250","psychophysics","354","1075809","0.0-354.0","60f72f4f1341357926bf94cc","6213c8c8535641bc05c0276a","6","","","","","1","4"
"null","","","null","","","","html-keyboard-response","355","1076323","0.0-355.0","60f72f4f1341357926bf94cc","6213c8c8535641bc05c0276a","","","","","<p style=""color:darkgreen;font-size:24px;"">Correct :)</p>","",""
"3020","key","n","n","16.648508287293488","500","250","psychophysics","356","1079352","0.0-356.0","60f72f4f1341357926bf94cc","6213c8c8535641bc05c0276a","6","","","","","1","7"
"null","","","null","","","","html-keyboard-response","357","1079868","0.0-357.0","60f72f4f1341357926bf94cc","6213c8c8535641bc05c0276a","","","","","<p style=""color:darkgreen;font-size:24px;"">Correct :)</p>","",""
"2582","key","n","n","16.69077922078001","500","250","psychophysics","358","1082455","0.0-358.0","60f72f4f1341357926bf94cc","6213c8c8535641bc05c0276a","6","","","","","0","4"
"null","","","null","","","","html-keyboard-response","359","1082960","0.0-359.0","60f72f4f1341357926bf94cc","6213c8c8535641bc05c0276a","","","","","<p style=""color:darkgreen;font-size:24px;"">Correct :)</p>","",""
"3224","key","n","n","16.661554404145946","500","250","psychophysics","360","1086191","0.0-360.0","60f72f4f1341357926bf94cc","6213c8c8535641bc05c0276a","6","","","","","0","2"
"null","","","null","","","","html-keyboard-response","361","1086697","0.0-361.0","60f72f4f1341357926bf94cc","6213c8c8535641bc05c0276a","","","","","<p style=""color:darkgreen;font-size:24px;"">Correct :)</p>","",""
"2538","key","n","n","16.651052631578704","500","250","psychophysics","362","1089240","0.0-362.0","60f72f4f1341357926bf94cc","6213c8c8535641bc05c0276a","6","","","","","0","4"
"null","","","null","","","","html-keyboard-response","363","1089741","0.0-363.0","60f72f4f1341357926bf94cc","6213c8c8535641bc05c0276a","","","","","<p style=""color:darkgreen;font-size:24px;"">Correct :)</p>","",""
"2566","key","n","n","16.695816993463808","500","250","psychophysics","364","1092311","0.0-364.0","60f72f4f1341357926bf94cc","6213c8c8535641bc05c0276a","6","","","","","1","7"
"null","","","null","","","","html-keyboard-response","365","1092823","0.0-365.0","60f72f4f1341357926bf94cc","6213c8c8535641bc05c0276a","","","","","<p style=""color:darkgreen;font-size:24px;"">Correct :)</p>","",""
"2556","key","v","v","16.59948051948094","500","250","psychophysics","366","1095384","0.0-366.0","60f72f4f1341357926bf94cc","6213c8c8535641bc05c0276a","6","","","","","0","3"
"null","","","null","","","","html-keyboard-response","367","1095902","0.0-367.0","60f72f4f1341357926bf94cc","6213c8c8535641bc05c0276a","","","","","<p style=""color:darkgreen;font-size:24px;"">Correct :)</p>","",""
"2677","key","n","n","16.64099378882103","500","250","psychophysics","368","1098584","0.0-368.0","60f72f4f1341357926bf94cc","6213c8c8535641bc05c0276a","6","","","","","0","2"
"null","","","null","","","","html-keyboard-response","369","1099097","0.0-369.0","60f72f4f1341357926bf94cc","6213c8c8535641bc05c0276a","","","","","<p style=""color:darkgreen;font-size:24px;"">Correct :)</p>","",""
"2578","key","v","v","16.676753246754576","500","250","psychophysics","370","1101679","0.0-370.0","60f72f4f1341357926bf94cc","6213c8c8535641bc05c0276a","6","","","","","1","4"
"null","","","null","","","","html-keyboard-response","371","1102195","0.0-371.0","60f72f4f1341357926bf94cc","6213c8c8535641bc05c0276a","","","","","<p style=""color:darkgreen;font-size:24px;"">Correct :)</p>","",""
"2648","key","v","v","16.599748427672136","500","250","psychophysics","372","1104847","0.0-372.0","60f72f4f1341357926bf94cc","6213c8c8535641bc05c0276a","6","","","","","0","1"
"null","","","null","","","","html-keyboard-response","373","1105360","0.0-373.0","60f72f4f1341357926bf94cc","6213c8c8535641bc05c0276a","","","","","<p style=""color:darkgreen;font-size:24px;"">Correct :)</p>","",""
"3221","key","n","n","16.64642487046637","500","250","psychophysics","374","1108585","0.0-374.0","60f72f4f1341357926bf94cc","6213c8c8535641bc05c0276a","6","","","","","1","7"
"null","","","null","","","","html-keyboard-response","375","1109091","0.0-375.0","60f72f4f1341357926bf94cc","6213c8c8535641bc05c0276a","","","","","<p style=""color:darkgreen;font-size:24px;"">Correct :)</p>","",""
"3358","key","v","v","16.686965174128567","500","250","psychophysics","376","1112455","0.0-376.0","60f72f4f1341357926bf94cc","6213c8c8535641bc05c0276a","6","","","","","1","4"
"null","","","null","","","","html-keyboard-response","377","1112960","0.0-377.0","60f72f4f1341357926bf94cc","6213c8c8535641bc05c0276a","","","","","<p style=""color:darkgreen;font-size:24px;"">Correct :)</p>","",""
"2970","key","n","n","16.693146067415103","500","250","psychophysics","378","1115936","0.0-378.0","60f72f4f1341357926bf94cc","6213c8c8535641bc05c0276a","6","","","","","0","4"
"null","","","null","","","","html-keyboard-response","379","1116448","0.0-379.0","60f72f4f1341357926bf94cc","6213c8c8535641bc05c0276a","","","","","<p style=""color:darkgreen;font-size:24px;"">Correct :)</p>","",""
"2891","key","v","v","16.688554913295444","500","250","psychophysics","380","1119343","0.0-380.0","60f72f4f1341357926bf94cc","6213c8c8535641bc05c0276a","6","","","","","1","2"
"null","","","null","","","","html-keyboard-response","381","1119852","0.0-381.0","60f72f4f1341357926bf94cc","6213c8c8535641bc05c0276a","","","","","<p style=""color:darkgreen;font-size:24px;"">Correct :)</p>","",""
"2527","key","v","v","16.66728476821198","500","250","psychophysics","382","1122383","0.0-382.0","60f72f4f1341357926bf94cc","6213c8c8535641bc05c0276a","6","","","","","0","3"
"null","","","null","","","","html-keyboard-response","383","1122886","0.0-383.0","60f72f4f1341357926bf94cc","6213c8c8535641bc05c0276a","","","","","<p style=""color:darkgreen;font-size:24px;"">Correct :)</p>","",""
"2653","key","v","v","16.673459119497323","500","250","psychophysics","384","1125543","0.0-384.0","60f72f4f1341357926bf94cc","6213c8c8535641bc05c0276a","6","","","","","1","2"
"null","","","null","","","","html-keyboard-response","385","1126048","0.0-385.0","60f72f4f1341357926bf94cc","6213c8c8535641bc05c0276a","","","","","<p style=""color:darkgreen;font-size:24px;"">Correct :)</p>","",""
"2651","key","n","n","16.60691823899371","500","250","psychophysics","386","1128703","0.0-386.0","60f72f4f1341357926bf94cc","6213c8c8535641bc05c0276a","6","","","","","1","7"
"null","","","null","","","","html-keyboard-response","387","1129208","0.0-387.0","60f72f4f1341357926bf94cc","6213c8c8535641bc05c0276a","","","","","<p style=""color:darkgreen;font-size:24px;"">Correct :)</p>","",""
"2802","key","v","v","16.668571428571816","500","250","psychophysics","388","1132015","0.0-388.0","60f72f4f1341357926bf94cc","6213c8c8535641bc05c0276a","6","","","","","1","3"
"null","","","null","","","","html-keyboard-response","389","1132526","0.0-389.0","60f72f4f1341357926bf94cc","6213c8c8535641bc05c0276a","","","","","<p style=""color:darkgreen;font-size:24px;"">Correct :)</p>","",""
"2582","key","v","v","16.661290322580644","500","250","psychophysics","390","1135112","0.0-390.0","60f72f4f1341357926bf94cc","6213c8c8535641bc05c0276a","6","","","","","1","1"
"null","","","null","","","","html-keyboard-response","391","1135620","0.0-391.0","60f72f4f1341357926bf94cc","6213c8c8535641bc05c0276a","","","","","<p style=""color:darkgreen;font-size:24px;"">Correct :)</p>","",""
"2640","key","v","v","16.60150943396162","500","250","psychophysics","392","1138264","0.0-392.0","60f72f4f1341357926bf94cc","6213c8c8535641bc05c0276a","6","","","","","0","3"
"null","","","null","","","","html-keyboard-response","393","1138769","0.0-393.0","60f72f4f1341357926bf94cc","6213c8c8535641bc05c0276a","","","","","<p style=""color:darkgreen;font-size:24px;"">Correct :)</p>","",""
"2537","key","v","v","16.622894736841676","500","250","psychophysics","394","1141311","0.0-394.0","60f72f4f1341357926bf94cc","6213c8c8535641bc05c0276a","6","","","","","0","7"
"null","","","null","","","","html-keyboard-response","395","1141820","0.0-395.0","60f72f4f1341357926bf94cc","6213c8c8535641bc05c0276a","","","","","<p style=""color:darkgreen;font-size:24px;"">Correct :)</p>","",""
"8450","","","v","","","","html-keyboard-response","396","1150271","0.0-396.0","60f72f4f1341357926bf94cc","6213c8c8535641bc05c0276a","","","","","<p> Last set of trials.  Here, the tasks are going to switch once again.  We are going to do 50 of these.  And then you are done with the experiment.  </p>  <br><br>  Ready? (press v or n)","",""
"3067","key","n","n","16.635000000000456","500","250","psychophysics","397","1153343","0.0-397.0","60f72f4f1341357926bf94cc","6213c8c8535641bc05c0276a","7","","","","","1","7"
"null","","","null","","","","html-keyboard-response","398","1153857","0.0-398.0","60f72f4f1341357926bf94cc","6213c8c8535641bc05c0276a","","","","","<p style=""color:darkgreen;font-size:24px;"">Correct :)</p>","",""
"2562","key","v","v","16.609350649349683","500","250","psychophysics","399","1156422","0.0-399.0","60f72f4f1341357926bf94cc","6213c8c8535641bc05c0276a","7","","","","","0","1"
"null","","","null","","","","html-keyboard-response","400","1156934","0.0-400.0","60f72f4f1341357926bf94cc","6213c8c8535641bc05c0276a","","","","","<p style=""color:darkgreen;font-size:24px;"">Correct :)</p>","",""
"2739","key","v","v","16.669146341463357","500","250","psychophysics","401","1159678","0.0-401.0","60f72f4f1341357926bf94cc","6213c8c8535641bc05c0276a","7","","","","","0","7"
"null","","","null","","","","html-keyboard-response","402","1160193","0.0-402.0","60f72f4f1341357926bf94cc","6213c8c8535641bc05c0276a","","","","","<p style=""color:darkgreen;font-size:24px;"">Correct :)</p>","",""
"2506","key","v","v","16.61653333333321","500","250","psychophysics","403","1162703","0.0-403.0","60f72f4f1341357926bf94cc","6213c8c8535641bc05c0276a","7","","","","","1","3"
"null","","","null","","","","html-keyboard-response","404","1163216","0.0-404.0","60f72f4f1341357926bf94cc","6213c8c8535641bc05c0276a","","","","","<p style=""color:darkgreen;font-size:24px;"">Correct :)</p>","",""
"2523","key","n","n","16.693112582782444","500","250","psychophysics","405","1165743","0.0-405.0","60f72f4f1341357926bf94cc","6213c8c8535641bc05c0276a","7","","","","","0","4"
"null","","","null","","","","html-keyboard-response","406","1166253","0.0-406.0","60f72f4f1341357926bf94cc","6213c8c8535641bc05c0276a","","","","","<p style=""color:darkgreen;font-size:24px;"">Correct :)</p>","",""
"2661","key","v","v","16.670314465409273","500","250","psychophysics","407","1168919","0.0-407.0","60f72f4f1341357926bf94cc","6213c8c8535641bc05c0276a","7","","","","","0","7"
"null","","","null","","","","html-keyboard-response","408","1169422","0.0-408.0","60f72f4f1341357926bf94cc","6213c8c8535641bc05c0276a","","","","","<p style=""color:darkgreen;font-size:24px;"">Correct :)</p>","",""
"2629","key","v","v","16.6695541401281","500","250","psychophysics","409","1172054","0.0-409.0","60f72f4f1341357926bf94cc","6213c8c8535641bc05c0276a","7","","","","","1","1"
"null","","","null","","","","html-keyboard-response","410","1172565","0.0-410.0","60f72f4f1341357926bf94cc","6213c8c8535641bc05c0276a","","","","","<p style=""color:darkgreen;font-size:24px;"">Correct :)</p>","",""
"2575","key","v","v","16.616129032258065","500","250","psychophysics","411","1175144","0.0-411.0","60f72f4f1341357926bf94cc","6213c8c8535641bc05c0276a","7","","","","","0","1"
"null","","","null","","","","html-keyboard-response","412","1175659","0.0-412.0","60f72f4f1341357926bf94cc","6213c8c8535641bc05c0276a","","","","","<p style=""color:darkgreen;font-size:24px;"">Correct :)</p>","",""
"2961","key","n","n","16.673672316384128","500","250","psychophysics","413","1178624","0.0-413.0","60f72f4f1341357926bf94cc","6213c8c8535641bc05c0276a","7","","","","","0","2"
"null","","","null","","","","html-keyboard-response","414","1179136","0.0-414.0","60f72f4f1341357926bf94cc","6213c8c8535641bc05c0276a","","","","","<p style=""color:darkgreen;font-size:24px;"">Correct :)</p>","",""
"2625","key","n","n","16.62544303797362","500","250","psychophysics","415","1181767","0.0-415.0","60f72f4f1341357926bf94cc","6213c8c8535641bc05c0276a","7","","","","","0","6"
"null","","","null","","","","html-keyboard-response","416","1182270","0.0-416.0","60f72f4f1341357926bf94cc","6213c8c8535641bc05c0276a","","","","","<p style=""color:darkgreen;font-size:24px;"">Correct :)</p>","",""
"2746","key","n","n","16.62557575757559","500","250","psychophysics","417","1185023","0.0-417.0","60f72f4f1341357926bf94cc","6213c8c8535641bc05c0276a","7","","","","","0","2"
"null","","","null","","","","html-keyboard-response","418","1185530","0.0-418.0","60f72f4f1341357926bf94cc","6213c8c8535641bc05c0276a","","","","","<p style=""color:darkgreen;font-size:24px;"">Correct :)</p>","",""
"2541","key","n","n","16.67447368421065","500","250","psychophysics","419","1188079","0.0-419.0","60f72f4f1341357926bf94cc","6213c8c8535641bc05c0276a","7","","","","","1","6"
"null","","","null","","","","html-keyboard-response","420","1188595","0.0-420.0","60f72f4f1341357926bf94cc","6213c8c8535641bc05c0276a","","","","","<p style=""color:darkgreen;font-size:24px;"">Correct :)</p>","",""
"2847","key","n","n","16.701764705882628","500","250","psychophysics","421","1191447","0.0-421.0","60f72f4f1341357926bf94cc","6213c8c8535641bc05c0276a","7","","","","","0","2"
"null","","","null","","","","html-keyboard-response","422","1191962","0.0-422.0","60f72f4f1341357926bf94cc","6213c8c8535641bc05c0276a","","","","","<p style=""color:darkgreen;font-size:24px;"">Correct :)</p>","",""
"2609","key","v","v","16.6073885350325","500","250","psychophysics","423","1194575","0.0-423.0","60f72f4f1341357926bf94cc","6213c8c8535641bc05c0276a","7","","","","","0","1"
"null","","","null","","","","html-keyboard-response","424","1195089","0.0-424.0","60f72f4f1341357926bf94cc","6213c8c8535641bc05c0276a","","","","","<p style=""color:darkgreen;font-size:24px;"">Correct :)</p>","",""
"2618","key","n","n","16.656305732484313","500","250","psychophysics","425","1197711","0.0-425.0","60f72f4f1341357926bf94cc","6213c8c8535641bc05c0276a","7","","","","","0","2"
"null","","","null","","","","html-keyboard-response","426","1198226","0.0-426.0","60f72f4f1341357926bf94cc","6213c8c8535641bc05c0276a","","","","","<p style=""color:darkgreen;font-size:24px;"">Correct :)</p>","",""
"2808","key","v","v","16.6479761904768","500","250","psychophysics","427","1201039","0.0-427.0","60f72f4f1341357926bf94cc","6213c8c8535641bc05c0276a","7","","","","","0","7"
"null","","","null","","","","html-keyboard-response","428","1201551","0.0-428.0","60f72f4f1341357926bf94cc","6213c8c8535641bc05c0276a","","","","","<p style=""color:darkgreen;font-size:24px;"">Correct :)</p>","",""
"2698","key","n","n","16.6048148148147","500","250","psychophysics","429","1204255","0.0-429.0","60f72f4f1341357926bf94cc","6213c8c8535641bc05c0276a","7","","","","","0","6"
"null","","","null","","","","html-keyboard-response","430","1204757","0.0-430.0","60f72f4f1341357926bf94cc","6213c8c8535641bc05c0276a","","","","","<p style=""color:darkgreen;font-size:24px;"">Correct :)</p>","",""
"2589","key","n","n","16.68283870967796","500","250","psychophysics","431","1207351","0.0-431.0","60f72f4f1341357926bf94cc","6213c8c8535641bc05c0276a","7","","","","","1","6"
"null","","","null","","","","html-keyboard-response","432","1207859","0.0-432.0","60f72f4f1341357926bf94cc","6213c8c8535641bc05c0276a","","","","","<p style=""color:darkgreen;font-size:24px;"">Correct :)</p>","",""
"2606","key","n","n","16.671153846153548","500","250","psychophysics","433","1210471","0.0-433.0","60f72f4f1341357926bf94cc","6213c8c8535641bc05c0276a","7","","","","","0","4"
"null","","","null","","","","html-keyboard-response","434","1210979","0.0-434.0","60f72f4f1341357926bf94cc","6213c8c8535641bc05c0276a","","","","","<p style=""color:darkgreen;font-size:24px;"">Correct :)</p>","",""
"2711","key","v","v","16.664567901235486","500","250","psychophysics","435","1213695","0.0-435.0","60f72f4f1341357926bf94cc","6213c8c8535641bc05c0276a","7","","","","","0","3"
"null","","","null","","","","html-keyboard-response","436","1214210","0.0-436.0","60f72f4f1341357926bf94cc","6213c8c8535641bc05c0276a","","","","","<p style=""color:darkgreen;font-size:24px;"">Correct :)</p>","",""
"2705","key","v","v","16.69370370370445","500","250","psychophysics","437","1216919","0.0-437.0","60f72f4f1341357926bf94cc","6213c8c8535641bc05c0276a","7","","","","","1","2"
"null","","","null","","","","html-keyboard-response","438","1217420","0.0-438.0","60f72f4f1341357926bf94cc","6213c8c8535641bc05c0276a","","","","","<p style=""color:darkgreen;font-size:24px;"">Correct :)</p>","",""
"2695","key","v","v","16.642345679012692","500","250","psychophysics","439","1220120","0.0-439.0","60f72f4f1341357926bf94cc","6213c8c8535641bc05c0276a","7","","","","","1","3"
"null","","","null","","","","html-keyboard-response","440","1220636","0.0-440.0","60f72f4f1341357926bf94cc","6213c8c8535641bc05c0276a","","","","","<p style=""color:darkgreen;font-size:24px;"">Correct :)</p>","",""
"2670","key","n","n","16.657374999999593","500","250","psychophysics","441","1223310","0.0-441.0","60f72f4f1341357926bf94cc","6213c8c8535641bc05c0276a","7","","","","","1","6"
"null","","","null","","","","html-keyboard-response","442","1223826","0.0-442.0","60f72f4f1341357926bf94cc","6213c8c8535641bc05c0276a","","","","","<p style=""color:darkgreen;font-size:24px;"">Correct :)</p>","",""
"2615","key","v","v","16.62216560509661","500","250","psychophysics","443","1226446","0.0-443.0","60f72f4f1341357926bf94cc","6213c8c8535641bc05c0276a","7","","","","","0","7"
"null","","","null","","","","html-keyboard-response","444","1226955","0.0-444.0","60f72f4f1341357926bf94cc","6213c8c8535641bc05c0276a","","","","","<p style=""color:darkgreen;font-size:24px;"">Correct :)</p>","",""
"2639","key","n","n","16.658101265822665","500","250","psychophysics","445","1229598","0.0-445.0","60f72f4f1341357926bf94cc","6213c8c8535641bc05c0276a","7","","","","","0","4"
"null","","","null","","","","html-keyboard-response","446","1230113","0.0-446.0","60f72f4f1341357926bf94cc","6213c8c8535641bc05c0276a","","","","","<p style=""color:darkgreen;font-size:24px;"">Correct :)</p>","",""
"2760","key","n","n","16.62927710843351","500","250","psychophysics","447","1232878","0.0-447.0","60f72f4f1341357926bf94cc","6213c8c8535641bc05c0276a","7","","","","","1","7"
"null","","","null","","","","html-keyboard-response","448","1233384","0.0-448.0","60f72f4f1341357926bf94cc","6213c8c8535641bc05c0276a","","","","","<p style=""color:darkgreen;font-size:24px;"">Correct :)</p>","",""
"2585","key","v","v","16.610580645160628","500","250","psychophysics","449","1235975","0.0-449.0","60f72f4f1341357926bf94cc","6213c8c8535641bc05c0276a","7","","","","","0","7"
"null","","","null","","","","html-keyboard-response","450","1236492","0.0-450.0","60f72f4f1341357926bf94cc","6213c8c8535641bc05c0276a","","","","","<p style=""color:darkgreen;font-size:24px;"">Correct :)</p>","",""
"2603","key","v","v","16.671410256410198","500","250","psychophysics","451","1239103","0.0-451.0","60f72f4f1341357926bf94cc","6213c8c8535641bc05c0276a","7","","","","","0","3"
"null","","","null","","","","html-keyboard-response","452","1239606","0.0-452.0","60f72f4f1341357926bf94cc","6213c8c8535641bc05c0276a","","","","","<p style=""color:darkgreen;font-size:24px;"">Correct :)</p>","",""
"2602","key","n","n","16.692564102562848","500","250","psychophysics","453","1242215","0.0-453.0","60f72f4f1341357926bf94cc","6213c8c8535641bc05c0276a","7","","","","","0","4"
"null","","","null","","","","html-keyboard-response","454","1242730","0.0-454.0","60f72f4f1341357926bf94cc","6213c8c8535641bc05c0276a","","","","","<p style=""color:darkgreen;font-size:24px;"">Correct :)</p>","",""
"2957","key","n","n","16.664632768362317","500","250","psychophysics","455","1245695","0.0-455.0","60f72f4f1341357926bf94cc","6213c8c8535641bc05c0276a","7","","","","","1","4"
"null","","","null","","","","html-keyboard-response","456","1246206","0.0-456.0","60f72f4f1341357926bf94cc","6213c8c8535641bc05c0276a","","","","","<p style=""color:red;font-size:24px;"">Error :(</p>","",""
"2588","key","v","v","16.62283870967766","500","250","psychophysics","457","1248798","0.0-457.0","60f72f4f1341357926bf94cc","6213c8c8535641bc05c0276a","7","","","","","1","1"
"null","","","null","","","","html-keyboard-response","458","1249300","0.0-458.0","60f72f4f1341357926bf94cc","6213c8c8535641bc05c0276a","","","","","<p style=""color:darkgreen;font-size:24px;"">Correct :)</p>","",""
"2605","key","v","v","16.66551282051324","500","250","psychophysics","459","1251910","0.0-459.0","60f72f4f1341357926bf94cc","6213c8c8535641bc05c0276a","7","","","","","0","1"
"null","","","null","","","","html-keyboard-response","460","1252426","0.0-460.0","60f72f4f1341357926bf94cc","6213c8c8535641bc05c0276a","","","","","<p style=""color:darkgreen;font-size:24px;"">Correct :)</p>","",""
"2728","key","v","v","16.620609756097732","500","250","psychophysics","461","1255159","0.0-461.0","60f72f4f1341357926bf94cc","6213c8c8535641bc05c0276a","7","","","","","0","7"
"null","","","null","","","","html-keyboard-response","462","1255659","0.0-462.0","60f72f4f1341357926bf94cc","6213c8c8535641bc05c0276a","","","","","<p style=""color:darkgreen;font-size:24px;"">Correct :)</p>","",""
"2559","key","v","v","16.623246753246633","500","250","psychophysics","463","1258223","0.0-463.0","60f72f4f1341357926bf94cc","6213c8c8535641bc05c0276a","7","","","","","1","2"
"null","","","null","","","","html-keyboard-response","464","1258732","0.0-464.0","60f72f4f1341357926bf94cc","6213c8c8535641bc05c0276a","","","","","<p style=""color:darkgreen;font-size:24px;"">Correct :)</p>","",""
"2957","key","n","n","16.711751412429273","500","250","psychophysics","465","1261695","0.0-465.0","60f72f4f1341357926bf94cc","6213c8c8535641bc05c0276a","7","","","","","0","6"
"null","","","null","","","","html-keyboard-response","466","1262210","0.0-466.0","60f72f4f1341357926bf94cc","6213c8c8535641bc05c0276a","","","","","<p style=""color:darkgreen;font-size:24px;"">Correct :)</p>","",""
"2662","key","v","v","16.646749999999884","500","250","psychophysics","467","1264878","0.0-467.0","60f72f4f1341357926bf94cc","6213c8c8535641bc05c0276a","7","","","","","0","1"
"null","","","null","","","","html-keyboard-response","468","1265391","0.0-468.0","60f72f4f1341357926bf94cc","6213c8c8535641bc05c0276a","","","","","<p style=""color:darkgreen;font-size:24px;"">Correct :)</p>","",""
"2843","key","n","n","16.68647058823639","500","250","psychophysics","469","1268239","0.0-469.0","60f72f4f1341357926bf94cc","6213c8c8535641bc05c0276a","7","","","","","0","6"
"null","","","null","","","","html-keyboard-response","470","1268750","0.0-470.0","60f72f4f1341357926bf94cc","6213c8c8535641bc05c0276a","","","","","<p style=""color:darkgreen;font-size:24px;"">Correct :)</p>","",""
"2836","key","v","v","16.653176470588456","500","250","psychophysics","471","1271590","0.0-471.0","60f72f4f1341357926bf94cc","6213c8c8535641bc05c0276a","7","","","","","0","7"
"null","","","null","","","","html-keyboard-response","472","1272091","0.0-472.0","60f72f4f1341357926bf94cc","6213c8c8535641bc05c0276a","","","","","<p style=""color:darkgreen;font-size:24px;"">Correct :)</p>","",""
"2854","key","n","n","16.61929824561349","500","250","psychophysics","473","1274950","0.0-473.0","60f72f4f1341357926bf94cc","6213c8c8535641bc05c0276a","7","","","","","0","4"
"null","","","null","","","","html-keyboard-response","474","1275463","0.0-474.0","60f72f4f1341357926bf94cc","6213c8c8535641bc05c0276a","","","","","<p style=""color:darkgreen;font-size:24px;"">Correct :)</p>","",""
"2956","key","n","n","16.705197740113363","500","250","psychophysics","475","1278423","0.0-475.0","60f72f4f1341357926bf94cc","6213c8c8535641bc05c0276a","7","","","","","1","6"
"null","","","null","","","","html-keyboard-response","476","1278929","0.0-476.0","60f72f4f1341357926bf94cc","6213c8c8535641bc05c0276a","","","","","<p style=""color:darkgreen;font-size:24px;"">Correct :)</p>","",""
"2705","key","v","v","16.614320987654438","500","250","psychophysics","477","1281638","0.0-477.0","60f72f4f1341357926bf94cc","6213c8c8535641bc05c0276a","7","","","","","0","7"
"null","","","null","","","","html-keyboard-response","478","1282143","0.0-478.0","60f72f4f1341357926bf94cc","6213c8c8535641bc05c0276a","","","","","<p style=""color:darkgreen;font-size:24px;"">Correct :)</p>","",""
"2850","key","v","v","16.65964912280729","500","250","psychophysics","479","1284998","0.0-479.0","60f72f4f1341357926bf94cc","6213c8c8535641bc05c0276a","7","","","","","1","4"
"null","","","null","","","","html-keyboard-response","480","1285505","0.0-480.0","60f72f4f1341357926bf94cc","6213c8c8535641bc05c0276a","","","","","<p style=""color:darkgreen;font-size:24px;"">Correct :)</p>","",""
"2632","key","v","v","16.694649681529018","500","250","psychophysics","481","1288142","0.0-481.0","60f72f4f1341357926bf94cc","6213c8c8535641bc05c0276a","7","","","","","0","7"
"null","","","null","","","","html-keyboard-response","482","1288645","0.0-482.0","60f72f4f1341357926bf94cc","6213c8c8535641bc05c0276a","","","","","<p style=""color:darkgreen;font-size:24px;"">Correct :)</p>","",""
"2677","key","n","n","16.657875000000057","500","250","psychophysics","483","1291326","0.0-483.0","60f72f4f1341357926bf94cc","6213c8c8535641bc05c0276a","7","","","","","0","4"
"null","","","null","","","","html-keyboard-response","484","1291836","0.0-484.0","60f72f4f1341357926bf94cc","6213c8c8535641bc05c0276a","","","","","<p style=""color:darkgreen;font-size:24px;"">Correct :)</p>","",""
"2653","key","n","n","16.623522012577972","500","250","psychophysics","485","1294494","0.0-485.0","60f72f4f1341357926bf94cc","6213c8c8535641bc05c0276a","7","","","","","1","6"
"null","","","null","","","","html-keyboard-response","486","1294997","0.0-486.0","60f72f4f1341357926bf94cc","6213c8c8535641bc05c0276a","","","","","<p style=""color:darkgreen;font-size:24px;"">Correct :)</p>","",""
"2806","key","n","n","16.68035714285742","500","250","psychophysics","487","1297806","0.0-487.0","60f72f4f1341357926bf94cc","6213c8c8535641bc05c0276a","7","","","","","0","2"
"null","","","null","","","","html-keyboard-response","488","1298321","0.0-488.0","60f72f4f1341357926bf94cc","6213c8c8535641bc05c0276a","","","","","<p style=""color:darkgreen;font-size:24px;"">Correct :)</p>","",""
"2535","key","v","v","16.63723684210594","500","250","psychophysics","489","1300862","0.0-489.0","60f72f4f1341357926bf94cc","6213c8c8535641bc05c0276a","7","","","","","1","2"
"null","","","null","","","","html-keyboard-response","490","1301369","0.0-490.0","60f72f4f1341357926bf94cc","6213c8c8535641bc05c0276a","","","","","<p style=""color:darkgreen;font-size:24px;"">Correct :)</p>","",""
"2784","key","n","n","16.66790419161699","500","250","psychophysics","491","1304158","0.0-491.0","60f72f4f1341357926bf94cc","6213c8c8535641bc05c0276a","7","","","","","1","4"
"null","","","null","","","","html-keyboard-response","492","1304662","0.0-492.0","60f72f4f1341357926bf94cc","6213c8c8535641bc05c0276a","","","","","<p style=""color:red;font-size:24px;"">Error :(</p>","",""
"2812","key","n","n","16.62627218934823","500","250","psychophysics","493","1307477","0.0-493.0","60f72f4f1341357926bf94cc","6213c8c8535641bc05c0276a","7","","","","","0","6"
"null","","","null","","","","html-keyboard-response","494","1307985","0.0-494.0","60f72f4f1341357926bf94cc","6213c8c8535641bc05c0276a","","","","","<p style=""color:darkgreen;font-size:24px;"">Correct :)</p>","",""
"3001","key","n","n","16.698435754190047","500","250","psychophysics","495","1310989","0.0-495.0","60f72f4f1341357926bf94cc","6213c8c8535641bc05c0276a","7","","","","","0","4"
"null","","","null","","","","html-keyboard-response","496","1311503","0.0-496.0","60f72f4f1341357926bf94cc","6213c8c8535641bc05c0276a","","","","","<p style=""color:darkgreen;font-size:24px;"">Correct :)</p>","",""
