"rt","response_type","key_press","response","avg_frame_time","center_x","center_y","trial_type","trial_index","time_elapsed","internal_node_id","pid","sid","phase","guide","targ","resp","stimulus","is5","stim"
"4306","key"," "," ","32.87022900763359","500","250","psychophysics","0","4322","0.0-0.0","614de6faf1af6a87e98a50bc","6213d1883faf7e0b9e7b663c","","","","","","",""
"4640","key"," "," ","33.333333333333336","500","250","psychophysics","1","8964","0.0-1.0","614de6faf1af6a87e98a50bc","6213d1883faf7e0b9e7b663c","","","","","","",""
"5518","key"," "," ","36.666666666666664","500","250","psychophysics","2","14484","0.0-2.0","614de6faf1af6a87e98a50bc","6213d1883faf7e0b9e7b663c","","","","","","",""
"2070","key"," "," ","33.34426229508197","500","250","psychophysics","3","16556","0.0-3.0","614de6faf1af6a87e98a50bc","6213d1883faf7e0b9e7b663c","","","","","","",""
"6386","key"," "," ","33.33684210526316","500","250","psychophysics","4","22943","0.0-4.0","614de6faf1af6a87e98a50bc","6213d1883faf7e0b9e7b663c","","","","","","",""
"6312","key"," "," ","33.333333333333336","500","250","psychophysics","5","29263","0.0-5.0","614de6faf1af6a87e98a50bc","6213d1883faf7e0b9e7b663c","","","","","","",""
"4196","key"," "," ","33.336","500","250","psychophysics","6","33463","0.0-6.0","614de6faf1af6a87e98a50bc","6213d1883faf7e0b9e7b663c","","","","","","",""
"1117","key"," "," ","33.303030303030305","500","250","psychophysics","7","34583","0.0-7.0","614de6faf1af6a87e98a50bc","6213d1883faf7e0b9e7b663c","","","","","","",""
"9855","key"," "," ","33.32993197278912","500","250","psychophysics","8","44440","0.0-8.0","614de6faf1af6a87e98a50bc","6213d1883faf7e0b9e7b663c","0","0","28","26","","",""
"7581","key"," "," ","33.330396475770925","500","250","psychophysics","9","52023","0.0-9.0","614de6faf1af6a87e98a50bc","6213d1883faf7e0b9e7b663c","","","","","","",""
"5896","key"," "," ","33.33522727272727","500","250","psychophysics","10","57921","0.0-10.0","614de6faf1af6a87e98a50bc","6213d1883faf7e0b9e7b663c","","","","","","",""
"8775","key"," "," ","33.33587786259542","500","250","psychophysics","11","66698","0.0-11.0","614de6faf1af6a87e98a50bc","6213d1883faf7e0b9e7b663c","","","","","","",""
"3117","key"," "," ","33.333333333333336","500","250","psychophysics","12","69817","0.0-12.0","614de6faf1af6a87e98a50bc","6213d1883faf7e0b9e7b663c","","","","","","",""
"2849","key"," "," ","33.333333333333336","500","250","psychophysics","13","72668","0.0-13.0","614de6faf1af6a87e98a50bc","6213d1883faf7e0b9e7b663c","","","","","","",""
"2530","key"," "," ","33.333333333333336","500","250","psychophysics","14","75200","0.0-14.0","614de6faf1af6a87e98a50bc","6213d1883faf7e0b9e7b663c","","","","","","",""
"1956","key"," "," ","33.3448275862069","500","250","psychophysics","15","77158","0.0-15.0","614de6faf1af6a87e98a50bc","6213d1883faf7e0b9e7b663c","","","","","","",""
"1882","key"," "," ","33.345454545454544","500","250","psychophysics","16","79041","0.0-16.0","614de6faf1af6a87e98a50bc","6213d1883faf7e0b9e7b663c","","","","","","",""
"14584","key"," "," ","33.33180778032037","500","250","psychophysics","17","93627","0.0-17.0","614de6faf1af6a87e98a50bc","6213d1883faf7e0b9e7b663c","1","0","41","57","","",""
"16121","key"," "," ","33.33126293995859","500","250","psychophysics","18","109750","0.0-18.0","614de6faf1af6a87e98a50bc","6213d1883faf7e0b9e7b663c","1","5","33","41","","",""
"7536","key"," "," ","33.33777777777778","500","250","psychophysics","19","117288","0.0-19.0","614de6faf1af6a87e98a50bc","6213d1883faf7e0b9e7b663c","1","0","35","43","","",""
"6620","key"," "," ","33.34010152284264","500","250","psychophysics","20","123910","0.0-20.0","614de6faf1af6a87e98a50bc","6213d1883faf7e0b9e7b663c","1","5","42","48","","",""
"7458","key"," "," ","33.33183856502242","500","250","psychophysics","21","131376","0.0-21.0","614de6faf1af6a87e98a50bc","6213d1883faf7e0b9e7b663c","1","0","23","34","","",""
"3182","key"," "," ","33.33684210526316","500","250","psychophysics","22","134560","0.0-22.0","614de6faf1af6a87e98a50bc","6213d1883faf7e0b9e7b663c","1","5","43","35","","",""
"5672","key"," "," ","33.32544378698225","500","250","psychophysics","23","140235","0.0-23.0","614de6faf1af6a87e98a50bc","6213d1883faf7e0b9e7b663c","1","0","21","28","","",""
"3795","key"," "," ","33.32743362831859","500","250","psychophysics","24","144034","0.0-24.0","614de6faf1af6a87e98a50bc","6213d1883faf7e0b9e7b663c","1","5","21","23","","",""
"6100","key"," "," ","33.32967032967033","500","250","psychophysics","25","150139","0.0-25.0","614de6faf1af6a87e98a50bc","6213d1883faf7e0b9e7b663c","1","0","32","38","","",""
"7731","key"," "," ","33.34199134199134","500","250","psychophysics","26","157872","0.0-26.0","614de6faf1af6a87e98a50bc","6213d1883faf7e0b9e7b663c","1","5","57","66","","",""
"10750","key"," "," ","33.33540372670807","500","250","psychophysics","27","168624","0.0-27.0","614de6faf1af6a87e98a50bc","6213d1883faf7e0b9e7b663c","1","0","40","56","","",""
"5719","key"," "," ","33.33529411764706","500","250","psychophysics","28","174345","0.0-28.0","614de6faf1af6a87e98a50bc","6213d1883faf7e0b9e7b663c","1","5","40","46","","",""
"5752","key"," "," ","33.325581395348834","500","250","psychophysics","29","180106","0.0-29.0","614de6faf1af6a87e98a50bc","6213d1883faf7e0b9e7b663c","1","0","30","36","","",""
"9653","key"," "," ","33.339100346020764","500","250","psychophysics","30","189760","0.0-30.0","614de6faf1af6a87e98a50bc","6213d1883faf7e0b9e7b663c","1","5","48","52","","",""
"5059","key"," "," ","33.33774834437086","500","250","psychophysics","31","194821","0.0-31.0","614de6faf1af6a87e98a50bc","6213d1883faf7e0b9e7b663c","1","0","25","30","","",""
"7068","key"," "," ","33.33175355450237","500","250","psychophysics","32","201893","0.0-32.0","614de6faf1af6a87e98a50bc","6213d1883faf7e0b9e7b663c","1","5","58","66","","",""
"3810","key"," "," ","33.32743362831859","500","250","psychophysics","33","205704","0.0-33.0","614de6faf1af6a87e98a50bc","6213d1883faf7e0b9e7b663c","1","0","26","30","","",""
"4447","key"," "," ","33.330827067669176","500","250","psychophysics","34","210154","0.0-34.0","614de6faf1af6a87e98a50bc","6213d1883faf7e0b9e7b663c","1","5","34","36","","",""
"6050","key"," "," ","33.327777777777776","500","250","psychophysics","35","216205","0.0-35.0","614de6faf1af6a87e98a50bc","6213d1883faf7e0b9e7b663c","1","0","34","36","","",""
"3709","key"," "," ","33.333333333333336","500","250","psychophysics","36","219917","0.0-36.0","614de6faf1af6a87e98a50bc","6213d1883faf7e0b9e7b663c","1","5","23","28","","",""
"4091","key"," "," ","33.33057851239669","500","250","psychophysics","37","224011","0.0-37.0","614de6faf1af6a87e98a50bc","6213d1883faf7e0b9e7b663c","","","","","","",""
"6805","key"," "," ","33.32843137254902","500","250","psychophysics","38","230818","0.0-38.0","614de6faf1af6a87e98a50bc","6213d1883faf7e0b9e7b663c","","","","","","",""
"1880","key"," "," ","33.345454545454544","500","250","psychophysics","39","232699","0.0-39.0","614de6faf1af6a87e98a50bc","6213d1883faf7e0b9e7b663c","","","","","","",""
"6486","key"," "," ","33.33505154639175","500","250","psychophysics","40","239186","0.0-40.0","614de6faf1af6a87e98a50bc","6213d1883faf7e0b9e7b663c","2","0","42","52","","",""
"3462","key"," "," ","33.33980582524272","500","250","psychophysics","41","242652","0.0-41.0","614de6faf1af6a87e98a50bc","6213d1883faf7e0b9e7b663c","","","","","","",""
"4912","key"," "," ","33.342465753424655","500","250","psychophysics","42","247566","0.0-42.0","614de6faf1af6a87e98a50bc","6213d1883faf7e0b9e7b663c","2","0","37","39","","",""
"1744","key"," "," ","33.35294117647059","500","250","psychophysics","43","249311","0.0-43.0","614de6faf1af6a87e98a50bc","6213d1883faf7e0b9e7b663c","","","","","","",""
"5342","key"," "," ","33.3375","500","250","psychophysics","44","254660","0.0-44.0","614de6faf1af6a87e98a50bc","6213d1883faf7e0b9e7b663c","2","0","44","48","","",""
"1040","key"," "," ","33.3","500","250","psychophysics","45","255704","0.0-45.0","614de6faf1af6a87e98a50bc","6213d1883faf7e0b9e7b663c","","","","","","",""
"7278","key"," "," ","33.325688073394495","500","250","psychophysics","46","262984","0.0-46.0","614de6faf1af6a87e98a50bc","6213d1883faf7e0b9e7b663c","2","0","41","51","","",""
"1334","key"," "," ","33.333333333333336","500","250","psychophysics","47","264320","0.0-47.0","614de6faf1af6a87e98a50bc","6213d1883faf7e0b9e7b663c","","","","","","",""
"3408","key"," "," ","33.336633663366335","500","250","psychophysics","48","267730","0.0-48.0","614de6faf1af6a87e98a50bc","6213d1883faf7e0b9e7b663c","2","0","22","28","","",""
"1280","key"," "," ","33.31578947368421","500","250","psychophysics","49","269018","0.0-49.0","614de6faf1af6a87e98a50bc","6213d1883faf7e0b9e7b663c","","","","","","",""
"7179","key"," "," ","33.33177570093458","500","250","psychophysics","50","276198","0.0-50.0","614de6faf1af6a87e98a50bc","6213d1883faf7e0b9e7b663c","2","0","60","66","","",""
"1685","key"," "," ","33.34","500","250","psychophysics","51","277884","0.0-51.0","614de6faf1af6a87e98a50bc","6213d1883faf7e0b9e7b663c","","","","","","",""
"2515","key"," "," ","33.33783783783784","500","250","psychophysics","52","280403","0.0-52.0","614de6faf1af6a87e98a50bc","6213d1883faf7e0b9e7b663c","2","0","20","24","","",""
"1141","key"," "," ","33.36363636363637","500","250","psychophysics","53","281547","0.0-53.0","614de6faf1af6a87e98a50bc","6213d1883faf7e0b9e7b663c","","","","","","",""
"4775","key"," "," ","33.32867132867133","500","250","psychophysics","54","286329","0.0-54.0","614de6faf1af6a87e98a50bc","6213d1883faf7e0b9e7b663c","2","0","37","39","","",""
"949","key"," "," ","33.333333333333336","500","250","psychophysics","55","287280","0.0-55.0","614de6faf1af6a87e98a50bc","6213d1883faf7e0b9e7b663c","","","","","","",""
"8349","key"," "," ","33.328","500","250","psychophysics","56","295636","0.0-56.0","614de6faf1af6a87e98a50bc","6213d1883faf7e0b9e7b663c","2","0","53","59","","",""
"995","key"," "," ","33.310344827586206","500","250","psychophysics","57","296635","0.0-57.0","614de6faf1af6a87e98a50bc","6213d1883faf7e0b9e7b663c","","","","","","",""
"3600","key"," "," ","33.33644859813084","500","250","psychophysics","58","300236","0.0-58.0","614de6faf1af6a87e98a50bc","6213d1883faf7e0b9e7b663c","2","0","21","25","","",""
"1111","key"," "," ","33.36363636363637","500","250","psychophysics","59","301353","0.0-59.0","614de6faf1af6a87e98a50bc","6213d1883faf7e0b9e7b663c","","","","","","",""
"3373","key"," "," ","33.34","500","250","psychophysics","60","304728","0.0-60.0","614de6faf1af6a87e98a50bc","6213d1883faf7e0b9e7b663c","2","0","28","24","","",""
"1024","key"," "," ","33.333333333333336","500","250","psychophysics","61","305753","0.0-61.0","614de6faf1af6a87e98a50bc","6213d1883faf7e0b9e7b663c","","","","","","",""
"4985","key"," "," ","33.33108108108108","500","250","psychophysics","62","310742","0.0-62.0","614de6faf1af6a87e98a50bc","6213d1883faf7e0b9e7b663c","2","0","38","44","","",""
"861","key"," "," ","33.32","500","250","psychophysics","63","311607","0.0-63.0","614de6faf1af6a87e98a50bc","6213d1883faf7e0b9e7b663c","","","","","","",""
"6721","key"," "," ","33.333333333333336","500","250","psychophysics","64","318330","0.0-64.0","614de6faf1af6a87e98a50bc","6213d1883faf7e0b9e7b663c","2","0","45","50","","",""
"957","key"," "," ","33.357142857142854","500","250","psychophysics","65","319289","0.0-65.0","614de6faf1af6a87e98a50bc","6213d1883faf7e0b9e7b663c","","","","","","",""
"6394","key"," "," ","33.32984293193717","500","250","psychophysics","66","325685","0.0-66.0","614de6faf1af6a87e98a50bc","6213d1883faf7e0b9e7b663c","2","0","47","50","","",""
"871","key"," "," ","33.32","500","250","psychophysics","67","326557","0.0-67.0","614de6faf1af6a87e98a50bc","6213d1883faf7e0b9e7b663c","","","","","","",""
"2926","key"," "," ","33.333333333333336","500","250","psychophysics","68","329487","0.0-68.0","614de6faf1af6a87e98a50bc","6213d1883faf7e0b9e7b663c","2","0","27","26","","",""
"1066","key"," "," ","33.354838709677416","500","250","psychophysics","69","330555","0.0-69.0","614de6faf1af6a87e98a50bc","6213d1883faf7e0b9e7b663c","","","","","","",""
"3969","key"," "," ","33.32203389830509","500","250","psychophysics","70","334526","0.0-70.0","614de6faf1af6a87e98a50bc","6213d1883faf7e0b9e7b663c","","","","","","",""
"3406","key"," "," ","33.32673267326733","500","250","psychophysics","71","337934","0.0-71.0","614de6faf1af6a87e98a50bc","6213d1883faf7e0b9e7b663c","","","","","","",""
"5772","key"," "," ","33.33139534883721","500","250","psychophysics","72","343708","0.0-72.0","614de6faf1af6a87e98a50bc","6213d1883faf7e0b9e7b663c","3","5","41","40","","",""
"3419","key"," "," ","33.3235294117647","500","250","psychophysics","73","347129","0.0-73.0","614de6faf1af6a87e98a50bc","6213d1883faf7e0b9e7b663c","3","0","34","33","","",""
"3274","key"," "," ","33.329896907216494","500","250","psychophysics","74","350407","0.0-74.0","614de6faf1af6a87e98a50bc","6213d1883faf7e0b9e7b663c","3","5","36","34","","",""
"5533","key"," "," ","33.32727272727273","500","250","psychophysics","75","355943","0.0-75.0","614de6faf1af6a87e98a50bc","6213d1883faf7e0b9e7b663c","3","0","27","28","","",""
"4693","key"," "," ","33.33571428571429","500","250","psychophysics","76","360638","0.0-76.0","614de6faf1af6a87e98a50bc","6213d1883faf7e0b9e7b663c","3","5","33","33","","",""
"4101","key"," "," ","33.32786885245902","500","250","psychophysics","77","364741","0.0-77.0","614de6faf1af6a87e98a50bc","6213d1883faf7e0b9e7b663c","3","0","31","38","","",""
"5530","key"," "," ","33.345454545454544","500","250","psychophysics","78","370274","0.0-78.0","614de6faf1af6a87e98a50bc","6213d1883faf7e0b9e7b663c","3","5","42","45","","",""
"4485","key"," "," ","33.343283582089555","500","250","psychophysics","79","374761","0.0-79.0","614de6faf1af6a87e98a50bc","6213d1883faf7e0b9e7b663c","3","0","37","37","","",""
"3669","key"," "," ","33.3394495412844","500","250","psychophysics","80","378432","0.0-80.0","614de6faf1af6a87e98a50bc","6213d1883faf7e0b9e7b663c","3","5","39","32","","",""
"4057","key"," "," ","33.33884297520661","500","250","psychophysics","81","382490","0.0-81.0","614de6faf1af6a87e98a50bc","6213d1883faf7e0b9e7b663c","3","0","37","39","","",""
"2895","key"," "," ","33.348837209302324","500","250","psychophysics","82","385387","0.0-82.0","614de6faf1af6a87e98a50bc","6213d1883faf7e0b9e7b663c","3","5","36","32","","",""
"4172","key"," "," ","33.33064516129032","500","250","psychophysics","83","389563","0.0-83.0","614de6faf1af6a87e98a50bc","6213d1883faf7e0b9e7b663c","3","0","26","34","","",""
"6610","key"," "," ","33.33502538071066","500","250","psychophysics","84","396175","0.0-84.0","614de6faf1af6a87e98a50bc","6213d1883faf7e0b9e7b663c","3","5","57","55","","",""
"4694","key"," "," ","33.33571428571429","500","250","psychophysics","85","400872","0.0-85.0","614de6faf1af6a87e98a50bc","6213d1883faf7e0b9e7b663c","3","0","40","46","","",""
"5556","key"," "," ","33.33734939759036","500","250","psychophysics","86","406435","0.0-86.0","614de6faf1af6a87e98a50bc","6213d1883faf7e0b9e7b663c","3","5","51","54","","",""
"7537","key"," "," ","33.32888888888889","500","250","psychophysics","87","413978","0.0-87.0","614de6faf1af6a87e98a50bc","6213d1883faf7e0b9e7b663c","3","0","60","69","","",""
"1373","key"," "," ","33.35","500","250","psychophysics","88","415353","0.0-88.0","614de6faf1af6a87e98a50bc","6213d1883faf7e0b9e7b663c","3","5","60","18","","",""
"6338","key"," "," ","33.33157894736842","500","250","psychophysics","89","421696","0.0-89.0","614de6faf1af6a87e98a50bc","6213d1883faf7e0b9e7b663c","3","0","50","59","","",""
"2064","key"," "," ","33.31147540983606","500","250","psychophysics","90","423764","0.0-90.0","614de6faf1af6a87e98a50bc","6213d1883faf7e0b9e7b663c","3","5","20","19","","",""
"6098","key"," "," ","33.33516483516483","500","250","psychophysics","91","429865","0.0-91.0","614de6faf1af6a87e98a50bc","6213d1883faf7e0b9e7b663c","3","0","38","42","","",""
"1174","key"," "," ","33.3235294117647","500","250","psychophysics","92","431041","0.0-92.0","614de6faf1af6a87e98a50bc","6213d1883faf7e0b9e7b663c","","","","","","",""
"62722","","","v","","","","html-keyboard-response","93","493766","0.0-93.0","614de6faf1af6a87e98a50bc","6213d1883faf7e0b9e7b663c","","","","","<p> In this part of the experiment, we are going present digits 1, 2, 3, 4, 6, 7, 8, and 9.  Notice that 5 is missing.  Your job is to say whether the presented digit is less than or greater than 5.  For example, 3 is less than 5 and 7 is greater than 5.  If the digit is less than 5, press the v key; if it is greater than 5, press the n key. We are going to do 200 of these in total, but only 50 righ now. They go real fast.</p>  <br><br>  Ready? (press v or n)","",""
"4359","key","v","v","33.33846153846154","500","250","psychophysics","94","498129","0.0-94.0","614de6faf1af6a87e98a50bc","6213d1883faf7e0b9e7b663c","4","","","","","1","2"
"null","","","null","","","","html-keyboard-response","95","498630","0.0-95.0","614de6faf1af6a87e98a50bc","6213d1883faf7e0b9e7b663c","","","","","<p style=""color:darkgreen;font-size:24px;"">Correct :)</p>","",""
"2892","key","v","v","33.325581395348834","500","250","psychophysics","96","501524","0.0-96.0","614de6faf1af6a87e98a50bc","6213d1883faf7e0b9e7b663c","4","","","","","1","1"
"null","","","null","","","","html-keyboard-response","97","502026","0.0-97.0","614de6faf1af6a87e98a50bc","6213d1883faf7e0b9e7b663c","","","","","<p style=""color:darkgreen;font-size:24px;"">Correct :)</p>","",""
"2578","key","v","v","33.328947368421055","500","250","psychophysics","98","504607","0.0-98.0","614de6faf1af6a87e98a50bc","6213d1883faf7e0b9e7b663c","4","","","","","1","3"
"null","","","null","","","","html-keyboard-response","99","505109","0.0-99.0","614de6faf1af6a87e98a50bc","6213d1883faf7e0b9e7b663c","","","","","<p style=""color:darkgreen;font-size:24px;"">Correct :)</p>","",""
"2534","key","n","n","33.346666666666664","500","250","psychophysics","100","507645","0.0-100.0","614de6faf1af6a87e98a50bc","6213d1883faf7e0b9e7b663c","4","","","","","1","8"
"null","","","null","","","","html-keyboard-response","101","508147","0.0-101.0","614de6faf1af6a87e98a50bc","6213d1883faf7e0b9e7b663c","","","","","<p style=""color:darkgreen;font-size:24px;"">Correct :)</p>","",""
"2652","key","v","v","33.34177215189873","500","250","psychophysics","102","510803","0.0-102.0","614de6faf1af6a87e98a50bc","6213d1883faf7e0b9e7b663c","4","","","","","1","4"
"null","","","null","","","","html-keyboard-response","103","511305","0.0-103.0","614de6faf1af6a87e98a50bc","6213d1883faf7e0b9e7b663c","","","","","<p style=""color:darkgreen;font-size:24px;"">Correct :)</p>","",""
"2583","key","v","v","33.33766233766234","500","250","psychophysics","104","513891","0.0-104.0","614de6faf1af6a87e98a50bc","6213d1883faf7e0b9e7b663c","4","","","","","1","4"
"null","","","null","","","","html-keyboard-response","105","514393","0.0-105.0","614de6faf1af6a87e98a50bc","6213d1883faf7e0b9e7b663c","","","","","<p style=""color:darkgreen;font-size:24px;"">Correct :)</p>","",""
"2578","key","n","n","33.328947368421055","500","250","psychophysics","106","516973","0.0-106.0","614de6faf1af6a87e98a50bc","6213d1883faf7e0b9e7b663c","4","","","","","1","8"
"null","","","null","","","","html-keyboard-response","107","517475","0.0-107.0","614de6faf1af6a87e98a50bc","6213d1883faf7e0b9e7b663c","","","","","<p style=""color:darkgreen;font-size:24px;"">Correct :)</p>","",""
"2462","key","n","n","33.342465753424655","500","250","psychophysics","108","519940","0.0-108.0","614de6faf1af6a87e98a50bc","6213d1883faf7e0b9e7b663c","4","","","","","1","7"
"null","","","null","","","","html-keyboard-response","109","520441","0.0-109.0","614de6faf1af6a87e98a50bc","6213d1883faf7e0b9e7b663c","","","","","<p style=""color:darkgreen;font-size:24px;"">Correct :)</p>","",""
"2546","key","n","n","33.3421052631579","500","250","psychophysics","110","522991","0.0-110.0","614de6faf1af6a87e98a50bc","6213d1883faf7e0b9e7b663c","4","","","","","1","9"
"null","","","null","","","","html-keyboard-response","111","523494","0.0-111.0","614de6faf1af6a87e98a50bc","6213d1883faf7e0b9e7b663c","","","","","<p style=""color:darkgreen;font-size:24px;"">Correct :)</p>","",""
"2576","key","v","v","33.328947368421055","500","250","psychophysics","112","526072","0.0-112.0","614de6faf1af6a87e98a50bc","6213d1883faf7e0b9e7b663c","4","","","","","1","1"
"null","","","null","","","","html-keyboard-response","113","526574","0.0-113.0","614de6faf1af6a87e98a50bc","6213d1883faf7e0b9e7b663c","","","","","<p style=""color:darkgreen;font-size:24px;"">Correct :)</p>","",""
"2446","key","n","n","33.32876712328767","500","250","psychophysics","114","529022","0.0-114.0","614de6faf1af6a87e98a50bc","6213d1883faf7e0b9e7b663c","4","","","","","1","8"
"null","","","null","","","","html-keyboard-response","115","529524","0.0-115.0","614de6faf1af6a87e98a50bc","6213d1883faf7e0b9e7b663c","","","","","<p style=""color:darkgreen;font-size:24px;"">Correct :)</p>","",""
"2421","key","n","n","33.333333333333336","500","250","psychophysics","116","531947","0.0-116.0","614de6faf1af6a87e98a50bc","6213d1883faf7e0b9e7b663c","4","","","","","1","6"
"null","","","null","","","","html-keyboard-response","117","532449","0.0-117.0","614de6faf1af6a87e98a50bc","6213d1883faf7e0b9e7b663c","","","","","<p style=""color:darkgreen;font-size:24px;"">Correct :)</p>","",""
"2455","key","n","n","33.35616438356164","500","250","psychophysics","118","534913","0.0-118.0","614de6faf1af6a87e98a50bc","6213d1883faf7e0b9e7b663c","4","","","","","1","7"
"null","","","null","","","","html-keyboard-response","119","535414","0.0-119.0","614de6faf1af6a87e98a50bc","6213d1883faf7e0b9e7b663c","","","","","<p style=""color:darkgreen;font-size:24px;"">Correct :)</p>","",""
"2506","key","v","v","33.33783783783784","500","250","psychophysics","120","537923","0.0-120.0","614de6faf1af6a87e98a50bc","6213d1883faf7e0b9e7b663c","4","","","","","1","4"
"null","","","null","","","","html-keyboard-response","121","538424","0.0-121.0","614de6faf1af6a87e98a50bc","6213d1883faf7e0b9e7b663c","","","","","<p style=""color:darkgreen;font-size:24px;"">Correct :)</p>","",""
"2485","key","n","n","33.33783783783784","500","250","psychophysics","122","540912","0.0-122.0","614de6faf1af6a87e98a50bc","6213d1883faf7e0b9e7b663c","4","","","","","1","9"
"null","","","null","","","","html-keyboard-response","123","541414","0.0-123.0","614de6faf1af6a87e98a50bc","6213d1883faf7e0b9e7b663c","","","","","<p style=""color:darkgreen;font-size:24px;"">Correct :)</p>","",""
"2566","key","v","v","33.3421052631579","500","250","psychophysics","124","543986","0.0-124.0","614de6faf1af6a87e98a50bc","6213d1883faf7e0b9e7b663c","4","","","","","1","4"
"null","","","null","","","","html-keyboard-response","125","544488","0.0-125.0","614de6faf1af6a87e98a50bc","6213d1883faf7e0b9e7b663c","","","","","<p style=""color:darkgreen;font-size:24px;"">Correct :)</p>","",""
"2460","key","v","v","33.31506849315068","500","250","psychophysics","126","546952","0.0-126.0","614de6faf1af6a87e98a50bc","6213d1883faf7e0b9e7b663c","4","","","","","1","1"
"null","","","null","","","","html-keyboard-response","127","547453","0.0-127.0","614de6faf1af6a87e98a50bc","6213d1883faf7e0b9e7b663c","","","","","<p style=""color:darkgreen;font-size:24px;"">Correct :)</p>","",""
"2467","key","v","v","33.32876712328767","500","250","psychophysics","128","549922","0.0-128.0","614de6faf1af6a87e98a50bc","6213d1883faf7e0b9e7b663c","4","","","","","1","1"
"null","","","null","","","","html-keyboard-response","129","550424","0.0-129.0","614de6faf1af6a87e98a50bc","6213d1883faf7e0b9e7b663c","","","","","<p style=""color:darkgreen;font-size:24px;"">Correct :)</p>","",""
"2485","key","v","v","33.33783783783784","500","250","psychophysics","130","552912","0.0-130.0","614de6faf1af6a87e98a50bc","6213d1883faf7e0b9e7b663c","4","","","","","1","3"
"null","","","null","","","","html-keyboard-response","131","553414","0.0-131.0","614de6faf1af6a87e98a50bc","6213d1883faf7e0b9e7b663c","","","","","<p style=""color:darkgreen;font-size:24px;"">Correct :)</p>","",""
"2508","key","v","v","33.32432432432432","500","250","psychophysics","132","555928","0.0-132.0","614de6faf1af6a87e98a50bc","6213d1883faf7e0b9e7b663c","4","","","","","1","2"
"null","","","null","","","","html-keyboard-response","133","556431","0.0-133.0","614de6faf1af6a87e98a50bc","6213d1883faf7e0b9e7b663c","","","","","<p style=""color:darkgreen;font-size:24px;"">Correct :)</p>","",""
"2588","key","n","n","33.324675324675326","500","250","psychophysics","134","559023","0.0-134.0","614de6faf1af6a87e98a50bc","6213d1883faf7e0b9e7b663c","4","","","","","1","7"
"null","","","null","","","","html-keyboard-response","135","559525","0.0-135.0","614de6faf1af6a87e98a50bc","6213d1883faf7e0b9e7b663c","","","","","<p style=""color:darkgreen;font-size:24px;"">Correct :)</p>","",""
"2480","key","v","v","33.33783783783784","500","250","psychophysics","136","562008","0.0-136.0","614de6faf1af6a87e98a50bc","6213d1883faf7e0b9e7b663c","4","","","","","1","2"
"null","","","null","","","","html-keyboard-response","137","562509","0.0-137.0","614de6faf1af6a87e98a50bc","6213d1883faf7e0b9e7b663c","","","","","<p style=""color:darkgreen;font-size:24px;"">Correct :)</p>","",""
"2578","key","n","n","33.328947368421055","500","250","psychophysics","138","565091","0.0-138.0","614de6faf1af6a87e98a50bc","6213d1883faf7e0b9e7b663c","4","","","","","1","9"
"null","","","null","","","","html-keyboard-response","139","565594","0.0-139.0","614de6faf1af6a87e98a50bc","6213d1883faf7e0b9e7b663c","","","","","<p style=""color:darkgreen;font-size:24px;"">Correct :)</p>","",""
"2610","key","v","v","33.324675324675326","500","250","psychophysics","140","568208","0.0-140.0","614de6faf1af6a87e98a50bc","6213d1883faf7e0b9e7b663c","4","","","","","1","1"
"null","","","null","","","","html-keyboard-response","141","568710","0.0-141.0","614de6faf1af6a87e98a50bc","6213d1883faf7e0b9e7b663c","","","","","<p style=""color:darkgreen;font-size:24px;"">Correct :)</p>","",""
"2554","key","v","v","33.31578947368421","500","250","psychophysics","142","571267","0.0-142.0","614de6faf1af6a87e98a50bc","6213d1883faf7e0b9e7b663c","4","","","","","1","4"
"null","","","null","","","","html-keyboard-response","143","571769","0.0-143.0","614de6faf1af6a87e98a50bc","6213d1883faf7e0b9e7b663c","","","","","<p style=""color:darkgreen;font-size:24px;"">Correct :)</p>","",""
"2445","key","v","v","33.32876712328767","500","250","psychophysics","144","574216","0.0-144.0","614de6faf1af6a87e98a50bc","6213d1883faf7e0b9e7b663c","4","","","","","1","1"
"null","","","null","","","","html-keyboard-response","145","574718","0.0-145.0","614de6faf1af6a87e98a50bc","6213d1883faf7e0b9e7b663c","","","","","<p style=""color:darkgreen;font-size:24px;"">Correct :)</p>","",""
"2519","key","n","n","33.32","500","250","psychophysics","146","577240","0.0-146.0","614de6faf1af6a87e98a50bc","6213d1883faf7e0b9e7b663c","4","","","","","1","9"
"null","","","null","","","","html-keyboard-response","147","577741","0.0-147.0","614de6faf1af6a87e98a50bc","6213d1883faf7e0b9e7b663c","","","","","<p style=""color:darkgreen;font-size:24px;"">Correct :)</p>","",""
"2687","key","n","n","33.3375","500","250","psychophysics","148","580431","0.0-148.0","614de6faf1af6a87e98a50bc","6213d1883faf7e0b9e7b663c","4","","","","","1","7"
"null","","","null","","","","html-keyboard-response","149","580933","0.0-149.0","614de6faf1af6a87e98a50bc","6213d1883faf7e0b9e7b663c","","","","","<p style=""color:darkgreen;font-size:24px;"">Correct :)</p>","",""
"2485","key","n","n","33.32432432432432","500","250","psychophysics","150","583421","0.0-150.0","614de6faf1af6a87e98a50bc","6213d1883faf7e0b9e7b663c","4","","","","","1","6"
"null","","","null","","","","html-keyboard-response","151","583923","0.0-151.0","614de6faf1af6a87e98a50bc","6213d1883faf7e0b9e7b663c","","","","","<p style=""color:darkgreen;font-size:24px;"">Correct :)</p>","",""
"2449","key","n","n","33.342465753424655","500","250","psychophysics","152","586374","0.0-152.0","614de6faf1af6a87e98a50bc","6213d1883faf7e0b9e7b663c","4","","","","","1","7"
"null","","","null","","","","html-keyboard-response","153","586876","0.0-153.0","614de6faf1af6a87e98a50bc","6213d1883faf7e0b9e7b663c","","","","","<p style=""color:darkgreen;font-size:24px;"">Correct :)</p>","",""
"2480","key","n","n","33.351351351351354","500","250","psychophysics","154","589358","0.0-154.0","614de6faf1af6a87e98a50bc","6213d1883faf7e0b9e7b663c","4","","","","","1","8"
"null","","","null","","","","html-keyboard-response","155","589859","0.0-155.0","614de6faf1af6a87e98a50bc","6213d1883faf7e0b9e7b663c","","","","","<p style=""color:darkgreen;font-size:24px;"">Correct :)</p>","",""
"2430","key","n","n","33.34722222222222","500","250","psychophysics","156","592292","0.0-156.0","614de6faf1af6a87e98a50bc","6213d1883faf7e0b9e7b663c","4","","","","","1","8"
"null","","","null","","","","html-keyboard-response","157","592794","0.0-157.0","614de6faf1af6a87e98a50bc","6213d1883faf7e0b9e7b663c","","","","","<p style=""color:darkgreen;font-size:24px;"">Correct :)</p>","",""
"2431","key","n","n","33.333333333333336","500","250","psychophysics","158","595227","0.0-158.0","614de6faf1af6a87e98a50bc","6213d1883faf7e0b9e7b663c","4","","","","","1","9"
"null","","","null","","","","html-keyboard-response","159","595728","0.0-159.0","614de6faf1af6a87e98a50bc","6213d1883faf7e0b9e7b663c","","","","","<p style=""color:darkgreen;font-size:24px;"">Correct :)</p>","",""
"2460","key","n","n","33.32876712328767","500","250","psychophysics","160","598190","0.0-160.0","614de6faf1af6a87e98a50bc","6213d1883faf7e0b9e7b663c","4","","","","","1","7"
"null","","","null","","","","html-keyboard-response","161","598691","0.0-161.0","614de6faf1af6a87e98a50bc","6213d1883faf7e0b9e7b663c","","","","","<p style=""color:darkgreen;font-size:24px;"">Correct :)</p>","",""
"2509","key","v","v","33.333333333333336","500","250","psychophysics","162","601204","0.0-162.0","614de6faf1af6a87e98a50bc","6213d1883faf7e0b9e7b663c","4","","","","","1","2"
"null","","","null","","","","html-keyboard-response","163","601705","0.0-163.0","614de6faf1af6a87e98a50bc","6213d1883faf7e0b9e7b663c","","","","","<p style=""color:darkgreen;font-size:24px;"">Correct :)</p>","",""
"2483","key","n","n","33.33783783783784","500","250","psychophysics","164","604191","0.0-164.0","614de6faf1af6a87e98a50bc","6213d1883faf7e0b9e7b663c","4","","","","","1","8"
"null","","","null","","","","html-keyboard-response","165","604693","0.0-165.0","614de6faf1af6a87e98a50bc","6213d1883faf7e0b9e7b663c","","","","","<p style=""color:darkgreen;font-size:24px;"">Correct :)</p>","",""
"2643","key","v","v","33.32051282051282","500","250","psychophysics","166","607338","0.0-166.0","614de6faf1af6a87e98a50bc","6213d1883faf7e0b9e7b663c","4","","","","","1","4"
"null","","","null","","","","html-keyboard-response","167","607840","0.0-167.0","614de6faf1af6a87e98a50bc","6213d1883faf7e0b9e7b663c","","","","","<p style=""color:darkgreen;font-size:24px;"">Correct :)</p>","",""
"2515","key","n","n","33.333333333333336","500","250","psychophysics","168","610361","0.0-168.0","614de6faf1af6a87e98a50bc","6213d1883faf7e0b9e7b663c","4","","","","","1","2"
"null","","","null","","","","html-keyboard-response","169","610864","0.0-169.0","614de6faf1af6a87e98a50bc","6213d1883faf7e0b9e7b663c","","","","","<p style=""color:red;font-size:24px;"">Error :(</p>","",""
"2528","key","n","n","33.333333333333336","500","250","psychophysics","170","613395","0.0-170.0","614de6faf1af6a87e98a50bc","6213d1883faf7e0b9e7b663c","4","","","","","1","8"
"null","","","null","","","","html-keyboard-response","171","613897","0.0-171.0","614de6faf1af6a87e98a50bc","6213d1883faf7e0b9e7b663c","","","","","<p style=""color:darkgreen;font-size:24px;"">Correct :)</p>","",""
"2641","key","v","v","33.32051282051282","500","250","psychophysics","172","616540","0.0-172.0","614de6faf1af6a87e98a50bc","6213d1883faf7e0b9e7b663c","4","","","","","1","8"
"null","","","null","","","","html-keyboard-response","173","617042","0.0-173.0","614de6faf1af6a87e98a50bc","6213d1883faf7e0b9e7b663c","","","","","<p style=""color:red;font-size:24px;"">Error :(</p>","",""
"2514","key","v","v","33.32","500","250","psychophysics","174","619558","0.0-174.0","614de6faf1af6a87e98a50bc","6213d1883faf7e0b9e7b663c","4","","","","","1","2"
"null","","","null","","","","html-keyboard-response","175","620060","0.0-175.0","614de6faf1af6a87e98a50bc","6213d1883faf7e0b9e7b663c","","","","","<p style=""color:darkgreen;font-size:24px;"">Correct :)</p>","",""
"2478","key","n","n","33.32876712328767","500","250","psychophysics","176","622542","0.0-176.0","614de6faf1af6a87e98a50bc","6213d1883faf7e0b9e7b663c","4","","","","","1","6"
"null","","","null","","","","html-keyboard-response","177","623043","0.0-177.0","614de6faf1af6a87e98a50bc","6213d1883faf7e0b9e7b663c","","","","","<p style=""color:darkgreen;font-size:24px;"">Correct :)</p>","",""
"2557","key","v","v","33.328947368421055","500","250","psychophysics","178","625603","0.0-178.0","614de6faf1af6a87e98a50bc","6213d1883faf7e0b9e7b663c","4","","","","","1","2"
"null","","","null","","","","html-keyboard-response","179","626105","0.0-179.0","614de6faf1af6a87e98a50bc","6213d1883faf7e0b9e7b663c","","","","","<p style=""color:darkgreen;font-size:24px;"">Correct :)</p>","",""
"2551","key","v","v","33.31578947368421","500","250","psychophysics","180","628658","0.0-180.0","614de6faf1af6a87e98a50bc","6213d1883faf7e0b9e7b663c","4","","","","","1","1"
"null","","","null","","","","html-keyboard-response","181","629160","0.0-181.0","614de6faf1af6a87e98a50bc","6213d1883faf7e0b9e7b663c","","","","","<p style=""color:darkgreen;font-size:24px;"">Correct :)</p>","",""
"2476","key","v","v","33.342465753424655","500","250","psychophysics","182","631638","0.0-182.0","614de6faf1af6a87e98a50bc","6213d1883faf7e0b9e7b663c","4","","","","","1","3"
"null","","","null","","","","html-keyboard-response","183","632140","0.0-183.0","614de6faf1af6a87e98a50bc","6213d1883faf7e0b9e7b663c","","","","","<p style=""color:darkgreen;font-size:24px;"">Correct :)</p>","",""
"2394","key","v","v","33.33802816901409","500","250","psychophysics","184","634538","0.0-184.0","614de6faf1af6a87e98a50bc","6213d1883faf7e0b9e7b663c","4","","","","","1","2"
"null","","","null","","","","html-keyboard-response","185","635040","0.0-185.0","614de6faf1af6a87e98a50bc","6213d1883faf7e0b9e7b663c","","","","","<p style=""color:darkgreen;font-size:24px;"">Correct :)</p>","",""
"2453","key","v","v","33.342465753424655","500","250","psychophysics","186","637495","0.0-186.0","614de6faf1af6a87e98a50bc","6213d1883faf7e0b9e7b663c","4","","","","","1","1"
"null","","","null","","","","html-keyboard-response","187","637997","0.0-187.0","614de6faf1af6a87e98a50bc","6213d1883faf7e0b9e7b663c","","","","","<p style=""color:darkgreen;font-size:24px;"">Correct :)</p>","",""
"2483","key","v","v","33.32432432432432","500","250","psychophysics","188","640484","0.0-188.0","614de6faf1af6a87e98a50bc","6213d1883faf7e0b9e7b663c","4","","","","","1","1"
"null","","","null","","","","html-keyboard-response","189","640986","0.0-189.0","614de6faf1af6a87e98a50bc","6213d1883faf7e0b9e7b663c","","","","","<p style=""color:darkgreen;font-size:24px;"">Correct :)</p>","",""
"2540","key","n","n","33.32","500","250","psychophysics","190","643528","0.0-190.0","614de6faf1af6a87e98a50bc","6213d1883faf7e0b9e7b663c","4","","","","","1","7"
"null","","","null","","","","html-keyboard-response","191","644030","0.0-191.0","614de6faf1af6a87e98a50bc","6213d1883faf7e0b9e7b663c","","","","","<p style=""color:darkgreen;font-size:24px;"">Correct :)</p>","",""
"2467","key","v","v","33.32876712328767","500","250","psychophysics","192","646499","0.0-192.0","614de6faf1af6a87e98a50bc","6213d1883faf7e0b9e7b663c","4","","","","","1","1"
"null","","","null","","","","html-keyboard-response","193","647001","0.0-193.0","614de6faf1af6a87e98a50bc","6213d1883faf7e0b9e7b663c","","","","","<p style=""color:darkgreen;font-size:24px;"">Correct :)</p>","",""
"17635","","","v","","","","html-keyboard-response","194","664636","0.0-194.0","614de6faf1af6a87e98a50bc","6213d1883faf7e0b9e7b663c","","","","","<p> Ok, now we are going present the same digits as before.  Your job is to say whether the digit is even or odd  If the digit is odd, press to v key; if it is even, press the n key. We are going to do 50 of these.  </p>  <br><br>  Ready? (press v or n)","",""
"2974","key","v","v","33.34090909090909","500","250","psychophysics","195","667612","0.0-195.0","614de6faf1af6a87e98a50bc","6213d1883faf7e0b9e7b663c","5","","","","","0","1"
"null","","","null","","","","html-keyboard-response","196","668115","0.0-196.0","614de6faf1af6a87e98a50bc","6213d1883faf7e0b9e7b663c","","","","","<p style=""color:darkgreen;font-size:24px;"">Correct :)</p>","",""
"2891","key","v","v","33.325581395348834","500","250","psychophysics","197","671010","0.0-197.0","614de6faf1af6a87e98a50bc","6213d1883faf7e0b9e7b663c","5","","","","","0","7"
"null","","","null","","","","html-keyboard-response","198","671512","0.0-198.0","614de6faf1af6a87e98a50bc","6213d1883faf7e0b9e7b663c","","","","","<p style=""color:darkgreen;font-size:24px;"">Correct :)</p>","",""
"2507","key","v","v","33.32432432432432","500","250","psychophysics","199","674021","0.0-199.0","614de6faf1af6a87e98a50bc","6213d1883faf7e0b9e7b663c","5","","","","","0","1"
"null","","","null","","","","html-keyboard-response","200","674523","0.0-200.0","614de6faf1af6a87e98a50bc","6213d1883faf7e0b9e7b663c","","","","","<p style=""color:darkgreen;font-size:24px;"">Correct :)</p>","",""
"2559","key","n","n","33.31578947368421","500","250","psychophysics","201","677084","0.0-201.0","614de6faf1af6a87e98a50bc","6213d1883faf7e0b9e7b663c","5","","","","","0","8"
"null","","","null","","","","html-keyboard-response","202","677586","0.0-202.0","614de6faf1af6a87e98a50bc","6213d1883faf7e0b9e7b663c","","","","","<p style=""color:darkgreen;font-size:24px;"">Correct :)</p>","",""
"2666","key","v","v","33.31645569620253","500","250","psychophysics","203","680255","0.0-203.0","614de6faf1af6a87e98a50bc","6213d1883faf7e0b9e7b663c","5","","","","","0","2"
"null","","","null","","","","html-keyboard-response","204","680757","0.0-204.0","614de6faf1af6a87e98a50bc","6213d1883faf7e0b9e7b663c","","","","","<p style=""color:red;font-size:24px;"">Error :(</p>","",""
"2779","key","v","v","33.325301204819276","500","250","psychophysics","205","683537","0.0-205.0","614de6faf1af6a87e98a50bc","6213d1883faf7e0b9e7b663c","5","","","","","0","6"
"null","","","null","","","","html-keyboard-response","206","684039","0.0-206.0","614de6faf1af6a87e98a50bc","6213d1883faf7e0b9e7b663c","","","","","<p style=""color:red;font-size:24px;"">Error :(</p>","",""
"2695","key","n","n","33.3125","500","250","psychophysics","207","686737","0.0-207.0","614de6faf1af6a87e98a50bc","6213d1883faf7e0b9e7b663c","5","","","","","0","8"
"null","","","null","","","","html-keyboard-response","208","687239","0.0-208.0","614de6faf1af6a87e98a50bc","6213d1883faf7e0b9e7b663c","","","","","<p style=""color:darkgreen;font-size:24px;"">Correct :)</p>","",""
"2745","key","v","v","33.329268292682926","500","250","psychophysics","209","689985","0.0-209.0","614de6faf1af6a87e98a50bc","6213d1883faf7e0b9e7b663c","5","","","","","0","9"
"null","","","null","","","","html-keyboard-response","210","690487","0.0-210.0","614de6faf1af6a87e98a50bc","6213d1883faf7e0b9e7b663c","","","","","<p style=""color:darkgreen;font-size:24px;"">Correct :)</p>","",""
"2654","key","v","v","33.31645569620253","500","250","psychophysics","211","693144","0.0-211.0","614de6faf1af6a87e98a50bc","6213d1883faf7e0b9e7b663c","5","","","","","0","1"
"null","","","null","","","","html-keyboard-response","212","693646","0.0-212.0","614de6faf1af6a87e98a50bc","6213d1883faf7e0b9e7b663c","","","","","<p style=""color:darkgreen;font-size:24px;"">Correct :)</p>","",""
"3751","key","v","v","33.330357142857146","500","250","psychophysics","213","697402","0.0-213.0","614de6faf1af6a87e98a50bc","6213d1883faf7e0b9e7b663c","5","","","","","0","9"
"null","","","null","","","","html-keyboard-response","214","697904","0.0-214.0","614de6faf1af6a87e98a50bc","6213d1883faf7e0b9e7b663c","","","","","<p style=""color:darkgreen;font-size:24px;"">Correct :)</p>","",""
"2591","key","v","v","33.33766233766234","500","250","psychophysics","215","700498","0.0-215.0","614de6faf1af6a87e98a50bc","6213d1883faf7e0b9e7b663c","5","","","","","0","7"
"null","","","null","","","","html-keyboard-response","216","700999","0.0-216.0","614de6faf1af6a87e98a50bc","6213d1883faf7e0b9e7b663c","","","","","<p style=""color:darkgreen;font-size:24px;"">Correct :)</p>","",""
"2694","key","n","n","33.325","500","250","psychophysics","217","703695","0.0-217.0","614de6faf1af6a87e98a50bc","6213d1883faf7e0b9e7b663c","5","","","","","0","8"
"null","","","null","","","","html-keyboard-response","218","704196","0.0-218.0","614de6faf1af6a87e98a50bc","6213d1883faf7e0b9e7b663c","","","","","<p style=""color:darkgreen;font-size:24px;"">Correct :)</p>","",""
"2650","key","n","n","33.333333333333336","500","250","psychophysics","219","706848","0.0-219.0","614de6faf1af6a87e98a50bc","6213d1883faf7e0b9e7b663c","5","","","","","0","6"
"null","","","null","","","","html-keyboard-response","220","707350","0.0-220.0","614de6faf1af6a87e98a50bc","6213d1883faf7e0b9e7b663c","","","","","<p style=""color:darkgreen;font-size:24px;"">Correct :)</p>","",""
"2530","key","n","n","33.333333333333336","500","250","psychophysics","221","709883","0.0-221.0","614de6faf1af6a87e98a50bc","6213d1883faf7e0b9e7b663c","5","","","","","0","6"
"null","","","null","","","","html-keyboard-response","222","710384","0.0-222.0","614de6faf1af6a87e98a50bc","6213d1883faf7e0b9e7b663c","","","","","<p style=""color:darkgreen;font-size:24px;"">Correct :)</p>","",""
"2787","key","n","n","33.325301204819276","500","250","psychophysics","223","713174","0.0-223.0","614de6faf1af6a87e98a50bc","6213d1883faf7e0b9e7b663c","5","","","","","0","8"
"null","","","null","","","","html-keyboard-response","224","713676","0.0-224.0","614de6faf1af6a87e98a50bc","6213d1883faf7e0b9e7b663c","","","","","<p style=""color:darkgreen;font-size:24px;"">Correct :)</p>","",""
"2936","key","v","v","33.32183908045977","500","250","psychophysics","225","716613","0.0-225.0","614de6faf1af6a87e98a50bc","6213d1883faf7e0b9e7b663c","5","","","","","0","7"
"null","","","null","","","","html-keyboard-response","226","717115","0.0-226.0","614de6faf1af6a87e98a50bc","6213d1883faf7e0b9e7b663c","","","","","<p style=""color:darkgreen;font-size:24px;"">Correct :)</p>","",""
"2566","key","n","n","33.328947368421055","500","250","psychophysics","227","719684","0.0-227.0","614de6faf1af6a87e98a50bc","6213d1883faf7e0b9e7b663c","5","","","","","0","6"
"null","","","null","","","","html-keyboard-response","228","720186","0.0-228.0","614de6faf1af6a87e98a50bc","6213d1883faf7e0b9e7b663c","","","","","<p style=""color:darkgreen;font-size:24px;"">Correct :)</p>","",""
"2693","key","v","v","33.3375","500","250","psychophysics","229","722880","0.0-229.0","614de6faf1af6a87e98a50bc","6213d1883faf7e0b9e7b663c","5","","","","","0","3"
"null","","","null","","","","html-keyboard-response","230","723382","0.0-230.0","614de6faf1af6a87e98a50bc","6213d1883faf7e0b9e7b663c","","","","","<p style=""color:darkgreen;font-size:24px;"">Correct :)</p>","",""
"2762","key","n","n","33.329268292682926","500","250","psychophysics","231","726147","0.0-231.0","614de6faf1af6a87e98a50bc","6213d1883faf7e0b9e7b663c","5","","","","","0","8"
"null","","","null","","","","html-keyboard-response","232","726648","0.0-232.0","614de6faf1af6a87e98a50bc","6213d1883faf7e0b9e7b663c","","","","","<p style=""color:darkgreen;font-size:24px;"">Correct :)</p>","",""
"2900","key","n","n","33.325581395348834","500","250","psychophysics","233","729551","0.0-233.0","614de6faf1af6a87e98a50bc","6213d1883faf7e0b9e7b663c","5","","","","","0","9"
"null","","","null","","","","html-keyboard-response","234","730053","0.0-234.0","614de6faf1af6a87e98a50bc","6213d1883faf7e0b9e7b663c","","","","","<p style=""color:red;font-size:24px;"">Error :(</p>","",""
"3141","key","v","v","33.333333333333336","500","250","psychophysics","235","733195","0.0-235.0","614de6faf1af6a87e98a50bc","6213d1883faf7e0b9e7b663c","5","","","","","0","1"
"null","","","null","","","","html-keyboard-response","236","733697","0.0-236.0","614de6faf1af6a87e98a50bc","6213d1883faf7e0b9e7b663c","","","","","<p style=""color:darkgreen;font-size:24px;"">Correct :)</p>","",""
"2575","key","v","v","33.328947368421055","500","250","psychophysics","237","736275","0.0-237.0","614de6faf1af6a87e98a50bc","6213d1883faf7e0b9e7b663c","5","","","","","0","1"
"null","","","null","","","","html-keyboard-response","238","736777","0.0-238.0","614de6faf1af6a87e98a50bc","6213d1883faf7e0b9e7b663c","","","","","<p style=""color:darkgreen;font-size:24px;"">Correct :)</p>","",""
"2708","key","v","v","33.333333333333336","500","250","psychophysics","239","739488","0.0-239.0","614de6faf1af6a87e98a50bc","6213d1883faf7e0b9e7b663c","5","","","","","0","7"
"null","","","null","","","","html-keyboard-response","240","739991","0.0-240.0","614de6faf1af6a87e98a50bc","6213d1883faf7e0b9e7b663c","","","","","<p style=""color:darkgreen;font-size:24px;"">Correct :)</p>","",""
"2509","key","v","v","33.32","500","250","psychophysics","241","742502","0.0-241.0","614de6faf1af6a87e98a50bc","6213d1883faf7e0b9e7b663c","5","","","","","0","1"
"null","","","null","","","","html-keyboard-response","242","743003","0.0-242.0","614de6faf1af6a87e98a50bc","6213d1883faf7e0b9e7b663c","","","","","<p style=""color:darkgreen;font-size:24px;"">Correct :)</p>","",""
"2706","key","n","n","33.325","500","250","psychophysics","243","745712","0.0-243.0","614de6faf1af6a87e98a50bc","6213d1883faf7e0b9e7b663c","5","","","","","0","2"
"null","","","null","","","","html-keyboard-response","244","746214","0.0-244.0","614de6faf1af6a87e98a50bc","6213d1883faf7e0b9e7b663c","","","","","<p style=""color:darkgreen;font-size:24px;"">Correct :)</p>","",""
"2668","key","v","v","33.34177215189873","500","250","psychophysics","245","748883","0.0-245.0","614de6faf1af6a87e98a50bc","6213d1883faf7e0b9e7b663c","5","","","","","0","4"
"null","","","null","","","","html-keyboard-response","246","749385","0.0-246.0","614de6faf1af6a87e98a50bc","6213d1883faf7e0b9e7b663c","","","","","<p style=""color:red;font-size:24px;"">Error :(</p>","",""
"4066","key","n","n","33.33057851239669","500","250","psychophysics","247","753455","0.0-247.0","614de6faf1af6a87e98a50bc","6213d1883faf7e0b9e7b663c","5","","","","","0","2"
"null","","","null","","","","html-keyboard-response","248","753957","0.0-248.0","614de6faf1af6a87e98a50bc","6213d1883faf7e0b9e7b663c","","","","","<p style=""color:darkgreen;font-size:24px;"">Correct :)</p>","",""
"2942","key","v","v","33.34090909090909","500","250","psychophysics","249","756903","0.0-249.0","614de6faf1af6a87e98a50bc","6213d1883faf7e0b9e7b663c","5","","","","","0","7"
"null","","","null","","","","html-keyboard-response","250","757405","0.0-250.0","614de6faf1af6a87e98a50bc","6213d1883faf7e0b9e7b663c","","","","","<p style=""color:darkgreen;font-size:24px;"">Correct :)</p>","",""
"2604","key","v","v","33.324675324675326","500","250","psychophysics","251","760010","0.0-251.0","614de6faf1af6a87e98a50bc","6213d1883faf7e0b9e7b663c","5","","","","","0","7"
"null","","","null","","","","html-keyboard-response","252","760512","0.0-252.0","614de6faf1af6a87e98a50bc","6213d1883faf7e0b9e7b663c","","","","","<p style=""color:darkgreen;font-size:24px;"">Correct :)</p>","",""
"2713","key","v","v","33.3125","500","250","psychophysics","253","763228","0.0-253.0","614de6faf1af6a87e98a50bc","6213d1883faf7e0b9e7b663c","5","","","","","0","7"
"null","","","null","","","","html-keyboard-response","254","763730","0.0-254.0","614de6faf1af6a87e98a50bc","6213d1883faf7e0b9e7b663c","","","","","<p style=""color:darkgreen;font-size:24px;"">Correct :)</p>","",""
"2708","key","n","n","33.325","500","250","psychophysics","255","766440","0.0-255.0","614de6faf1af6a87e98a50bc","6213d1883faf7e0b9e7b663c","5","","","","","0","6"
"null","","","null","","","","html-keyboard-response","256","766942","0.0-256.0","614de6faf1af6a87e98a50bc","6213d1883faf7e0b9e7b663c","","","","","<p style=""color:darkgreen;font-size:24px;"">Correct :)</p>","",""
"3963","key","v","v","33.33050847457627","500","250","psychophysics","257","770909","0.0-257.0","614de6faf1af6a87e98a50bc","6213d1883faf7e0b9e7b663c","5","","","","","0","9"
"null","","","null","","","","html-keyboard-response","258","771411","0.0-258.0","614de6faf1af6a87e98a50bc","6213d1883faf7e0b9e7b663c","","","","","<p style=""color:darkgreen;font-size:24px;"">Correct :)</p>","",""
"3312","key","n","n","33.333333333333336","500","250","psychophysics","259","774724","0.0-259.0","614de6faf1af6a87e98a50bc","6213d1883faf7e0b9e7b663c","5","","","","","0","6"
"null","","","null","","","","html-keyboard-response","260","775228","0.0-260.0","614de6faf1af6a87e98a50bc","6213d1883faf7e0b9e7b663c","","","","","<p style=""color:darkgreen;font-size:24px;"">Correct :)</p>","",""
"3701","key","n","n","33.336363636363636","500","250","psychophysics","261","778930","0.0-261.0","614de6faf1af6a87e98a50bc","6213d1883faf7e0b9e7b663c","5","","","","","0","8"
"null","","","null","","","","html-keyboard-response","262","779432","0.0-262.0","614de6faf1af6a87e98a50bc","6213d1883faf7e0b9e7b663c","","","","","<p style=""color:darkgreen;font-size:24px;"">Correct :)</p>","",""
"3006","key","n","n","33.325842696629216","500","250","psychophysics","263","782440","0.0-263.0","614de6faf1af6a87e98a50bc","6213d1883faf7e0b9e7b663c","5","","","","","0","8"
"null","","","null","","","","html-keyboard-response","264","782942","0.0-264.0","614de6faf1af6a87e98a50bc","6213d1883faf7e0b9e7b663c","","","","","<p style=""color:darkgreen;font-size:24px;"">Correct :)</p>","",""
"3012","key","v","v","33.32222222222222","500","250","psychophysics","265","785955","0.0-265.0","614de6faf1af6a87e98a50bc","6213d1883faf7e0b9e7b663c","5","","","","","0","7"
"null","","","null","","","","html-keyboard-response","266","786459","0.0-266.0","614de6faf1af6a87e98a50bc","6213d1883faf7e0b9e7b663c","","","","","<p style=""color:darkgreen;font-size:24px;"">Correct :)</p>","",""
"3281","key","n","n","33.33673469387755","500","250","psychophysics","267","789744","0.0-267.0","614de6faf1af6a87e98a50bc","6213d1883faf7e0b9e7b663c","5","","","","","0","4"
"null","","","null","","","","html-keyboard-response","268","790245","0.0-268.0","614de6faf1af6a87e98a50bc","6213d1883faf7e0b9e7b663c","","","","","<p style=""color:darkgreen;font-size:24px;"">Correct :)</p>","",""
"3256","key","v","v","33.329896907216494","500","250","psychophysics","269","793504","0.0-269.0","614de6faf1af6a87e98a50bc","6213d1883faf7e0b9e7b663c","5","","","","","0","9"
"null","","","null","","","","html-keyboard-response","270","794006","0.0-270.0","614de6faf1af6a87e98a50bc","6213d1883faf7e0b9e7b663c","","","","","<p style=""color:darkgreen;font-size:24px;"">Correct :)</p>","",""
"3851","key","v","v","33.321739130434786","500","250","psychophysics","271","797860","0.0-271.0","614de6faf1af6a87e98a50bc","6213d1883faf7e0b9e7b663c","5","","","","","0","3"
"null","","","null","","","","html-keyboard-response","272","798362","0.0-272.0","614de6faf1af6a87e98a50bc","6213d1883faf7e0b9e7b663c","","","","","<p style=""color:darkgreen;font-size:24px;"">Correct :)</p>","",""
"4530","key","v","v","33.34074074074074","500","250","psychophysics","273","802894","0.0-273.0","614de6faf1af6a87e98a50bc","6213d1883faf7e0b9e7b663c","5","","","","","0","1"
"null","","","null","","","","html-keyboard-response","274","803396","0.0-274.0","614de6faf1af6a87e98a50bc","6213d1883faf7e0b9e7b663c","","","","","<p style=""color:darkgreen;font-size:24px;"">Correct :)</p>","",""
"2843","key","v","v","33.333333333333336","500","250","psychophysics","275","806243","0.0-275.0","614de6faf1af6a87e98a50bc","6213d1883faf7e0b9e7b663c","5","","","","","0","7"
"null","","","null","","","","html-keyboard-response","276","806746","0.0-276.0","614de6faf1af6a87e98a50bc","6213d1883faf7e0b9e7b663c","","","","","<p style=""color:darkgreen;font-size:24px;"">Correct :)</p>","",""
"3222","key","n","n","33.333333333333336","500","250","psychophysics","277","809971","0.0-277.0","614de6faf1af6a87e98a50bc","6213d1883faf7e0b9e7b663c","5","","","","","0","2"
"null","","","null","","","","html-keyboard-response","278","810473","0.0-278.0","614de6faf1af6a87e98a50bc","6213d1883faf7e0b9e7b663c","","","","","<p style=""color:darkgreen;font-size:24px;"">Correct :)</p>","",""
"3396","key","n","n","33.31683168316832","500","250","psychophysics","279","813871","0.0-279.0","614de6faf1af6a87e98a50bc","6213d1883faf7e0b9e7b663c","5","","","","","0","4"
"null","","","null","","","","html-keyboard-response","280","814373","0.0-280.0","614de6faf1af6a87e98a50bc","6213d1883faf7e0b9e7b663c","","","","","<p style=""color:darkgreen;font-size:24px;"">Correct :)</p>","",""
"4395","key","n","n","33.33587786259542","500","250","psychophysics","281","818770","0.0-281.0","614de6faf1af6a87e98a50bc","6213d1883faf7e0b9e7b663c","5","","","","","0","2"
"null","","","null","","","","html-keyboard-response","282","819272","0.0-282.0","614de6faf1af6a87e98a50bc","6213d1883faf7e0b9e7b663c","","","","","<p style=""color:darkgreen;font-size:24px;"">Correct :)</p>","",""
"3099","key","n","n","33.32608695652174","500","250","psychophysics","283","822376","0.0-283.0","614de6faf1af6a87e98a50bc","6213d1883faf7e0b9e7b663c","5","","","","","0","6"
"null","","","null","","","","html-keyboard-response","284","822877","0.0-284.0","614de6faf1af6a87e98a50bc","6213d1883faf7e0b9e7b663c","","","","","<p style=""color:darkgreen;font-size:24px;"">Correct :)</p>","",""
"3923","key","n","n","33.34188034188034","500","250","psychophysics","285","826803","0.0-285.0","614de6faf1af6a87e98a50bc","6213d1883faf7e0b9e7b663c","5","","","","","0","2"
"null","","","null","","","","html-keyboard-response","286","827305","0.0-286.0","614de6faf1af6a87e98a50bc","6213d1883faf7e0b9e7b663c","","","","","<p style=""color:darkgreen;font-size:24px;"">Correct :)</p>","",""
"3245","key","v","v","33.31958762886598","500","250","psychophysics","287","830552","0.0-287.0","614de6faf1af6a87e98a50bc","6213d1883faf7e0b9e7b663c","5","","","","","0","7"
"null","","","null","","","","html-keyboard-response","288","831054","0.0-288.0","614de6faf1af6a87e98a50bc","6213d1883faf7e0b9e7b663c","","","","","<p style=""color:darkgreen;font-size:24px;"">Correct :)</p>","",""
"3383","key","v","v","33.336633663366335","500","250","psychophysics","289","834441","0.0-289.0","614de6faf1af6a87e98a50bc","6213d1883faf7e0b9e7b663c","5","","","","","0","7"
"null","","","null","","","","html-keyboard-response","290","834943","0.0-290.0","614de6faf1af6a87e98a50bc","6213d1883faf7e0b9e7b663c","","","","","<p style=""color:darkgreen;font-size:24px;"">Correct :)</p>","",""
"4535","key","n","n","33.333333333333336","500","250","psychophysics","291","839481","0.0-291.0","614de6faf1af6a87e98a50bc","6213d1883faf7e0b9e7b663c","5","","","","","0","2"
"null","","","null","","","","html-keyboard-response","292","839983","0.0-292.0","614de6faf1af6a87e98a50bc","6213d1883faf7e0b9e7b663c","","","","","<p style=""color:darkgreen;font-size:24px;"">Correct :)</p>","",""
"5907","key","n","n","33.33522727272727","500","250","psychophysics","293","845892","0.0-293.0","614de6faf1af6a87e98a50bc","6213d1883faf7e0b9e7b663c","5","","","","","0","2"
"null","","","null","","","","html-keyboard-response","294","846393","0.0-294.0","614de6faf1af6a87e98a50bc","6213d1883faf7e0b9e7b663c","","","","","<p style=""color:darkgreen;font-size:24px;"">Correct :)</p>","",""
"16097","","","v","","","","html-keyboard-response","295","862491","0.0-295.0","614de6faf1af6a87e98a50bc","6213d1883faf7e0b9e7b663c","","","","","<p> Here, the tasks are going to switch.  For some trials, your job is to decide if the digit is less than or greater than 5.  For others, it is to decide if the digit is even or odd.  You will be told which type of trial the current one is.  But, pay attention, the type of trial changes too.  We are going to do 50 of these.  </p>  <br><br>  Ready? (press v or n)","",""
"5308","key","n","n","33.327044025157235","500","250","psychophysics","296","867803","0.0-296.0","614de6faf1af6a87e98a50bc","6213d1883faf7e0b9e7b663c","6","","","","","0","8"
"null","","","null","","","","html-keyboard-response","297","868305","0.0-297.0","614de6faf1af6a87e98a50bc","6213d1883faf7e0b9e7b663c","","","","","<p style=""color:darkgreen;font-size:24px;"">Correct :)</p>","",""
"2718","key","n","n","33.333333333333336","500","250","psychophysics","298","871026","0.0-298.0","614de6faf1af6a87e98a50bc","6213d1883faf7e0b9e7b663c","6","","","","","0","6"
"null","","","null","","","","html-keyboard-response","299","871528","0.0-299.0","614de6faf1af6a87e98a50bc","6213d1883faf7e0b9e7b663c","","","","","<p style=""color:darkgreen;font-size:24px;"">Correct :)</p>","",""
"6283","key","n","n","33.33510638297872","500","250","psychophysics","300","877813","0.0-300.0","614de6faf1af6a87e98a50bc","6213d1883faf7e0b9e7b663c","6","","","","","1","7"
"null","","","null","","","","html-keyboard-response","301","878315","0.0-301.0","614de6faf1af6a87e98a50bc","6213d1883faf7e0b9e7b663c","","","","","<p style=""color:darkgreen;font-size:24px;"">Correct :)</p>","",""
"4805","key","n","n","33.32867132867133","500","250","psychophysics","302","883124","0.0-302.0","614de6faf1af6a87e98a50bc","6213d1883faf7e0b9e7b663c","6","","","","","0","2"
"null","","","null","","","","html-keyboard-response","303","883626","0.0-303.0","614de6faf1af6a87e98a50bc","6213d1883faf7e0b9e7b663c","","","","","<p style=""color:darkgreen;font-size:24px;"">Correct :)</p>","",""
"3514","key","v","v","33.333333333333336","500","250","psychophysics","304","887144","0.0-304.0","614de6faf1af6a87e98a50bc","6213d1883faf7e0b9e7b663c","6","","","","","0","9"
"null","","","null","","","","html-keyboard-response","305","887646","0.0-305.0","614de6faf1af6a87e98a50bc","6213d1883faf7e0b9e7b663c","","","","","<p style=""color:darkgreen;font-size:24px;"">Correct :)</p>","",""
"2805","key","v","v","33.33734939759036","500","250","psychophysics","306","890453","0.0-306.0","614de6faf1af6a87e98a50bc","6213d1883faf7e0b9e7b663c","6","","","","","1","4"
"null","","","null","","","","html-keyboard-response","307","890955","0.0-307.0","614de6faf1af6a87e98a50bc","6213d1883faf7e0b9e7b663c","","","","","<p style=""color:darkgreen;font-size:24px;"">Correct :)</p>","",""
"3332","key","v","v","33.323232323232325","500","250","psychophysics","308","894289","0.0-308.0","614de6faf1af6a87e98a50bc","6213d1883faf7e0b9e7b663c","6","","","","","1","1"
"null","","","null","","","","html-keyboard-response","309","894790","0.0-309.0","614de6faf1af6a87e98a50bc","6213d1883faf7e0b9e7b663c","","","","","<p style=""color:darkgreen;font-size:24px;"">Correct :)</p>","",""
"3049","key","n","n","33.32967032967033","500","250","psychophysics","310","897841","0.0-310.0","614de6faf1af6a87e98a50bc","6213d1883faf7e0b9e7b663c","6","","","","","0","7"
"null","","","null","","","","html-keyboard-response","311","898343","0.0-311.0","614de6faf1af6a87e98a50bc","6213d1883faf7e0b9e7b663c","","","","","<p style=""color:red;font-size:24px;"">Error :(</p>","",""
"3541","key","n","n","33.33018867924528","500","250","psychophysics","312","901887","0.0-312.0","614de6faf1af6a87e98a50bc","6213d1883faf7e0b9e7b663c","6","","","","","0","1"
"null","","","null","","","","html-keyboard-response","313","902389","0.0-313.0","614de6faf1af6a87e98a50bc","6213d1883faf7e0b9e7b663c","","","","","<p style=""color:red;font-size:24px;"">Error :(</p>","",""
"3949","key","v","v","33.33050847457627","500","250","psychophysics","314","906340","0.0-314.0","614de6faf1af6a87e98a50bc","6213d1883faf7e0b9e7b663c","6","","","","","0","1"
"null","","","null","","","","html-keyboard-response","315","906842","0.0-315.0","614de6faf1af6a87e98a50bc","6213d1883faf7e0b9e7b663c","","","","","<p style=""color:darkgreen;font-size:24px;"">Correct :)</p>","",""
"3446","key","v","v","33.33980582524272","500","250","psychophysics","316","910290","0.0-316.0","614de6faf1af6a87e98a50bc","6213d1883faf7e0b9e7b663c","6","","","","","0","3"
"null","","","null","","","","html-keyboard-response","317","910792","0.0-317.0","614de6faf1af6a87e98a50bc","6213d1883faf7e0b9e7b663c","","","","","<p style=""color:darkgreen;font-size:24px;"">Correct :)</p>","",""
"2851","key","v","v","33.32941176470588","500","250","psychophysics","318","913646","0.0-318.0","614de6faf1af6a87e98a50bc","6213d1883faf7e0b9e7b663c","6","","","","","0","1"
"null","","","null","","","","html-keyboard-response","319","914148","0.0-319.0","614de6faf1af6a87e98a50bc","6213d1883faf7e0b9e7b663c","","","","","<p style=""color:darkgreen;font-size:24px;"">Correct :)</p>","",""
"3259","key","n","n","33.34020618556701","500","250","psychophysics","320","917410","0.0-320.0","614de6faf1af6a87e98a50bc","6213d1883faf7e0b9e7b663c","6","","","","","0","2"
"null","","","null","","","","html-keyboard-response","321","917911","0.0-321.0","614de6faf1af6a87e98a50bc","6213d1883faf7e0b9e7b663c","","","","","<p style=""color:darkgreen;font-size:24px;"">Correct :)</p>","",""
"3032","key","v","v","33.34444444444444","500","250","psychophysics","322","920946","0.0-322.0","614de6faf1af6a87e98a50bc","6213d1883faf7e0b9e7b663c","6","","","","","0","4"
"null","","","null","","","","html-keyboard-response","323","921447","0.0-323.0","614de6faf1af6a87e98a50bc","6213d1883faf7e0b9e7b663c","","","","","<p style=""color:red;font-size:24px;"">Error :(</p>","",""
"4179","key","v","v","33.33064516129032","500","250","psychophysics","324","925630","0.0-324.0","614de6faf1af6a87e98a50bc","6213d1883faf7e0b9e7b663c","6","","","","","1","4"
"null","","","null","","","","html-keyboard-response","325","926132","0.0-325.0","614de6faf1af6a87e98a50bc","6213d1883faf7e0b9e7b663c","","","","","<p style=""color:darkgreen;font-size:24px;"">Correct :)</p>","",""
"3775","key","n","n","33.330357142857146","500","250","psychophysics","326","929909","0.0-326.0","614de6faf1af6a87e98a50bc","6213d1883faf7e0b9e7b663c","6","","","","","0","2"
"null","","","null","","","","html-keyboard-response","327","930410","0.0-327.0","614de6faf1af6a87e98a50bc","6213d1883faf7e0b9e7b663c","","","","","<p style=""color:darkgreen;font-size:24px;"">Correct :)</p>","",""
"4113","key","v","v","33.34146341463415","500","250","psychophysics","328","934526","0.0-328.0","614de6faf1af6a87e98a50bc","6213d1883faf7e0b9e7b663c","6","","","","","0","3"
"null","","","null","","","","html-keyboard-response","329","935028","0.0-329.0","614de6faf1af6a87e98a50bc","6213d1883faf7e0b9e7b663c","","","","","<p style=""color:darkgreen;font-size:24px;"">Correct :)</p>","",""
"4596","key","v","v","33.33576642335766","500","250","psychophysics","330","939627","0.0-330.0","614de6faf1af6a87e98a50bc","6213d1883faf7e0b9e7b663c","6","","","","","1","3"
"null","","","null","","","","html-keyboard-response","331","940129","0.0-331.0","614de6faf1af6a87e98a50bc","6213d1883faf7e0b9e7b663c","","","","","<p style=""color:darkgreen;font-size:24px;"">Correct :)</p>","",""
"2630","key","v","v","33.32911392405063","500","250","psychophysics","332","942770","0.0-332.0","614de6faf1af6a87e98a50bc","6213d1883faf7e0b9e7b663c","6","","","","","1","2"
"null","","","null","","","","html-keyboard-response","333","943272","0.0-333.0","614de6faf1af6a87e98a50bc","6213d1883faf7e0b9e7b663c","","","","","<p style=""color:darkgreen;font-size:24px;"">Correct :)</p>","",""
"2889","key","v","v","33.33720930232558","500","250","psychophysics","334","946164","0.0-334.0","614de6faf1af6a87e98a50bc","6213d1883faf7e0b9e7b663c","6","","","","","1","2"
"null","","","null","","","","html-keyboard-response","335","946666","0.0-335.0","614de6faf1af6a87e98a50bc","6213d1883faf7e0b9e7b663c","","","","","<p style=""color:darkgreen;font-size:24px;"">Correct :)</p>","",""
"3465","key","v","v","33.33009708737864","500","250","psychophysics","336","950133","0.0-336.0","614de6faf1af6a87e98a50bc","6213d1883faf7e0b9e7b663c","6","","","","","0","8"
"null","","","null","","","","html-keyboard-response","337","950635","0.0-337.0","614de6faf1af6a87e98a50bc","6213d1883faf7e0b9e7b663c","","","","","<p style=""color:red;font-size:24px;"">Error :(</p>","",""
"4599","key","n","n","33.32846715328467","500","250","psychophysics","338","955236","0.0-338.0","614de6faf1af6a87e98a50bc","6213d1883faf7e0b9e7b663c","6","","","","","1","7"
"null","","","null","","","","html-keyboard-response","339","955738","0.0-339.0","614de6faf1af6a87e98a50bc","6213d1883faf7e0b9e7b663c","","","","","<p style=""color:darkgreen;font-size:24px;"">Correct :)</p>","",""
"4656","key","n","n","33.330935251798564","500","250","psychophysics","340","960399","0.0-340.0","614de6faf1af6a87e98a50bc","6213d1883faf7e0b9e7b663c","6","","","","","0","4"
"null","","","null","","","","html-keyboard-response","341","960901","0.0-341.0","614de6faf1af6a87e98a50bc","6213d1883faf7e0b9e7b663c","","","","","<p style=""color:darkgreen;font-size:24px;"">Correct :)</p>","",""
"3136","key","v","v","33.32258064516129","500","250","psychophysics","342","964040","0.0-342.0","614de6faf1af6a87e98a50bc","6213d1883faf7e0b9e7b663c","6","","","","","1","3"
"null","","","null","","","","html-keyboard-response","343","964541","0.0-343.0","614de6faf1af6a87e98a50bc","6213d1883faf7e0b9e7b663c","","","","","<p style=""color:darkgreen;font-size:24px;"">Correct :)</p>","",""
"3179","key","n","n","33.33684210526316","500","250","psychophysics","344","967722","0.0-344.0","614de6faf1af6a87e98a50bc","6213d1883faf7e0b9e7b663c","6","","","","","0","4"
"null","","","null","","","","html-keyboard-response","345","968224","0.0-345.0","614de6faf1af6a87e98a50bc","6213d1883faf7e0b9e7b663c","","","","","<p style=""color:darkgreen;font-size:24px;"">Correct :)</p>","",""
"5145","key","n","n","33.324675324675326","500","250","psychophysics","346","973372","0.0-346.0","614de6faf1af6a87e98a50bc","6213d1883faf7e0b9e7b663c","6","","","","","0","6"
"null","","","null","","","","html-keyboard-response","347","973874","0.0-347.0","614de6faf1af6a87e98a50bc","6213d1883faf7e0b9e7b663c","","","","","<p style=""color:darkgreen;font-size:24px;"">Correct :)</p>","",""
"3320","key","n","n","33.323232323232325","500","250","psychophysics","348","977198","0.0-348.0","614de6faf1af6a87e98a50bc","6213d1883faf7e0b9e7b663c","6","","","","","0","8"
"null","","","null","","","","html-keyboard-response","349","977700","0.0-349.0","614de6faf1af6a87e98a50bc","6213d1883faf7e0b9e7b663c","","","","","<p style=""color:darkgreen;font-size:24px;"">Correct :)</p>","",""
"3333","key","n","n","33.323232323232325","500","250","psychophysics","350","981036","0.0-350.0","614de6faf1af6a87e98a50bc","6213d1883faf7e0b9e7b663c","6","","","","","1","8"
"null","","","null","","","","html-keyboard-response","351","981538","0.0-351.0","614de6faf1af6a87e98a50bc","6213d1883faf7e0b9e7b663c","","","","","<p style=""color:darkgreen;font-size:24px;"">Correct :)</p>","",""
"4983","key","n","n","33.328859060402685","500","250","psychophysics","352","986525","0.0-352.0","614de6faf1af6a87e98a50bc","6213d1883faf7e0b9e7b663c","6","","","","","1","6"
"null","","","null","","","","html-keyboard-response","353","987026","0.0-353.0","614de6faf1af6a87e98a50bc","6213d1883faf7e0b9e7b663c","","","","","<p style=""color:darkgreen;font-size:24px;"">Correct :)</p>","",""
"5098","key","v","v","33.3421052631579","500","250","psychophysics","354","992126","0.0-354.0","614de6faf1af6a87e98a50bc","6213d1883faf7e0b9e7b663c","6","","","","","1","1"
"null","","","null","","","","html-keyboard-response","355","992628","0.0-355.0","614de6faf1af6a87e98a50bc","6213d1883faf7e0b9e7b663c","","","","","<p style=""color:darkgreen;font-size:24px;"">Correct :)</p>","",""
"3655","key","v","v","33.330275229357795","500","250","psychophysics","356","996287","0.0-356.0","614de6faf1af6a87e98a50bc","6213d1883faf7e0b9e7b663c","6","","","","","0","7"
"null","","","null","","","","html-keyboard-response","357","996788","0.0-357.0","614de6faf1af6a87e98a50bc","6213d1883faf7e0b9e7b663c","","","","","<p style=""color:darkgreen;font-size:24px;"">Correct :)</p>","",""
"5750","key","v","v","33.33720930232558","500","250","psychophysics","358","1002540","0.0-358.0","614de6faf1af6a87e98a50bc","6213d1883faf7e0b9e7b663c","6","","","","","1","1"
"null","","","null","","","","html-keyboard-response","359","1003042","0.0-359.0","614de6faf1af6a87e98a50bc","6213d1883faf7e0b9e7b663c","","","","","<p style=""color:darkgreen;font-size:24px;"">Correct :)</p>","",""
"5757","key","v","v","33.343023255813954","500","250","psychophysics","360","1008801","0.0-360.0","614de6faf1af6a87e98a50bc","6213d1883faf7e0b9e7b663c","6","","","","","0","3"
"null","","","null","","","","html-keyboard-response","361","1009303","0.0-361.0","614de6faf1af6a87e98a50bc","6213d1883faf7e0b9e7b663c","","","","","<p style=""color:darkgreen;font-size:24px;"">Correct :)</p>","",""
"4701","key","v","v","33.32857142857143","500","250","psychophysics","362","1014007","0.0-362.0","614de6faf1af6a87e98a50bc","6213d1883faf7e0b9e7b663c","6","","","","","0","3"
"null","","","null","","","","html-keyboard-response","363","1014509","0.0-363.0","614de6faf1af6a87e98a50bc","6213d1883faf7e0b9e7b663c","","","","","<p style=""color:darkgreen;font-size:24px;"">Correct :)</p>","",""
"3094","key","n","n","33.34782608695652","500","250","psychophysics","364","1017605","0.0-364.0","614de6faf1af6a87e98a50bc","6213d1883faf7e0b9e7b663c","6","","","","","1","9"
"null","","","null","","","","html-keyboard-response","365","1018107","0.0-365.0","614de6faf1af6a87e98a50bc","6213d1883faf7e0b9e7b663c","","","","","<p style=""color:darkgreen;font-size:24px;"">Correct :)</p>","",""
"3054","key","n","n","33.32967032967033","500","250","psychophysics","366","1021164","0.0-366.0","614de6faf1af6a87e98a50bc","6213d1883faf7e0b9e7b663c","6","","","","","1","9"
"null","","","null","","","","html-keyboard-response","367","1021666","0.0-367.0","614de6faf1af6a87e98a50bc","6213d1883faf7e0b9e7b663c","","","","","<p style=""color:darkgreen;font-size:24px;"">Correct :)</p>","",""
"4018","key","v","v","33.325","500","250","psychophysics","368","1025688","0.0-368.0","614de6faf1af6a87e98a50bc","6213d1883faf7e0b9e7b663c","6","","","","","0","3"
"null","","","null","","","","html-keyboard-response","369","1026190","0.0-369.0","614de6faf1af6a87e98a50bc","6213d1883faf7e0b9e7b663c","","","","","<p style=""color:darkgreen;font-size:24px;"">Correct :)</p>","",""
"3750","key","n","n","33.32142857142857","500","250","psychophysics","370","1029942","0.0-370.0","614de6faf1af6a87e98a50bc","6213d1883faf7e0b9e7b663c","6","","","","","1","8"
"null","","","null","","","","html-keyboard-response","371","1030445","0.0-371.0","614de6faf1af6a87e98a50bc","6213d1883faf7e0b9e7b663c","","","","","<p style=""color:darkgreen;font-size:24px;"">Correct :)</p>","",""
"3844","key","v","v","33.33913043478261","500","250","psychophysics","372","1034291","0.0-372.0","614de6faf1af6a87e98a50bc","6213d1883faf7e0b9e7b663c","6","","","","","0","7"
"null","","","null","","","","html-keyboard-response","373","1034793","0.0-373.0","614de6faf1af6a87e98a50bc","6213d1883faf7e0b9e7b663c","","","","","<p style=""color:darkgreen;font-size:24px;"">Correct :)</p>","",""
"6122","key","n","n","33.33879781420765","500","250","psychophysics","374","1040917","0.0-374.0","614de6faf1af6a87e98a50bc","6213d1883faf7e0b9e7b663c","6","","","","","0","4"
"null","","","null","","","","html-keyboard-response","375","1041419","0.0-375.0","614de6faf1af6a87e98a50bc","6213d1883faf7e0b9e7b663c","","","","","<p style=""color:darkgreen;font-size:24px;"">Correct :)</p>","",""
"4054","key","v","v","33.33057851239669","500","250","psychophysics","376","1045477","0.0-376.0","614de6faf1af6a87e98a50bc","6213d1883faf7e0b9e7b663c","6","","","","","1","1"
"null","","","null","","","","html-keyboard-response","377","1045978","0.0-377.0","614de6faf1af6a87e98a50bc","6213d1883faf7e0b9e7b663c","","","","","<p style=""color:darkgreen;font-size:24px;"">Correct :)</p>","",""
"4057","key","v","v","33.32231404958678","500","250","psychophysics","378","1050037","0.0-378.0","614de6faf1af6a87e98a50bc","6213d1883faf7e0b9e7b663c","6","","","","","0","7"
"null","","","null","","","","html-keyboard-response","379","1050539","0.0-379.0","614de6faf1af6a87e98a50bc","6213d1883faf7e0b9e7b663c","","","","","<p style=""color:darkgreen;font-size:24px;"">Correct :)</p>","",""
"3713","key","v","v","33.32432432432432","500","250","psychophysics","380","1054254","0.0-380.0","614de6faf1af6a87e98a50bc","6213d1883faf7e0b9e7b663c","6","","","","","1","3"
"null","","","null","","","","html-keyboard-response","381","1054756","0.0-381.0","614de6faf1af6a87e98a50bc","6213d1883faf7e0b9e7b663c","","","","","<p style=""color:darkgreen;font-size:24px;"">Correct :)</p>","",""
"3208","key","n","n","33.33684210526316","500","250","psychophysics","382","1057967","0.0-382.0","614de6faf1af6a87e98a50bc","6213d1883faf7e0b9e7b663c","6","","","","","1","8"
"null","","","null","","","","html-keyboard-response","383","1058469","0.0-383.0","614de6faf1af6a87e98a50bc","6213d1883faf7e0b9e7b663c","","","","","<p style=""color:darkgreen;font-size:24px;"">Correct :)</p>","",""
"3171","key","v","v","33.329787234042556","500","250","psychophysics","384","1061643","0.0-384.0","614de6faf1af6a87e98a50bc","6213d1883faf7e0b9e7b663c","6","","","","","0","1"
"null","","","null","","","","html-keyboard-response","385","1062144","0.0-385.0","614de6faf1af6a87e98a50bc","6213d1883faf7e0b9e7b663c","","","","","<p style=""color:darkgreen;font-size:24px;"">Correct :)</p>","",""
"2908","key","n","n","33.333333333333336","500","250","psychophysics","386","1065055","0.0-386.0","614de6faf1af6a87e98a50bc","6213d1883faf7e0b9e7b663c","6","","","","","0","6"
"null","","","null","","","","html-keyboard-response","387","1065556","0.0-387.0","614de6faf1af6a87e98a50bc","6213d1883faf7e0b9e7b663c","","","","","<p style=""color:darkgreen;font-size:24px;"">Correct :)</p>","",""
"2914","key","n","n","33.333333333333336","500","250","psychophysics","388","1068473","0.0-388.0","614de6faf1af6a87e98a50bc","6213d1883faf7e0b9e7b663c","6","","","","","0","6"
"null","","","null","","","","html-keyboard-response","389","1068975","0.0-389.0","614de6faf1af6a87e98a50bc","6213d1883faf7e0b9e7b663c","","","","","<p style=""color:darkgreen;font-size:24px;"">Correct :)</p>","",""
"3193","key","n","n","33.33684210526316","500","250","psychophysics","390","1072172","0.0-390.0","614de6faf1af6a87e98a50bc","6213d1883faf7e0b9e7b663c","6","","","","","0","2"
"null","","","null","","","","html-keyboard-response","391","1072675","0.0-391.0","614de6faf1af6a87e98a50bc","6213d1883faf7e0b9e7b663c","","","","","<p style=""color:darkgreen;font-size:24px;"">Correct :)</p>","",""
"4099","key","n","n","33.32786885245902","500","250","psychophysics","392","1076777","0.0-392.0","614de6faf1af6a87e98a50bc","6213d1883faf7e0b9e7b663c","6","","","","","1","6"
"null","","","null","","","","html-keyboard-response","393","1077278","0.0-393.0","614de6faf1af6a87e98a50bc","6213d1883faf7e0b9e7b663c","","","","","<p style=""color:darkgreen;font-size:24px;"">Correct :)</p>","",""
"3291","key","n","n","33.33673469387755","500","250","psychophysics","394","1080571","0.0-394.0","614de6faf1af6a87e98a50bc","6213d1883faf7e0b9e7b663c","6","","","","","1","7"
"null","","","null","","","","html-keyboard-response","395","1081073","0.0-395.0","614de6faf1af6a87e98a50bc","6213d1883faf7e0b9e7b663c","","","","","<p style=""color:darkgreen;font-size:24px;"">Correct :)</p>","",""
"6880","","","v","","","","html-keyboard-response","396","1087954","0.0-396.0","614de6faf1af6a87e98a50bc","6213d1883faf7e0b9e7b663c","","","","","<p> Last set of trials.  Here, the tasks are going to switch once again.  We are going to do 50 of these.  And then you are done with the experiment.  </p>  <br><br>  Ready? (press v or n)","",""
"3169","key","v","v","33.329787234042556","500","250","psychophysics","397","1091124","0.0-397.0","614de6faf1af6a87e98a50bc","6213d1883faf7e0b9e7b663c","7","","","","","0","7"
"null","","","null","","","","html-keyboard-response","398","1091626","0.0-398.0","614de6faf1af6a87e98a50bc","6213d1883faf7e0b9e7b663c","","","","","<p style=""color:darkgreen;font-size:24px;"">Correct :)</p>","",""
"2829","key","v","v","33.333333333333336","500","250","psychophysics","399","1094457","0.0-399.0","614de6faf1af6a87e98a50bc","6213d1883faf7e0b9e7b663c","7","","","","","1","3"
"null","","","null","","","","html-keyboard-response","400","1094958","0.0-400.0","614de6faf1af6a87e98a50bc","6213d1883faf7e0b9e7b663c","","","","","<p style=""color:darkgreen;font-size:24px;"">Correct :)</p>","",""
"2884","key","v","v","33.325581395348834","500","250","psychophysics","401","1097844","0.0-401.0","614de6faf1af6a87e98a50bc","6213d1883faf7e0b9e7b663c","7","","","","","1","4"
"null","","","null","","","","html-keyboard-response","402","1098345","0.0-402.0","614de6faf1af6a87e98a50bc","6213d1883faf7e0b9e7b663c","","","","","<p style=""color:darkgreen;font-size:24px;"">Correct :)</p>","",""
"2964","key","n","n","33.34090909090909","500","250","psychophysics","403","1101311","0.0-403.0","614de6faf1af6a87e98a50bc","6213d1883faf7e0b9e7b663c","7","","","","","0","4"
"null","","","null","","","","html-keyboard-response","404","1101813","0.0-404.0","614de6faf1af6a87e98a50bc","6213d1883faf7e0b9e7b663c","","","","","<p style=""color:darkgreen;font-size:24px;"">Correct :)</p>","",""
"2582","key","v","v","33.35064935064935","500","250","psychophysics","405","1104399","0.0-405.0","614de6faf1af6a87e98a50bc","6213d1883faf7e0b9e7b663c","7","","","","","1","4"
"null","","","null","","","","html-keyboard-response","406","1104901","0.0-406.0","614de6faf1af6a87e98a50bc","6213d1883faf7e0b9e7b663c","","","","","<p style=""color:darkgreen;font-size:24px;"">Correct :)</p>","",""
"3453","key","n","n","33.320388349514566","500","250","psychophysics","407","1108356","0.0-407.0","614de6faf1af6a87e98a50bc","6213d1883faf7e0b9e7b663c","7","","","","","1","7"
"null","","","null","","","","html-keyboard-response","408","1108858","0.0-408.0","614de6faf1af6a87e98a50bc","6213d1883faf7e0b9e7b663c","","","","","<p style=""color:darkgreen;font-size:24px;"">Correct :)</p>","",""
"3824","key","n","n","33.3421052631579","500","250","psychophysics","409","1112685","0.0-409.0","614de6faf1af6a87e98a50bc","6213d1883faf7e0b9e7b663c","7","","","","","0","2"
"null","","","null","","","","html-keyboard-response","410","1113187","0.0-410.0","614de6faf1af6a87e98a50bc","6213d1883faf7e0b9e7b663c","","","","","<p style=""color:darkgreen;font-size:24px;"">Correct :)</p>","",""
"3661","key","v","v","33.330275229357795","500","250","psychophysics","411","1116850","0.0-411.0","614de6faf1af6a87e98a50bc","6213d1883faf7e0b9e7b663c","7","","","","","1","4"
"null","","","null","","","","html-keyboard-response","412","1117351","0.0-412.0","614de6faf1af6a87e98a50bc","6213d1883faf7e0b9e7b663c","","","","","<p style=""color:darkgreen;font-size:24px;"">Correct :)</p>","",""
"3571","key","v","v","33.33018867924528","500","250","psychophysics","413","1120925","0.0-413.0","614de6faf1af6a87e98a50bc","6213d1883faf7e0b9e7b663c","7","","","","","1","4"
"null","","","null","","","","html-keyboard-response","414","1121426","0.0-414.0","614de6faf1af6a87e98a50bc","6213d1883faf7e0b9e7b663c","","","","","<p style=""color:darkgreen;font-size:24px;"">Correct :)</p>","",""
"3686","key","n","n","33.345454545454544","500","250","psychophysics","415","1125114","0.0-415.0","614de6faf1af6a87e98a50bc","6213d1883faf7e0b9e7b663c","7","","","","","0","2"
"null","","","null","","","","html-keyboard-response","416","1125615","0.0-416.0","614de6faf1af6a87e98a50bc","6213d1883faf7e0b9e7b663c","","","","","<p style=""color:darkgreen;font-size:24px;"">Correct :)</p>","",""
"3440","key","v","v","33.3235294117647","500","250","psychophysics","417","1129059","0.0-417.0","614de6faf1af6a87e98a50bc","6213d1883faf7e0b9e7b663c","7","","","","","1","4"
"null","","","null","","","","html-keyboard-response","418","1129560","0.0-418.0","614de6faf1af6a87e98a50bc","6213d1883faf7e0b9e7b663c","","","","","<p style=""color:darkgreen;font-size:24px;"">Correct :)</p>","",""
"3085","key","v","v","33.33695652173913","500","250","psychophysics","419","1132647","0.0-419.0","614de6faf1af6a87e98a50bc","6213d1883faf7e0b9e7b663c","7","","","","","1","1"
"null","","","null","","","","html-keyboard-response","420","1133149","0.0-420.0","614de6faf1af6a87e98a50bc","6213d1883faf7e0b9e7b663c","","","","","<p style=""color:darkgreen;font-size:24px;"">Correct :)</p>","",""
"2739","key","v","v","33.32098765432099","500","250","psychophysics","421","1135891","0.0-421.0","614de6faf1af6a87e98a50bc","6213d1883faf7e0b9e7b663c","7","","","","","0","1"
"null","","","null","","","","html-keyboard-response","422","1136392","0.0-422.0","614de6faf1af6a87e98a50bc","6213d1883faf7e0b9e7b663c","","","","","<p style=""color:darkgreen;font-size:24px;"">Correct :)</p>","",""
"2771","key","v","v","33.329268292682926","500","250","psychophysics","423","1139166","0.0-423.0","614de6faf1af6a87e98a50bc","6213d1883faf7e0b9e7b663c","7","","","","","1","3"
"null","","","null","","","","html-keyboard-response","424","1139668","0.0-424.0","614de6faf1af6a87e98a50bc","6213d1883faf7e0b9e7b663c","","","","","<p style=""color:darkgreen;font-size:24px;"">Correct :)</p>","",""
"2864","key","n","n","33.32941176470588","500","250","psychophysics","425","1142533","0.0-425.0","614de6faf1af6a87e98a50bc","6213d1883faf7e0b9e7b663c","7","","","","","0","2"
"null","","","null","","","","html-keyboard-response","426","1143035","0.0-426.0","614de6faf1af6a87e98a50bc","6213d1883faf7e0b9e7b663c","","","","","<p style=""color:darkgreen;font-size:24px;"">Correct :)</p>","",""
"3194","key","n","n","33.32631578947368","500","250","psychophysics","427","1146231","0.0-427.0","614de6faf1af6a87e98a50bc","6213d1883faf7e0b9e7b663c","7","","","","","1","6"
"null","","","null","","","","html-keyboard-response","428","1146732","0.0-428.0","614de6faf1af6a87e98a50bc","6213d1883faf7e0b9e7b663c","","","","","<p style=""color:darkgreen;font-size:24px;"">Correct :)</p>","",""
"3179","key","v","v","33.329787234042556","500","250","psychophysics","429","1149913","0.0-429.0","614de6faf1af6a87e98a50bc","6213d1883faf7e0b9e7b663c","7","","","","","1","4"
"null","","","null","","","","html-keyboard-response","430","1150415","0.0-430.0","614de6faf1af6a87e98a50bc","6213d1883faf7e0b9e7b663c","","","","","<p style=""color:darkgreen;font-size:24px;"">Correct :)</p>","",""
"2846","key","v","v","33.305882352941175","500","250","psychophysics","431","1153272","0.0-431.0","614de6faf1af6a87e98a50bc","6213d1883faf7e0b9e7b663c","7","","","","","0","3"
"null","","","null","","","","html-keyboard-response","432","1153773","0.0-432.0","614de6faf1af6a87e98a50bc","6213d1883faf7e0b9e7b663c","","","","","<p style=""color:darkgreen;font-size:24px;"">Correct :)</p>","",""
"2916","key","v","v","33.32183908045977","500","250","psychophysics","433","1156692","0.0-433.0","614de6faf1af6a87e98a50bc","6213d1883faf7e0b9e7b663c","7","","","","","1","4"
"null","","","null","","","","html-keyboard-response","434","1157194","0.0-434.0","614de6faf1af6a87e98a50bc","6213d1883faf7e0b9e7b663c","","","","","<p style=""color:darkgreen;font-size:24px;"">Correct :)</p>","",""
"3066","key","n","n","33.34065934065934","500","250","psychophysics","435","1160262","0.0-435.0","614de6faf1af6a87e98a50bc","6213d1883faf7e0b9e7b663c","7","","","","","1","7"
"null","","","null","","","","html-keyboard-response","436","1160763","0.0-436.0","614de6faf1af6a87e98a50bc","6213d1883faf7e0b9e7b663c","","","","","<p style=""color:darkgreen;font-size:24px;"">Correct :)</p>","",""
"3214","key","v","v","33.34375","500","250","psychophysics","437","1163980","0.0-437.0","614de6faf1af6a87e98a50bc","6213d1883faf7e0b9e7b663c","7","","","","","1","4"
"null","","","null","","","","html-keyboard-response","438","1164481","0.0-438.0","614de6faf1af6a87e98a50bc","6213d1883faf7e0b9e7b663c","","","","","<p style=""color:darkgreen;font-size:24px;"">Correct :)</p>","",""
"2827","key","v","v","33.345238095238095","500","250","psychophysics","439","1167310","0.0-439.0","614de6faf1af6a87e98a50bc","6213d1883faf7e0b9e7b663c","7","","","","","0","1"
"null","","","null","","","","html-keyboard-response","440","1167812","0.0-440.0","614de6faf1af6a87e98a50bc","6213d1883faf7e0b9e7b663c","","","","","<p style=""color:darkgreen;font-size:24px;"">Correct :)</p>","",""
"2742","key","v","v","33.329268292682926","500","250","psychophysics","441","1170558","0.0-441.0","614de6faf1af6a87e98a50bc","6213d1883faf7e0b9e7b663c","7","","","","","0","3"
"null","","","null","","","","html-keyboard-response","442","1171060","0.0-442.0","614de6faf1af6a87e98a50bc","6213d1883faf7e0b9e7b663c","","","","","<p style=""color:darkgreen;font-size:24px;"">Correct :)</p>","",""
"2698","key","v","v","33.325","500","250","psychophysics","443","1173760","0.0-443.0","614de6faf1af6a87e98a50bc","6213d1883faf7e0b9e7b663c","7","","","","","0","7"
"null","","","null","","","","html-keyboard-response","444","1174261","0.0-444.0","614de6faf1af6a87e98a50bc","6213d1883faf7e0b9e7b663c","","","","","<p style=""color:darkgreen;font-size:24px;"">Correct :)</p>","",""
"2958","key","v","v","33.32954545454545","500","250","psychophysics","445","1177221","0.0-445.0","614de6faf1af6a87e98a50bc","6213d1883faf7e0b9e7b663c","7","","","","","1","3"
"null","","","null","","","","html-keyboard-response","446","1177723","0.0-446.0","614de6faf1af6a87e98a50bc","6213d1883faf7e0b9e7b663c","","","","","<p style=""color:darkgreen;font-size:24px;"">Correct :)</p>","",""
"3094","key","v","v","33.32608695652174","500","250","psychophysics","447","1180820","0.0-447.0","614de6faf1af6a87e98a50bc","6213d1883faf7e0b9e7b663c","7","","","","","1","2"
"null","","","null","","","","html-keyboard-response","448","1181322","0.0-448.0","614de6faf1af6a87e98a50bc","6213d1883faf7e0b9e7b663c","","","","","<p style=""color:darkgreen;font-size:24px;"">Correct :)</p>","",""
"3045","key","v","v","33.32967032967033","500","250","psychophysics","449","1184373","0.0-449.0","614de6faf1af6a87e98a50bc","6213d1883faf7e0b9e7b663c","7","","","","","1","1"
"null","","","null","","","","html-keyboard-response","450","1184875","0.0-450.0","614de6faf1af6a87e98a50bc","6213d1883faf7e0b9e7b663c","","","","","<p style=""color:darkgreen;font-size:24px;"">Correct :)</p>","",""
"3137","key","n","n","33.32258064516129","500","250","psychophysics","451","1188015","0.0-451.0","614de6faf1af6a87e98a50bc","6213d1883faf7e0b9e7b663c","7","","","","","0","2"
"null","","","null","","","","html-keyboard-response","452","1188516","0.0-452.0","614de6faf1af6a87e98a50bc","6213d1883faf7e0b9e7b663c","","","","","<p style=""color:darkgreen;font-size:24px;"">Correct :)</p>","",""
"2919","key","n","n","33.32183908045977","500","250","psychophysics","453","1191440","0.0-453.0","614de6faf1af6a87e98a50bc","6213d1883faf7e0b9e7b663c","7","","","","","0","2"
"null","","","null","","","","html-keyboard-response","454","1191941","0.0-454.0","614de6faf1af6a87e98a50bc","6213d1883faf7e0b9e7b663c","","","","","<p style=""color:darkgreen;font-size:24px;"">Correct :)</p>","",""
"2890","key","v","v","33.33720930232558","500","250","psychophysics","455","1194834","0.0-455.0","614de6faf1af6a87e98a50bc","6213d1883faf7e0b9e7b663c","7","","","","","1","1"
"null","","","null","","","","html-keyboard-response","456","1195336","0.0-456.0","614de6faf1af6a87e98a50bc","6213d1883faf7e0b9e7b663c","","","","","<p style=""color:darkgreen;font-size:24px;"">Correct :)</p>","",""
"2774","key","v","v","33.34146341463415","500","250","psychophysics","457","1198111","0.0-457.0","614de6faf1af6a87e98a50bc","6213d1883faf7e0b9e7b663c","7","","","","","1","2"
"null","","","null","","","","html-keyboard-response","458","1198613","0.0-458.0","614de6faf1af6a87e98a50bc","6213d1883faf7e0b9e7b663c","","","","","<p style=""color:darkgreen;font-size:24px;"">Correct :)</p>","",""
"3008","key","n","n","33.333333333333336","500","250","psychophysics","459","1201623","0.0-459.0","614de6faf1af6a87e98a50bc","6213d1883faf7e0b9e7b663c","7","","","","","1","7"
"null","","","null","","","","html-keyboard-response","460","1202124","0.0-460.0","614de6faf1af6a87e98a50bc","6213d1883faf7e0b9e7b663c","","","","","<p style=""color:darkgreen;font-size:24px;"">Correct :)</p>","",""
"3521","key","v","v","33.333333333333336","500","250","psychophysics","461","1205650","0.0-461.0","614de6faf1af6a87e98a50bc","6213d1883faf7e0b9e7b663c","7","","","","","0","7"
"null","","","null","","","","html-keyboard-response","462","1206152","0.0-462.0","614de6faf1af6a87e98a50bc","6213d1883faf7e0b9e7b663c","","","","","<p style=""color:darkgreen;font-size:24px;"">Correct :)</p>","",""
"3115","key","n","n","33.34782608695652","500","250","psychophysics","463","1209268","0.0-463.0","614de6faf1af6a87e98a50bc","6213d1883faf7e0b9e7b663c","7","","","","","0","2"
"null","","","null","","","","html-keyboard-response","464","1209770","0.0-464.0","614de6faf1af6a87e98a50bc","6213d1883faf7e0b9e7b663c","","","","","<p style=""color:darkgreen;font-size:24px;"">Correct :)</p>","",""
"2984","key","v","v","33.325842696629216","500","250","psychophysics","465","1212757","0.0-465.0","614de6faf1af6a87e98a50bc","6213d1883faf7e0b9e7b663c","7","","","","","0","3"
"null","","","null","","","","html-keyboard-response","466","1213259","0.0-466.0","614de6faf1af6a87e98a50bc","6213d1883faf7e0b9e7b663c","","","","","<p style=""color:darkgreen;font-size:24px;"">Correct :)</p>","",""
"3194","key","n","n","33.32631578947368","500","250","psychophysics","467","1216455","0.0-467.0","614de6faf1af6a87e98a50bc","6213d1883faf7e0b9e7b663c","7","","","","","1","6"
"null","","","null","","","","html-keyboard-response","468","1216956","0.0-468.0","614de6faf1af6a87e98a50bc","6213d1883faf7e0b9e7b663c","","","","","<p style=""color:darkgreen;font-size:24px;"">Correct :)</p>","",""
"3443","key","n","n","33.333333333333336","500","250","psychophysics","469","1220401","0.0-469.0","614de6faf1af6a87e98a50bc","6213d1883faf7e0b9e7b663c","7","","","","","0","2"
"null","","","null","","","","html-keyboard-response","470","1220903","0.0-470.0","614de6faf1af6a87e98a50bc","6213d1883faf7e0b9e7b663c","","","","","<p style=""color:darkgreen;font-size:24px;"">Correct :)</p>","",""
"2924","key","n","n","33.32183908045977","500","250","psychophysics","471","1223832","0.0-471.0","614de6faf1af6a87e98a50bc","6213d1883faf7e0b9e7b663c","7","","","","","1","6"
"null","","","null","","","","html-keyboard-response","472","1224334","0.0-472.0","614de6faf1af6a87e98a50bc","6213d1883faf7e0b9e7b663c","","","","","<p style=""color:darkgreen;font-size:24px;"">Correct :)</p>","",""
"2977","key","v","v","33.32954545454545","500","250","psychophysics","473","1227314","0.0-473.0","614de6faf1af6a87e98a50bc","6213d1883faf7e0b9e7b663c","7","","","","","0","1"
"null","","","null","","","","html-keyboard-response","474","1227818","0.0-474.0","614de6faf1af6a87e98a50bc","6213d1883faf7e0b9e7b663c","","","","","<p style=""color:darkgreen;font-size:24px;"">Correct :)</p>","",""
"3015","key","n","n","33.325842696629216","500","250","psychophysics","475","1230835","0.0-475.0","614de6faf1af6a87e98a50bc","6213d1883faf7e0b9e7b663c","7","","","","","0","6"
"null","","","null","","","","html-keyboard-response","476","1231336","0.0-476.0","614de6faf1af6a87e98a50bc","6213d1883faf7e0b9e7b663c","","","","","<p style=""color:darkgreen;font-size:24px;"">Correct :)</p>","",""
"2884","key","n","n","33.325581395348834","500","250","psychophysics","477","1234223","0.0-477.0","614de6faf1af6a87e98a50bc","6213d1883faf7e0b9e7b663c","7","","","","","1","6"
"null","","","null","","","","html-keyboard-response","478","1234725","0.0-478.0","614de6faf1af6a87e98a50bc","6213d1883faf7e0b9e7b663c","","","","","<p style=""color:darkgreen;font-size:24px;"">Correct :)</p>","",""
"2931","key","v","v","33.333333333333336","500","250","psychophysics","479","1237658","0.0-479.0","614de6faf1af6a87e98a50bc","6213d1883faf7e0b9e7b663c","7","","","","","1","1"
"null","","","null","","","","html-keyboard-response","480","1238160","0.0-480.0","614de6faf1af6a87e98a50bc","6213d1883faf7e0b9e7b663c","","","","","<p style=""color:darkgreen;font-size:24px;"">Correct :)</p>","",""
"3276","key","n","n","33.326530612244895","500","250","psychophysics","481","1241440","0.0-481.0","614de6faf1af6a87e98a50bc","6213d1883faf7e0b9e7b663c","7","","","","","0","2"
"null","","","null","","","","html-keyboard-response","482","1241942","0.0-482.0","614de6faf1af6a87e98a50bc","6213d1883faf7e0b9e7b663c","","","","","<p style=""color:darkgreen;font-size:24px;"">Correct :)</p>","",""
"3108","key","v","v","33.31521739130435","500","250","psychophysics","483","1245051","0.0-483.0","614de6faf1af6a87e98a50bc","6213d1883faf7e0b9e7b663c","7","","","","","0","1"
"null","","","null","","","","html-keyboard-response","484","1245553","0.0-484.0","614de6faf1af6a87e98a50bc","6213d1883faf7e0b9e7b663c","","","","","<p style=""color:darkgreen;font-size:24px;"">Correct :)</p>","",""
"2994","key","n","n","33.337078651685395","500","250","psychophysics","485","1248549","0.0-485.0","614de6faf1af6a87e98a50bc","6213d1883faf7e0b9e7b663c","7","","","","","0","2"
"null","","","null","","","","html-keyboard-response","486","1249051","0.0-486.0","614de6faf1af6a87e98a50bc","6213d1883faf7e0b9e7b663c","","","","","<p style=""color:darkgreen;font-size:24px;"">Correct :)</p>","",""
"2931","key","n","n","33.333333333333336","500","250","psychophysics","487","1251984","0.0-487.0","614de6faf1af6a87e98a50bc","6213d1883faf7e0b9e7b663c","7","","","","","0","6"
"null","","","null","","","","html-keyboard-response","488","1252485","0.0-488.0","614de6faf1af6a87e98a50bc","6213d1883faf7e0b9e7b663c","","","","","<p style=""color:darkgreen;font-size:24px;"">Correct :)</p>","",""
"2913","key","v","v","33.325581395348834","500","250","psychophysics","489","1255402","0.0-489.0","614de6faf1af6a87e98a50bc","6213d1883faf7e0b9e7b663c","7","","","","","1","4"
"null","","","null","","","","html-keyboard-response","490","1255904","0.0-490.0","614de6faf1af6a87e98a50bc","6213d1883faf7e0b9e7b663c","","","","","<p style=""color:darkgreen;font-size:24px;"">Correct :)</p>","",""
"3135","key","n","n","33.333333333333336","500","250","psychophysics","491","1259042","0.0-491.0","614de6faf1af6a87e98a50bc","6213d1883faf7e0b9e7b663c","7","","","","","1","6"
"null","","","null","","","","html-keyboard-response","492","1259543","0.0-492.0","614de6faf1af6a87e98a50bc","6213d1883faf7e0b9e7b663c","","","","","<p style=""color:darkgreen;font-size:24px;"">Correct :)</p>","",""
"3438","key","n","n","33.3235294117647","500","250","psychophysics","493","1262983","0.0-493.0","614de6faf1af6a87e98a50bc","6213d1883faf7e0b9e7b663c","7","","","","","0","2"
"null","","","null","","","","html-keyboard-response","494","1263484","0.0-494.0","614de6faf1af6a87e98a50bc","6213d1883faf7e0b9e7b663c","","","","","<p style=""color:darkgreen;font-size:24px;"">Correct :)</p>","",""
"3463","key","v","v","33.33009708737864","500","250","psychophysics","495","1266951","0.0-495.0","614de6faf1af6a87e98a50bc","6213d1883faf7e0b9e7b663c","7","","","","","1","1"
"null","","","null","","","","html-keyboard-response","496","1267453","0.0-496.0","614de6faf1af6a87e98a50bc","6213d1883faf7e0b9e7b663c","","","","","<p style=""color:darkgreen;font-size:24px;"">Correct :)</p>","",""
