"rt","response_type","key_press","response","avg_frame_time","center_x","center_y","trial_type","trial_index","time_elapsed","internal_node_id","pid","sid","phase","guide","targ","resp","stimulus","is5","stim"
"2269","key"," "," ","6.945235474006116","500","250","psychophysics","0","2283","0.0-0.0","5fa012c9da74d501089f07c6","620a732fcedb69707e320889","","","","","","",""
"1459","key"," "," ","6.945357142857145","500","250","psychophysics","1","3745","0.0-1.0","5fa012c9da74d501089f07c6","620a732fcedb69707e320889","","","","","","",""
"1318","key"," "," ","6.945275132275133","500","250","psychophysics","2","5064","0.0-2.0","5fa012c9da74d501089f07c6","620a732fcedb69707e320889","","","","","","",""
"865","key"," "," ","6.945379032258064","500","250","psychophysics","3","5933","0.0-3.0","5fa012c9da74d501089f07c6","620a732fcedb69707e320889","","","","","","",""
"1189","key"," "," ","6.945146198830408","500","250","psychophysics","4","7125","0.0-4.0","5fa012c9da74d501089f07c6","620a732fcedb69707e320889","","","","","","",""
"2489","key"," "," ","6.9453473389355755","500","250","psychophysics","5","9616","0.0-5.0","5fa012c9da74d501089f07c6","620a732fcedb69707e320889","","","","","","",""
"2632","key"," "," ","6.945343007915567","500","250","psychophysics","6","12250","0.0-6.0","5fa012c9da74d501089f07c6","620a732fcedb69707e320889","","","","","","",""
"1758","key"," "," ","6.945253968253967","500","250","psychophysics","7","14010","0.0-7.0","5fa012c9da74d501089f07c6","620a732fcedb69707e320889","","","","","","",""
"4376","key"," "," ","6.945412698412697","500","250","psychophysics","8","18390","0.0-8.0","5fa012c9da74d501089f07c6","620a732fcedb69707e320889","0","0","24","20","","",""
"1702","key"," "," ","6.945348360655741","500","250","psychophysics","9","20095","0.0-9.0","5fa012c9da74d501089f07c6","620a732fcedb69707e320889","","","","","","",""
"430","key"," "," ","6.944967213114754","500","250","psychophysics","10","20527","0.0-10.0","5fa012c9da74d501089f07c6","620a732fcedb69707e320889","","","","","","",""
"1385","key"," "," ","6.945341708542712","500","250","psychophysics","11","21913","0.0-11.0","5fa012c9da74d501089f07c6","620a732fcedb69707e320889","","","","","","",""
"443","key"," "," ","6.94525396825396","500","250","psychophysics","12","22358","0.0-12.0","5fa012c9da74d501089f07c6","620a732fcedb69707e320889","","","","","","",""
"842","key"," "," ","6.945173553718993","500","250","psychophysics","13","23203","0.0-13.0","5fa012c9da74d501089f07c6","620a732fcedb69707e320889","","","","","","",""
"1236","key"," "," ","6.945265536723153","500","250","psychophysics","14","24441","0.0-14.0","5fa012c9da74d501089f07c6","620a732fcedb69707e320889","","","","","","",""
"2613","key"," "," ","6.945319999999997","500","250","psychophysics","15","27056","0.0-15.0","5fa012c9da74d501089f07c6","620a732fcedb69707e320889","","","","","","",""
"1389","key"," "," ","6.945235000000012","500","250","psychophysics","16","28447","0.0-16.0","5fa012c9da74d501089f07c6","620a732fcedb69707e320889","","","","","","",""
"3253","key"," "," ","6.945312633832975","500","250","psychophysics","17","31702","0.0-17.0","5fa012c9da74d501089f07c6","620a732fcedb69707e320889","1","0","26","26","","",""
"2460","key"," "," ","6.9453107344632645","500","250","psychophysics","18","34164","0.0-18.0","5fa012c9da74d501089f07c6","620a732fcedb69707e320889","1","5","42","34","","",""
"2488","key"," "," ","6.945327731092426","500","250","psychophysics","19","36654","0.0-19.0","5fa012c9da74d501089f07c6","620a732fcedb69707e320889","1","0","29","26","","",""
"2144","key"," "," ","6.945357142857161","500","250","psychophysics","20","38800","0.0-20.0","5fa012c9da74d501089f07c6","620a732fcedb69707e320889","1","5","42","33","","",""
"3787","key"," "," ","6.9453339449541325","500","250","psychophysics","21","42589","0.0-21.0","5fa012c9da74d501089f07c6","620a732fcedb69707e320889","1","0","46","35","","",""
"2317","key"," "," ","6.945249249249239","500","250","psychophysics","22","44908","0.0-22.0","5fa012c9da74d501089f07c6","620a732fcedb69707e320889","1","5","37","30","","",""
"2710","key"," "," ","6.9452287917737685","500","250","psychophysics","23","47619","0.0-23.0","5fa012c9da74d501089f07c6","620a732fcedb69707e320889","1","0","41","34","","",""
"1914","key"," "," ","6.945309090909087","500","250","psychophysics","24","49535","0.0-24.0","5fa012c9da74d501089f07c6","620a732fcedb69707e320889","1","5","37","34","","",""
"2208","key"," "," ","6.945252365930589","500","250","psychophysics","25","51744","0.0-25.0","5fa012c9da74d501089f07c6","620a732fcedb69707e320889","1","0","46","43","","",""
"2241","key"," "," ","6.945307453416135","500","250","psychophysics","26","53987","0.0-26.0","5fa012c9da74d501089f07c6","620a732fcedb69707e320889","1","5","28","25","","",""
"1760","key"," "," ","6.945272727272736","500","250","psychophysics","27","55749","0.0-27.0","5fa012c9da74d501089f07c6","620a732fcedb69707e320889","1","0","21","23","","",""
"1874","key"," "," ","6.945323420074354","500","250","psychophysics","28","57625","0.0-28.0","5fa012c9da74d501089f07c6","620a732fcedb69707e320889","1","5","41","27","","",""
"1722","key"," "," ","6.945295546558695","500","250","psychophysics","29","59349","0.0-29.0","5fa012c9da74d501089f07c6","620a732fcedb69707e320889","1","0","35","32","","",""
"1689","key"," "," ","6.945288065843599","500","250","psychophysics","30","61041","0.0-30.0","5fa012c9da74d501089f07c6","620a732fcedb69707e320889","1","5","30","30","","",""
"1542","key"," "," ","6.945339366515862","500","250","psychophysics","31","62586","0.0-31.0","5fa012c9da74d501089f07c6","620a732fcedb69707e320889","1","0","34","28","","",""
"2020","key"," "," ","6.945293103448283","500","250","psychophysics","32","64607","0.0-32.0","5fa012c9da74d501089f07c6","620a732fcedb69707e320889","1","5","48","41","","",""
"2603","key"," "," ","6.945318181818199","500","250","psychophysics","33","67212","0.0-33.0","5fa012c9da74d501089f07c6","620a732fcedb69707e320889","1","0","60","61","","",""
"2209","key"," "," ","6.945349056603771","500","250","psychophysics","34","69424","0.0-34.0","5fa012c9da74d501089f07c6","620a732fcedb69707e320889","1","5","41","45","","",""
"1845","key"," "," ","6.945328301886802","500","250","psychophysics","35","71271","0.0-35.0","5fa012c9da74d501089f07c6","620a732fcedb69707e320889","1","0","51","43","","",""
"1792","key"," "," ","6.9452801556420445","500","250","psychophysics","36","73066","0.0-36.0","5fa012c9da74d501089f07c6","620a732fcedb69707e320889","1","5","35","36","","",""
"1970","key"," "," ","6.945307420494741","500","250","psychophysics","37","75038","0.0-37.0","5fa012c9da74d501089f07c6","620a732fcedb69707e320889","","","","","","",""
"775","key"," "," ","6.945234234234122","500","250","psychophysics","38","75815","0.0-38.0","5fa012c9da74d501089f07c6","620a732fcedb69707e320889","","","","","","",""
"4078","key"," "," ","6.945332764505113","500","250","psychophysics","39","79895","0.0-39.0","5fa012c9da74d501089f07c6","620a732fcedb69707e320889","","","","","","",""
"2094","key"," "," ","6.945342192691014","500","250","psychophysics","40","81991","0.0-40.0","5fa012c9da74d501089f07c6","620a732fcedb69707e320889","2","0","42","44","","",""
"1257","key"," "," ","6.945327777777776","500","250","psychophysics","41","83250","0.0-41.0","5fa012c9da74d501089f07c6","620a732fcedb69707e320889","","","","","","",""
"1497","key"," "," ","6.945330232558136","500","250","psychophysics","42","84749","0.0-42.0","5fa012c9da74d501089f07c6","620a732fcedb69707e320889","2","0","24","25","","",""
"1124","key"," "," ","6.945285714285662","500","250","psychophysics","43","85875","0.0-43.0","5fa012c9da74d501089f07c6","620a732fcedb69707e320889","","","","","","",""
"2103","key"," "," ","6.945350993377481","500","250","psychophysics","44","87980","0.0-44.0","5fa012c9da74d501089f07c6","620a732fcedb69707e320889","2","0","40","42","","",""
"643","key"," "," ","6.945195652173899","500","250","psychophysics","45","88625","0.0-45.0","5fa012c9da74d501089f07c6","620a732fcedb69707e320889","","","","","","",""
"2031","key"," "," ","6.945294520547939","500","250","psychophysics","46","90659","0.0-46.0","5fa012c9da74d501089f07c6","620a732fcedb69707e320889","2","0","41","45","","",""
"676","key"," "," ","6.945422680412428","500","250","psychophysics","47","91337","0.0-47.0","5fa012c9da74d501089f07c6","620a732fcedb69707e320889","","","","","","",""
"2575","key"," "," ","6.94529459459457","500","250","psychophysics","48","93915","0.0-48.0","5fa012c9da74d501089f07c6","620a732fcedb69707e320889","2","0","50","57","","",""
"846","key"," "," ","6.945256198347139","500","250","psychophysics","49","94763","0.0-49.0","5fa012c9da74d501089f07c6","620a732fcedb69707e320889","","","","","","",""
"2541","key"," "," ","6.945356164383543","500","250","psychophysics","50","97306","0.0-50.0","5fa012c9da74d501089f07c6","620a732fcedb69707e320889","2","0","54","58","","",""
"798","key"," "," ","6.945324561403443","500","250","psychophysics","51","98107","0.0-51.0","5fa012c9da74d501089f07c6","620a732fcedb69707e320889","","","","","","",""
"2261","key"," "," ","6.945292307692311","500","250","psychophysics","52","100369","0.0-52.0","5fa012c9da74d501089f07c6","620a732fcedb69707e320889","2","0","42","48","","",""
"605","key"," "," ","6.945402298850575","500","250","psychophysics","53","100976","0.0-53.0","5fa012c9da74d501089f07c6","620a732fcedb69707e320889","","","","","","",""
"2584","key"," "," ","6.945299191374678","500","250","psychophysics","54","103563","0.0-54.0","5fa012c9da74d501089f07c6","620a732fcedb69707e320889","2","0","58","63","","",""
"647","key"," "," ","6.945228260869518","500","250","psychophysics","55","104212","0.0-55.0","5fa012c9da74d501089f07c6","620a732fcedb69707e320889","","","","","","",""
"1958","key"," "," ","6.945308510638263","500","250","psychophysics","56","106172","0.0-56.0","5fa012c9da74d501089f07c6","620a732fcedb69707e320889","2","0","40","44","","",""
"541","key"," "," ","6.9451558441558685","500","250","psychophysics","57","106715","0.0-57.0","5fa012c9da74d501089f07c6","620a732fcedb69707e320889","","","","","","",""
"1626","key"," "," ","6.945266094420614","500","250","psychophysics","58","108342","0.0-58.0","5fa012c9da74d501089f07c6","620a732fcedb69707e320889","2","0","32","33","","",""
"519","key"," "," ","6.945216216216166","500","250","psychophysics","59","108863","0.0-59.0","5fa012c9da74d501089f07c6","620a732fcedb69707e320889","","","","","","",""
"1379","key"," "," ","6.94536868686871","500","250","psychophysics","60","110245","0.0-60.0","5fa012c9da74d501089f07c6","620a732fcedb69707e320889","2","0","22","24","","",""
"551","key"," "," ","6.9453164556962985","500","250","psychophysics","61","110798","0.0-61.0","5fa012c9da74d501089f07c6","620a732fcedb69707e320889","","","","","","",""
"1979","key"," "," ","6.945250000000003","500","250","psychophysics","62","112779","0.0-62.0","5fa012c9da74d501089f07c6","620a732fcedb69707e320889","2","0","39","41","","",""
"541","key"," "," ","6.945324675324781","500","250","psychophysics","63","113323","0.0-63.0","5fa012c9da74d501089f07c6","620a732fcedb69707e320889","","","","","","",""
"2288","key"," "," ","6.945316109422509","500","250","psychophysics","64","115612","0.0-64.0","5fa012c9da74d501089f07c6","620a732fcedb69707e320889","2","0","52","52","","",""
"617","key"," "," ","6.9451704545454875","500","250","psychophysics","65","116232","0.0-65.0","5fa012c9da74d501089f07c6","620a732fcedb69707e320889","","","","","","",""
"2124","key"," "," ","6.945357377049189","500","250","psychophysics","66","118357","0.0-66.0","5fa012c9da74d501089f07c6","620a732fcedb69707e320889","2","0","55","49","","",""
"464","key"," "," ","6.94537878787885","500","250","psychophysics","67","118823","0.0-67.0","5fa012c9da74d501089f07c6","620a732fcedb69707e320889","","","","","","",""
"1976","key"," "," ","6.94531338028168","500","250","psychophysics","68","120801","0.0-68.0","5fa012c9da74d501089f07c6","620a732fcedb69707e320889","2","0","53","46","","",""
"521","key"," "," ","6.945337837837862","500","250","psychophysics","69","121324","0.0-69.0","5fa012c9da74d501089f07c6","620a732fcedb69707e320889","","","","","","",""
"1968","key"," "," ","6.945353356890472","500","250","psychophysics","70","123294","0.0-70.0","5fa012c9da74d501089f07c6","620a732fcedb69707e320889","","","","","","",""
"825","key"," "," ","6.945415254237359","500","250","psychophysics","71","124122","0.0-71.0","5fa012c9da74d501089f07c6","620a732fcedb69707e320889","","","","","","",""
"1594","key"," "," ","6.945349344978105","500","250","psychophysics","72","125718","0.0-72.0","5fa012c9da74d501089f07c6","620a732fcedb69707e320889","3","5","28","27","","",""
"1621","key"," "," ","6.945245689655198","500","250","psychophysics","73","127340","0.0-73.0","5fa012c9da74d501089f07c6","620a732fcedb69707e320889","3","0","33","25","","",""
"1334","key"," "," ","6.945338541666691","500","250","psychophysics","74","128676","0.0-74.0","5fa012c9da74d501089f07c6","620a732fcedb69707e320889","3","5","20","19","","",""
"2005","key"," "," ","6.945298611111159","500","250","psychophysics","75","130683","0.0-75.0","5fa012c9da74d501089f07c6","620a732fcedb69707e320889","3","0","53","38","","",""
"1959","key"," "," ","6.94530960854097","500","250","psychophysics","76","132645","0.0-76.0","5fa012c9da74d501089f07c6","620a732fcedb69707e320889","3","5","46","43","","",""
"1837","key"," "," ","6.945299242424274","500","250","psychophysics","77","134483","0.0-77.0","5fa012c9da74d501089f07c6","620a732fcedb69707e320889","3","0","46","42","","",""
"1364","key"," "," ","6.945326530612317","500","250","psychophysics","78","135849","0.0-78.0","5fa012c9da74d501089f07c6","620a732fcedb69707e320889","3","5","22","24","","",""
"1853","key"," "," ","6.945304511278199","500","250","psychophysics","79","137705","0.0-79.0","5fa012c9da74d501089f07c6","620a732fcedb69707e320889","3","0","45","40","","",""
"1375","key"," "," ","6.945345177664865","500","250","psychophysics","80","139082","0.0-80.0","5fa012c9da74d501089f07c6","620a732fcedb69707e320889","3","5","25","26","","",""
"1600","key"," "," ","6.945278260869521","500","250","psychophysics","81","140683","0.0-81.0","5fa012c9da74d501089f07c6","620a732fcedb69707e320889","3","0","32","33","","",""
"1590","key"," "," ","6.945407894736905","500","250","psychophysics","82","142276","0.0-82.0","5fa012c9da74d501089f07c6","620a732fcedb69707e320889","3","5","34","34","","",""
"1714","key"," "," ","6.945231707317081","500","250","psychophysics","83","143991","0.0-83.0","5fa012c9da74d501089f07c6","620a732fcedb69707e320889","3","0","27","36","","",""
"1456","key"," "," ","6.945267942583809","500","250","psychophysics","84","145449","0.0-84.0","5fa012c9da74d501089f07c6","620a732fcedb69707e320889","3","5","26","30","","",""
"2417","key"," "," ","6.94525936599425","500","250","psychophysics","85","147868","0.0-85.0","5fa012c9da74d501089f07c6","620a732fcedb69707e320889","3","0","57","59","","",""
"2565","key"," "," ","6.945322493224914","500","250","psychophysics","86","150435","0.0-86.0","5fa012c9da74d501089f07c6","620a732fcedb69707e320889","3","5","60","63","","",""
"1890","key"," "," ","6.945295202952094","500","250","psychophysics","87","152328","0.0-87.0","5fa012c9da74d501089f07c6","620a732fcedb69707e320889","3","0","47","43","","",""
"1538","key"," "," ","6.945343891402724","500","250","psychophysics","88","153867","0.0-88.0","5fa012c9da74d501089f07c6","620a732fcedb69707e320889","3","5","30","33","","",""
"1556","key"," "," ","6.945327354260045","500","250","psychophysics","89","155425","0.0-89.0","5fa012c9da74d501089f07c6","620a732fcedb69707e320889","3","0","33","33","","",""
"1222","key"," "," ","6.945405714285693","500","250","psychophysics","90","156649","0.0-90.0","5fa012c9da74d501089f07c6","620a732fcedb69707e320889","3","5","21","22","","",""
"1339","key"," "," ","6.945260416666618","500","250","psychophysics","91","157990","0.0-91.0","5fa012c9da74d501089f07c6","620a732fcedb69707e320889","3","0","20","28","","",""
"13945","key"," "," ","6.945337649402382","500","250","psychophysics","92","171937","0.0-92.0","5fa012c9da74d501089f07c6","620a732fcedb69707e320889","","","","","","",""
"15076","","","v","","","","html-keyboard-response","93","187014","0.0-93.0","5fa012c9da74d501089f07c6","620a732fcedb69707e320889","","","","","<p> In this part of the experiment, we are going present digits 1, 2, 3, 4, 6, 7, 8, and 9.  Notice that 5 is missing.  Your job is to say whether the presented digit is less than or greater than 5.  For example, 3 is less than 5 and 7 is greater than 5.  If the digit is less than 5, press the v key; if it is greater than 5, press the n key. We are going to do 200 of these in total, but only 50 righ now. They go real fast.</p>  <br><br>  Ready? (press v or n)","",""
"3098","key","v","v","6.9510224215246375","500","250","psychophysics","94","190115","0.0-94.0","5fa012c9da74d501089f07c6","620a732fcedb69707e320889","4","","","","","1","1"
"null","","","null","","","","html-keyboard-response","95","190617","0.0-95.0","5fa012c9da74d501089f07c6","620a732fcedb69707e320889","","","","","<p style=""color:darkgreen;font-size:24px;"">Correct :)</p>","",""
"3112","key","n","n","6.945439732142859","500","250","psychophysics","96","193730","0.0-96.0","5fa012c9da74d501089f07c6","620a732fcedb69707e320889","4","","","","","1","6"
"null","","","null","","","","html-keyboard-response","97","194232","0.0-97.0","5fa012c9da74d501089f07c6","620a732fcedb69707e320889","","","","","<p style=""color:darkgreen;font-size:24px;"">Correct :)</p>","",""
"2500","key","n","n","6.9455750000000185","500","250","psychophysics","98","196733","0.0-98.0","5fa012c9da74d501089f07c6","620a732fcedb69707e320889","4","","","","","1","7"
"null","","","null","","","","html-keyboard-response","99","197235","0.0-99.0","5fa012c9da74d501089f07c6","620a732fcedb69707e320889","","","","","<p style=""color:darkgreen;font-size:24px;"">Correct :)</p>","",""
"2475","key","n","n","6.9456050420168225","500","250","psychophysics","100","199711","0.0-100.0","5fa012c9da74d501089f07c6","620a732fcedb69707e320889","4","","","","","1","6"
"null","","","null","","","","html-keyboard-response","101","200212","0.0-101.0","5fa012c9da74d501089f07c6","620a732fcedb69707e320889","","","","","<p style=""color:darkgreen;font-size:24px;"">Correct :)</p>","",""
"2419","key","n","n","6.946439655172426","500","250","psychophysics","102","202632","0.0-102.0","5fa012c9da74d501089f07c6","620a732fcedb69707e320889","4","","","","","1","7"
"null","","","null","","","","html-keyboard-response","103","203135","0.0-103.0","5fa012c9da74d501089f07c6","620a732fcedb69707e320889","","","","","<p style=""color:darkgreen;font-size:24px;"">Correct :)</p>","",""
"2487","key","v","v","6.946008379888274","500","250","psychophysics","104","205624","0.0-104.0","5fa012c9da74d501089f07c6","620a732fcedb69707e320889","4","","","","","1","4"
"null","","","null","","","","html-keyboard-response","105","206126","0.0-105.0","5fa012c9da74d501089f07c6","620a732fcedb69707e320889","","","","","<p style=""color:darkgreen;font-size:24px;"">Correct :)</p>","",""
"2518","key","v","v","6.94557024793388","500","250","psychophysics","106","208645","0.0-106.0","5fa012c9da74d501089f07c6","620a732fcedb69707e320889","4","","","","","1","6"
"null","","","null","","","","html-keyboard-response","107","209146","0.0-107.0","5fa012c9da74d501089f07c6","620a732fcedb69707e320889","","","","","<p style=""color:red;font-size:24px;"">Error :(</p>","",""
"2341","key","v","v","6.944605341246276","500","250","psychophysics","108","211489","0.0-108.0","5fa012c9da74d501089f07c6","620a732fcedb69707e320889","4","","","","","1","3"
"null","","","null","","","","html-keyboard-response","109","211990","0.0-109.0","5fa012c9da74d501089f07c6","620a732fcedb69707e320889","","","","","<p style=""color:darkgreen;font-size:24px;"">Correct :)</p>","",""
"2459","key","v","v","6.945596045197766","500","250","psychophysics","110","214451","0.0-110.0","5fa012c9da74d501089f07c6","620a732fcedb69707e320889","4","","","","","1","1"
"null","","","null","","","","html-keyboard-response","111","214952","0.0-111.0","5fa012c9da74d501089f07c6","620a732fcedb69707e320889","","","","","<p style=""color:darkgreen;font-size:24px;"">Correct :)</p>","",""
"2453","key","v","v","6.945594900849895","500","250","psychophysics","112","217406","0.0-112.0","5fa012c9da74d501089f07c6","620a732fcedb69707e320889","4","","","","","1","3"
"null","","","null","","","","html-keyboard-response","113","217907","0.0-113.0","5fa012c9da74d501089f07c6","620a732fcedb69707e320889","","","","","<p style=""color:darkgreen;font-size:24px;"">Correct :)</p>","",""
"2398","key","v","v","6.9456057971014395","500","250","psychophysics","114","220307","0.0-114.0","5fa012c9da74d501089f07c6","620a732fcedb69707e320889","4","","","","","1","4"
"null","","","null","","","","html-keyboard-response","115","220818","0.0-115.0","5fa012c9da74d501089f07c6","620a732fcedb69707e320889","","","","","<p style=""color:darkgreen;font-size:24px;"">Correct :)</p>","",""
"2513","key","v","v","6.945411602209949","500","250","psychophysics","116","223334","0.0-116.0","5fa012c9da74d501089f07c6","620a732fcedb69707e320889","4","","","","","1","2"
"null","","","null","","","","html-keyboard-response","117","223835","0.0-117.0","5fa012c9da74d501089f07c6","620a732fcedb69707e320889","","","","","<p style=""color:darkgreen;font-size:24px;"">Correct :)</p>","",""
"2554","key","v","v","6.945592391304356","500","250","psychophysics","118","226391","0.0-118.0","5fa012c9da74d501089f07c6","620a732fcedb69707e320889","4","","","","","1","2"
"null","","","null","","","","html-keyboard-response","119","226891","0.0-119.0","5fa012c9da74d501089f07c6","620a732fcedb69707e320889","","","","","<p style=""color:darkgreen;font-size:24px;"">Correct :)</p>","",""
"2566","key","v","v","6.945564864864856","500","250","psychophysics","120","229459","0.0-120.0","5fa012c9da74d501089f07c6","620a732fcedb69707e320889","4","","","","","1","1"
"null","","","null","","","","html-keyboard-response","121","229960","0.0-121.0","5fa012c9da74d501089f07c6","620a732fcedb69707e320889","","","","","<p style=""color:darkgreen;font-size:24px;"">Correct :)</p>","",""
"2419","key","v","v","6.945577586206943","500","250","psychophysics","122","232381","0.0-122.0","5fa012c9da74d501089f07c6","620a732fcedb69707e320889","4","","","","","1","1"
"null","","","null","","","","html-keyboard-response","123","232883","0.0-123.0","5fa012c9da74d501089f07c6","620a732fcedb69707e320889","","","","","<p style=""color:darkgreen;font-size:24px;"">Correct :)</p>","",""
"2443","key","v","v","6.945610795454575","500","250","psychophysics","124","235327","0.0-124.0","5fa012c9da74d501089f07c6","620a732fcedb69707e320889","4","","","","","1","6"
"null","","","null","","","","html-keyboard-response","125","235829","0.0-125.0","5fa012c9da74d501089f07c6","620a732fcedb69707e320889","","","","","<p style=""color:red;font-size:24px;"">Error :(</p>","",""
"2385","key","n","n","6.945595930232568","500","250","psychophysics","126","238218","0.0-126.0","5fa012c9da74d501089f07c6","620a732fcedb69707e320889","4","","","","","1","9"
"null","","","null","","","","html-keyboard-response","127","238719","0.0-127.0","5fa012c9da74d501089f07c6","620a732fcedb69707e320889","","","","","<p style=""color:darkgreen;font-size:24px;"">Correct :)</p>","",""
"2444","key","n","n","6.945627840909103","500","250","psychophysics","128","241165","0.0-128.0","5fa012c9da74d501089f07c6","620a732fcedb69707e320889","4","","","","","1","9"
"null","","","null","","","","html-keyboard-response","129","241667","0.0-129.0","5fa012c9da74d501089f07c6","620a732fcedb69707e320889","","","","","<p style=""color:darkgreen;font-size:24px;"">Correct :)</p>","",""
"2398","key","n","n","7.006352769679227","500","250","psychophysics","130","244067","0.0-130.0","5fa012c9da74d501089f07c6","620a732fcedb69707e320889","4","","","","","1","6"
"null","","","null","","","","html-keyboard-response","131","244568","0.0-131.0","5fa012c9da74d501089f07c6","620a732fcedb69707e320889","","","","","<p style=""color:darkgreen;font-size:24px;"">Correct :)</p>","",""
"2492","key","v","v","6.945607242339828","500","250","psychophysics","132","247062","0.0-132.0","5fa012c9da74d501089f07c6","620a732fcedb69707e320889","4","","","","","1","2"
"null","","","null","","","","html-keyboard-response","133","247564","0.0-133.0","5fa012c9da74d501089f07c6","620a732fcedb69707e320889","","","","","<p style=""color:darkgreen;font-size:24px;"">Correct :)</p>","",""
"2521","key","n","n","6.945429752066093","500","250","psychophysics","134","250086","0.0-134.0","5fa012c9da74d501089f07c6","620a732fcedb69707e320889","4","","","","","1","8"
"null","","","null","","","","html-keyboard-response","135","250588","0.0-135.0","5fa012c9da74d501089f07c6","620a732fcedb69707e320889","","","","","<p style=""color:darkgreen;font-size:24px;"">Correct :)</p>","",""
"2465","key","n","n","6.945622535211257","500","250","psychophysics","136","253056","0.0-136.0","5fa012c9da74d501089f07c6","620a732fcedb69707e320889","4","","","","","1","6"
"null","","","null","","","","html-keyboard-response","137","253558","0.0-137.0","5fa012c9da74d501089f07c6","620a732fcedb69707e320889","","","","","<p style=""color:darkgreen;font-size:24px;"">Correct :)</p>","",""
"2414","key","n","n","6.964028818443835","500","250","psychophysics","138","255973","0.0-138.0","5fa012c9da74d501089f07c6","620a732fcedb69707e320889","4","","","","","1","8"
"null","","","null","","","","html-keyboard-response","139","256483","0.0-139.0","5fa012c9da74d501089f07c6","620a732fcedb69707e320889","","","","","<p style=""color:darkgreen;font-size:24px;"">Correct :)</p>","",""
"2427","key","n","n","6.9451375358166265","500","250","psychophysics","140","258912","0.0-140.0","5fa012c9da74d501089f07c6","620a732fcedb69707e320889","4","","","","","1","7"
"null","","","null","","","","html-keyboard-response","141","259413","0.0-141.0","5fa012c9da74d501089f07c6","620a732fcedb69707e320889","","","","","<p style=""color:darkgreen;font-size:24px;"">Correct :)</p>","",""
"2413","key","n","n","6.945438040345766","500","250","psychophysics","142","261828","0.0-142.0","5fa012c9da74d501089f07c6","620a732fcedb69707e320889","4","","","","","1","8"
"null","","","null","","","","html-keyboard-response","143","262329","0.0-143.0","5fa012c9da74d501089f07c6","620a732fcedb69707e320889","","","","","<p style=""color:darkgreen;font-size:24px;"">Correct :)</p>","",""
"2469","key","n","n","6.965340845070412","500","250","psychophysics","144","264800","0.0-144.0","5fa012c9da74d501089f07c6","620a732fcedb69707e320889","4","","","","","1","6"
"null","","","null","","","","html-keyboard-response","145","265301","0.0-145.0","5fa012c9da74d501089f07c6","620a732fcedb69707e320889","","","","","<p style=""color:darkgreen;font-size:24px;"">Correct :)</p>","",""
"2531","key","v","v","6.963673076923082","500","250","psychophysics","146","267834","0.0-146.0","5fa012c9da74d501089f07c6","620a732fcedb69707e320889","4","","","","","1","1"
"null","","","null","","","","html-keyboard-response","147","268335","0.0-147.0","5fa012c9da74d501089f07c6","620a732fcedb69707e320889","","","","","<p style=""color:darkgreen;font-size:24px;"">Correct :)</p>","",""
"2573","key","v","v","6.945592991913753","500","250","psychophysics","148","270909","0.0-148.0","5fa012c9da74d501089f07c6","620a732fcedb69707e320889","4","","","","","1","4"
"null","","","null","","","","html-keyboard-response","149","271410","0.0-149.0","5fa012c9da74d501089f07c6","620a732fcedb69707e320889","","","","","<p style=""color:darkgreen;font-size:24px;"">Correct :)</p>","",""
"2680","key","v","v","6.945533678756539","500","250","psychophysics","150","274092","0.0-150.0","5fa012c9da74d501089f07c6","620a732fcedb69707e320889","4","","","","","1","3"
"null","","","null","","","","html-keyboard-response","151","274592","0.0-151.0","5fa012c9da74d501089f07c6","620a732fcedb69707e320889","","","","","<p style=""color:darkgreen;font-size:24px;"">Correct :)</p>","",""
"2590","key","n","n","6.945568364611221","500","250","psychophysics","152","277184","0.0-152.0","5fa012c9da74d501089f07c6","620a732fcedb69707e320889","4","","","","","1","8"
"null","","","null","","","","html-keyboard-response","153","277685","0.0-153.0","5fa012c9da74d501089f07c6","620a732fcedb69707e320889","","","","","<p style=""color:darkgreen;font-size:24px;"">Correct :)</p>","",""
"2471","key","n","n","6.944723943662075","500","250","psychophysics","154","280158","0.0-154.0","5fa012c9da74d501089f07c6","620a732fcedb69707e320889","4","","","","","1","9"
"null","","","null","","","","html-keyboard-response","155","280659","0.0-155.0","5fa012c9da74d501089f07c6","620a732fcedb69707e320889","","","","","<p style=""color:darkgreen;font-size:24px;"">Correct :)</p>","",""
"2573","key","n","n","6.945471698113257","500","250","psychophysics","156","283235","0.0-156.0","5fa012c9da74d501089f07c6","620a732fcedb69707e320889","4","","","","","1","8"
"null","","","null","","","","html-keyboard-response","157","283736","0.0-157.0","5fa012c9da74d501089f07c6","620a732fcedb69707e320889","","","","","<p style=""color:darkgreen;font-size:24px;"">Correct :)</p>","",""
"2521","key","n","n","6.945567493112892","500","250","psychophysics","158","286259","0.0-158.0","5fa012c9da74d501089f07c6","620a732fcedb69707e320889","4","","","","","1","9"
"null","","","null","","","","html-keyboard-response","159","286760","0.0-159.0","5fa012c9da74d501089f07c6","620a732fcedb69707e320889","","","","","<p style=""color:darkgreen;font-size:24px;"">Correct :)</p>","",""
"2588","key","n","n","6.9455710455764965","500","250","psychophysics","160","289349","0.0-160.0","5fa012c9da74d501089f07c6","620a732fcedb69707e320889","4","","","","","1","6"
"null","","","null","","","","html-keyboard-response","161","289850","0.0-161.0","5fa012c9da74d501089f07c6","620a732fcedb69707e320889","","","","","<p style=""color:darkgreen;font-size:24px;"">Correct :)</p>","",""
"2566","key","v","v","6.9455675675675295","500","250","psychophysics","162","292418","0.0-162.0","5fa012c9da74d501089f07c6","620a732fcedb69707e320889","4","","","","","1","1"
"null","","","null","","","","html-keyboard-response","163","292920","0.0-163.0","5fa012c9da74d501089f07c6","620a732fcedb69707e320889","","","","","<p style=""color:darkgreen;font-size:24px;"">Correct :)</p>","",""
"2644","key","n","n","6.945611548556407","500","250","psychophysics","164","295566","0.0-164.0","5fa012c9da74d501089f07c6","620a732fcedb69707e320889","4","","","","","1","7"
"null","","","null","","","","html-keyboard-response","165","296067","0.0-165.0","5fa012c9da74d501089f07c6","620a732fcedb69707e320889","","","","","<p style=""color:darkgreen;font-size:24px;"">Correct :)</p>","",""
"2492","key","n","n","6.945573816156017","500","250","psychophysics","166","298561","0.0-166.0","5fa012c9da74d501089f07c6","620a732fcedb69707e320889","4","","","","","1","6"
"null","","","null","","","","html-keyboard-response","167","299063","0.0-167.0","5fa012c9da74d501089f07c6","620a732fcedb69707e320889","","","","","<p style=""color:darkgreen;font-size:24px;"">Correct :)</p>","",""
"2518","key","v","v","6.9455690607735665","500","250","psychophysics","168","301582","0.0-168.0","5fa012c9da74d501089f07c6","620a732fcedb69707e320889","4","","","","","1","1"
"null","","","null","","","","html-keyboard-response","169","302083","0.0-169.0","5fa012c9da74d501089f07c6","620a732fcedb69707e320889","","","","","<p style=""color:darkgreen;font-size:24px;"">Correct :)</p>","",""
"2576","key","n","n","6.964124324324232","500","250","psychophysics","170","304661","0.0-170.0","5fa012c9da74d501089f07c6","620a732fcedb69707e320889","4","","","","","1","6"
"null","","","null","","","","html-keyboard-response","171","305162","0.0-171.0","5fa012c9da74d501089f07c6","620a732fcedb69707e320889","","","","","<p style=""color:darkgreen;font-size:24px;"">Correct :)</p>","",""
"2584","key","v","v","6.946059139784812","500","250","psychophysics","172","307748","0.0-172.0","5fa012c9da74d501089f07c6","620a732fcedb69707e320889","4","","","","","1","4"
"null","","","null","","","","html-keyboard-response","173","308248","0.0-173.0","5fa012c9da74d501089f07c6","620a732fcedb69707e320889","","","","","<p style=""color:darkgreen;font-size:24px;"">Correct :)</p>","",""
"2494","key","v","v","6.946729805013898","500","250","psychophysics","174","310744","0.0-174.0","5fa012c9da74d501089f07c6","620a732fcedb69707e320889","4","","","","","1","2"
"null","","","null","","","","html-keyboard-response","175","311246","0.0-175.0","5fa012c9da74d501089f07c6","620a732fcedb69707e320889","","","","","<p style=""color:darkgreen;font-size:24px;"">Correct :)</p>","",""
"2393","key","n","n","6.9454127906977","500","250","psychophysics","176","313640","0.0-176.0","5fa012c9da74d501089f07c6","620a732fcedb69707e320889","4","","","","","1","6"
"null","","","null","","","","html-keyboard-response","177","314142","0.0-177.0","5fa012c9da74d501089f07c6","620a732fcedb69707e320889","","","","","<p style=""color:darkgreen;font-size:24px;"">Correct :)</p>","",""
"2415","key","v","v","6.945397694524369","500","250","psychophysics","178","316559","0.0-178.0","5fa012c9da74d501089f07c6","620a732fcedb69707e320889","4","","","","","1","3"
"null","","","null","","","","html-keyboard-response","179","317060","0.0-179.0","5fa012c9da74d501089f07c6","620a732fcedb69707e320889","","","","","<p style=""color:darkgreen;font-size:24px;"">Correct :)</p>","",""
"2489","key","n","n","6.945620111731862","500","250","psychophysics","180","319550","0.0-180.0","5fa012c9da74d501089f07c6","620a732fcedb69707e320889","4","","","","","1","8"
"null","","","null","","","","html-keyboard-response","181","320050","0.0-181.0","5fa012c9da74d501089f07c6","620a732fcedb69707e320889","","","","","<p style=""color:darkgreen;font-size:24px;"">Correct :)</p>","",""
"2474","key","v","v","6.945535014005716","500","250","psychophysics","182","322526","0.0-182.0","5fa012c9da74d501089f07c6","620a732fcedb69707e320889","4","","","","","1","4"
"null","","","null","","","","html-keyboard-response","183","323027","0.0-183.0","5fa012c9da74d501089f07c6","620a732fcedb69707e320889","","","","","<p style=""color:darkgreen;font-size:24px;"">Correct :)</p>","",""
"2466","key","v","v","6.945557746478901","500","250","psychophysics","184","325495","0.0-184.0","5fa012c9da74d501089f07c6","620a732fcedb69707e320889","4","","","","","1","4"
"null","","","null","","","","html-keyboard-response","185","325995","0.0-185.0","5fa012c9da74d501089f07c6","620a732fcedb69707e320889","","","","","<p style=""color:darkgreen;font-size:24px;"">Correct :)</p>","",""
"2419","key","n","n","6.945570200572943","500","250","psychophysics","186","328416","0.0-186.0","5fa012c9da74d501089f07c6","620a732fcedb69707e320889","4","","","","","1","9"
"null","","","null","","","","html-keyboard-response","187","328918","0.0-187.0","5fa012c9da74d501089f07c6","620a732fcedb69707e320889","","","","","<p style=""color:darkgreen;font-size:24px;"">Correct :)</p>","",""
"2587","key","v","v","6.944415549597835","500","250","psychophysics","188","331507","0.0-188.0","5fa012c9da74d501089f07c6","620a732fcedb69707e320889","4","","","","","1","3"
"null","","","null","","","","html-keyboard-response","189","332012","0.0-189.0","5fa012c9da74d501089f07c6","620a732fcedb69707e320889","","","","","<p style=""color:darkgreen;font-size:24px;"">Correct :)</p>","",""
"2554","key","v","v","6.942950684931576","500","250","psychophysics","190","334568","0.0-190.0","5fa012c9da74d501089f07c6","620a732fcedb69707e320889","4","","","","","1","2"
"null","","","null","","","","html-keyboard-response","191","335069","0.0-191.0","5fa012c9da74d501089f07c6","620a732fcedb69707e320889","","","","","<p style=""color:darkgreen;font-size:24px;"">Correct :)</p>","",""
"2383","key","v","v","6.945411078717238","500","250","psychophysics","192","337454","0.0-192.0","5fa012c9da74d501089f07c6","620a732fcedb69707e320889","4","","","","","1","2"
"null","","","null","","","","html-keyboard-response","193","337963","0.0-193.0","5fa012c9da74d501089f07c6","620a732fcedb69707e320889","","","","","<p style=""color:darkgreen;font-size:24px;"">Correct :)</p>","",""
"12039","","","v","","","","html-keyboard-response","194","350003","0.0-194.0","5fa012c9da74d501089f07c6","620a732fcedb69707e320889","","","","","<p> Ok, now we are going present the same digits as before.  Your job is to say whether the digit is even or odd  If the digit is odd, press to v key; if it is even, press the n key. We are going to do 50 of these.  </p>  <br><br>  Ready? (press v or n)","",""
"2564","key","v","v","6.945886178861806","500","250","psychophysics","195","352570","0.0-195.0","5fa012c9da74d501089f07c6","620a732fcedb69707e320889","5","","","","","0","1"
"null","","","null","","","","html-keyboard-response","196","353071","0.0-196.0","5fa012c9da74d501089f07c6","620a732fcedb69707e320889","","","","","<p style=""color:darkgreen;font-size:24px;"">Correct :)</p>","",""
"2535","key","n","n","6.945586301369771","500","250","psychophysics","197","355608","0.0-197.0","5fa012c9da74d501089f07c6","620a732fcedb69707e320889","5","","","","","0","4"
"null","","","null","","","","html-keyboard-response","198","356109","0.0-198.0","5fa012c9da74d501089f07c6","620a732fcedb69707e320889","","","","","<p style=""color:darkgreen;font-size:24px;"">Correct :)</p>","",""
"2837","key","n","n","6.9488019559902146","500","250","psychophysics","199","358948","0.0-199.0","5fa012c9da74d501089f07c6","620a732fcedb69707e320889","5","","","","","0","4"
"null","","","null","","","","html-keyboard-response","200","359449","0.0-200.0","5fa012c9da74d501089f07c6","620a732fcedb69707e320889","","","","","<p style=""color:darkgreen;font-size:24px;"">Correct :)</p>","",""
"2835","key","n","n","6.946041666666632","500","250","psychophysics","201","362287","0.0-201.0","5fa012c9da74d501089f07c6","620a732fcedb69707e320889","5","","","","","0","4"
"null","","","null","","","","html-keyboard-response","202","362788","0.0-202.0","5fa012c9da74d501089f07c6","620a732fcedb69707e320889","","","","","<p style=""color:darkgreen;font-size:24px;"">Correct :)</p>","",""
"2528","key","n","n","6.945560439560462","500","250","psychophysics","203","365317","0.0-203.0","5fa012c9da74d501089f07c6","620a732fcedb69707e320889","5","","","","","0","7"
"null","","","null","","","","html-keyboard-response","204","365818","0.0-204.0","5fa012c9da74d501089f07c6","620a732fcedb69707e320889","","","","","<p style=""color:red;font-size:24px;"">Error :(</p>","",""
"2470","key","v","v","6.945587078651565","500","250","psychophysics","205","368290","0.0-205.0","5fa012c9da74d501089f07c6","620a732fcedb69707e320889","5","","","","","0","3"
"null","","","null","","","","html-keyboard-response","206","368791","0.0-206.0","5fa012c9da74d501089f07c6","620a732fcedb69707e320889","","","","","<p style=""color:darkgreen;font-size:24px;"">Correct :)</p>","",""
"2626","key","n","n","6.945608465608472","500","250","psychophysics","207","371419","0.0-207.0","5fa012c9da74d501089f07c6","620a732fcedb69707e320889","5","","","","","0","8"
"null","","","null","","","","html-keyboard-response","208","371921","0.0-208.0","5fa012c9da74d501089f07c6","620a732fcedb69707e320889","","","","","<p style=""color:darkgreen;font-size:24px;"">Correct :)</p>","",""
"2398","key","v","v","6.9451043478260495","500","250","psychophysics","209","374320","0.0-209.0","5fa012c9da74d501089f07c6","620a732fcedb69707e320889","5","","","","","0","3"
"null","","","null","","","","html-keyboard-response","210","374822","0.0-210.0","5fa012c9da74d501089f07c6","620a732fcedb69707e320889","","","","","<p style=""color:darkgreen;font-size:24px;"">Correct :)</p>","",""
"2607","key","n","n","6.945569148936131","500","250","psychophysics","211","377430","0.0-211.0","5fa012c9da74d501089f07c6","620a732fcedb69707e320889","5","","","","","0","2"
"null","","","null","","","","html-keyboard-response","212","377931","0.0-212.0","5fa012c9da74d501089f07c6","620a732fcedb69707e320889","","","","","<p style=""color:darkgreen;font-size:24px;"">Correct :)</p>","",""
"2487","key","n","n","6.94562849162004","500","250","psychophysics","213","380420","0.0-213.0","5fa012c9da74d501089f07c6","620a732fcedb69707e320889","5","","","","","0","6"
"null","","","null","","","","html-keyboard-response","214","380921","0.0-214.0","5fa012c9da74d501089f07c6","620a732fcedb69707e320889","","","","","<p style=""color:darkgreen;font-size:24px;"">Correct :)</p>","",""
"2717","key","v","v","6.9810333333333405","500","250","psychophysics","215","383639","0.0-215.0","5fa012c9da74d501089f07c6","620a732fcedb69707e320889","5","","","","","0","7"
"null","","","null","","","","html-keyboard-response","216","384140","0.0-216.0","5fa012c9da74d501089f07c6","620a732fcedb69707e320889","","","","","<p style=""color:darkgreen;font-size:24px;"">Correct :)</p>","",""
"2505","key","n","n","6.94560664819945","500","250","psychophysics","217","386646","0.0-217.0","5fa012c9da74d501089f07c6","620a732fcedb69707e320889","5","","","","","0","9"
"null","","","null","","","","html-keyboard-response","218","387147","0.0-218.0","5fa012c9da74d501089f07c6","620a732fcedb69707e320889","","","","","<p style=""color:red;font-size:24px;"">Error :(</p>","",""
"2561","key","v","v","6.945552845528415","500","250","psychophysics","219","389710","0.0-219.0","5fa012c9da74d501089f07c6","620a732fcedb69707e320889","5","","","","","0","3"
"null","","","null","","","","html-keyboard-response","220","390225","0.0-220.0","5fa012c9da74d501089f07c6","620a732fcedb69707e320889","","","","","<p style=""color:darkgreen;font-size:24px;"">Correct :)</p>","",""
"2781","key","v","v","6.945531172069815","500","250","psychophysics","221","393007","0.0-221.0","5fa012c9da74d501089f07c6","620a732fcedb69707e320889","5","","","","","0","7"
"null","","","null","","","","html-keyboard-response","222","393509","0.0-222.0","5fa012c9da74d501089f07c6","620a732fcedb69707e320889","","","","","<p style=""color:darkgreen;font-size:24px;"">Correct :)</p>","",""
"2591","key","n","n","6.945576407506733","500","250","psychophysics","223","396102","0.0-223.0","5fa012c9da74d501089f07c6","620a732fcedb69707e320889","5","","","","","0","8"
"null","","","null","","","","html-keyboard-response","224","396603","0.0-224.0","5fa012c9da74d501089f07c6","620a732fcedb69707e320889","","","","","<p style=""color:darkgreen;font-size:24px;"">Correct :)</p>","",""
"2750","key","n","n","6.980729113923993","500","250","psychophysics","225","399355","0.0-225.0","5fa012c9da74d501089f07c6","620a732fcedb69707e320889","5","","","","","0","6"
"null","","","null","","","","html-keyboard-response","226","399857","0.0-226.0","5fa012c9da74d501089f07c6","620a732fcedb69707e320889","","","","","<p style=""color:darkgreen;font-size:24px;"">Correct :)</p>","",""
"2803","key","n","n","6.9455148514851786","500","250","psychophysics","227","402661","0.0-227.0","5fa012c9da74d501089f07c6","620a732fcedb69707e320889","5","","","","","0","2"
"null","","","null","","","","html-keyboard-response","228","403163","0.0-228.0","5fa012c9da74d501089f07c6","620a732fcedb69707e320889","","","","","<p style=""color:darkgreen;font-size:24px;"">Correct :)</p>","",""
"2594","key","v","v","6.945109625668501","500","250","psychophysics","229","405759","0.0-229.0","5fa012c9da74d501089f07c6","620a732fcedb69707e320889","5","","","","","0","7"
"null","","","null","","","","html-keyboard-response","230","406260","0.0-230.0","5fa012c9da74d501089f07c6","620a732fcedb69707e320889","","","","","<p style=""color:darkgreen;font-size:24px;"">Correct :)</p>","",""
"3048","key","v","v","6.945405466970378","500","250","psychophysics","231","409310","0.0-231.0","5fa012c9da74d501089f07c6","620a732fcedb69707e320889","5","","","","","0","3"
"null","","","null","","","","html-keyboard-response","232","409819","0.0-232.0","5fa012c9da74d501089f07c6","620a732fcedb69707e320889","","","","","<p style=""color:darkgreen;font-size:24px;"">Correct :)</p>","",""
"2677","key","v","v","6.94557512953375","500","250","psychophysics","233","412497","0.0-233.0","5fa012c9da74d501089f07c6","620a732fcedb69707e320889","5","","","","","0","7"
"null","","","null","","","","html-keyboard-response","234","413007","0.0-234.0","5fa012c9da74d501089f07c6","620a732fcedb69707e320889","","","","","<p style=""color:darkgreen;font-size:24px;"">Correct :)</p>","",""
"2626","key","n","n","6.945598944591138","500","250","psychophysics","235","415635","0.0-235.0","5fa012c9da74d501089f07c6","620a732fcedb69707e320889","5","","","","","0","4"
"null","","","null","","","","html-keyboard-response","236","416136","0.0-236.0","5fa012c9da74d501089f07c6","620a732fcedb69707e320889","","","","","<p style=""color:darkgreen;font-size:24px;"">Correct :)</p>","",""
"2656","key","n","n","6.945764397905776","500","250","psychophysics","237","418794","0.0-237.0","5fa012c9da74d501089f07c6","620a732fcedb69707e320889","5","","","","","0","6"
"null","","","null","","","","html-keyboard-response","238","419295","0.0-238.0","5fa012c9da74d501089f07c6","620a732fcedb69707e320889","","","","","<p style=""color:darkgreen;font-size:24px;"">Correct :)</p>","",""
"2524","key","n","n","6.945564738291985","500","250","psychophysics","239","421821","0.0-239.0","5fa012c9da74d501089f07c6","620a732fcedb69707e320889","5","","","","","0","8"
"null","","","null","","","","html-keyboard-response","240","422321","0.0-240.0","5fa012c9da74d501089f07c6","620a732fcedb69707e320889","","","","","<p style=""color:darkgreen;font-size:24px;"">Correct :)</p>","",""
"3118","key","n","n","6.9455456570156935","500","250","psychophysics","241","425441","0.0-241.0","5fa012c9da74d501089f07c6","620a732fcedb69707e320889","5","","","","","0","6"
"null","","","null","","","","html-keyboard-response","242","425942","0.0-242.0","5fa012c9da74d501089f07c6","620a732fcedb69707e320889","","","","","<p style=""color:darkgreen;font-size:24px;"">Correct :)</p>","",""
"2756","key","n","n","6.94553652392939","500","250","psychophysics","243","428700","0.0-243.0","5fa012c9da74d501089f07c6","620a732fcedb69707e320889","5","","","","","0","6"
"null","","","null","","","","html-keyboard-response","244","429202","0.0-244.0","5fa012c9da74d501089f07c6","620a732fcedb69707e320889","","","","","<p style=""color:darkgreen;font-size:24px;"">Correct :)</p>","",""
"2640","key","v","v","6.9455394736841924","500","250","psychophysics","245","431844","0.0-245.0","5fa012c9da74d501089f07c6","620a732fcedb69707e320889","5","","","","","0","9"
"null","","","null","","","","html-keyboard-response","246","432345","0.0-246.0","5fa012c9da74d501089f07c6","620a732fcedb69707e320889","","","","","<p style=""color:darkgreen;font-size:24px;"">Correct :)</p>","",""
"2571","key","v","v","6.9456108108107815","500","250","psychophysics","247","434918","0.0-247.0","5fa012c9da74d501089f07c6","620a732fcedb69707e320889","5","","","","","0","3"
"null","","","null","","","","html-keyboard-response","248","435419","0.0-248.0","5fa012c9da74d501089f07c6","620a732fcedb69707e320889","","","","","<p style=""color:darkgreen;font-size:24px;"">Correct :)</p>","",""
"2995","key","v","v","6.945546296296352","500","250","psychophysics","249","438416","0.0-249.0","5fa012c9da74d501089f07c6","620a732fcedb69707e320889","5","","","","","0","9"
"null","","","null","","","","html-keyboard-response","250","438916","0.0-250.0","5fa012c9da74d501089f07c6","620a732fcedb69707e320889","","","","","<p style=""color:darkgreen;font-size:24px;"">Correct :)</p>","",""
"2539","key","v","v","6.945553424657476","500","250","psychophysics","251","441457","0.0-251.0","5fa012c9da74d501089f07c6","620a732fcedb69707e320889","5","","","","","0","7"
"null","","","null","","","","html-keyboard-response","252","441958","0.0-252.0","5fa012c9da74d501089f07c6","620a732fcedb69707e320889","","","","","<p style=""color:darkgreen;font-size:24px;"">Correct :)</p>","",""
"2895","key","n","n","6.945513189448394","500","250","psychophysics","253","444855","0.0-253.0","5fa012c9da74d501089f07c6","620a732fcedb69707e320889","5","","","","","0","2"
"null","","","null","","","","html-keyboard-response","254","445357","0.0-254.0","5fa012c9da74d501089f07c6","620a732fcedb69707e320889","","","","","<p style=""color:darkgreen;font-size:24px;"">Correct :)</p>","",""
"2590","key","v","v","6.945812332439679","500","250","psychophysics","255","447950","0.0-255.0","5fa012c9da74d501089f07c6","620a732fcedb69707e320889","5","","","","","0","3"
"null","","","null","","","","html-keyboard-response","256","448451","0.0-256.0","5fa012c9da74d501089f07c6","620a732fcedb69707e320889","","","","","<p style=""color:darkgreen;font-size:24px;"">Correct :)</p>","",""
"2621","key","n","n","6.945533156498713","500","250","psychophysics","257","451075","0.0-257.0","5fa012c9da74d501089f07c6","620a732fcedb69707e320889","5","","","","","0","8"
"null","","","null","","","","html-keyboard-response","258","451577","0.0-258.0","5fa012c9da74d501089f07c6","620a732fcedb69707e320889","","","","","<p style=""color:darkgreen;font-size:24px;"">Correct :)</p>","",""
"2799","key","v","v","6.945543424317627","500","250","psychophysics","259","454377","0.0-259.0","5fa012c9da74d501089f07c6","620a732fcedb69707e320889","5","","","","","0","3"
"null","","","null","","","","html-keyboard-response","260","454878","0.0-260.0","5fa012c9da74d501089f07c6","620a732fcedb69707e320889","","","","","<p style=""color:darkgreen;font-size:24px;"">Correct :)</p>","",""
"2446","key","v","v","6.945605113636372","500","250","psychophysics","261","457326","0.0-261.0","5fa012c9da74d501089f07c6","620a732fcedb69707e320889","5","","","","","0","3"
"null","","","null","","","","html-keyboard-response","262","457827","0.0-262.0","5fa012c9da74d501089f07c6","620a732fcedb69707e320889","","","","","<p style=""color:darkgreen;font-size:24px;"">Correct :)</p>","",""
"2601","key","v","v","6.958040106951795","500","250","psychophysics","263","460430","0.0-263.0","5fa012c9da74d501089f07c6","620a732fcedb69707e320889","5","","","","","0","1"
"null","","","null","","","","html-keyboard-response","264","460932","0.0-264.0","5fa012c9da74d501089f07c6","620a732fcedb69707e320889","","","","","<p style=""color:darkgreen;font-size:24px;"">Correct :)</p>","",""
"2516","key","n","n","6.945969613259646","500","250","psychophysics","265","463449","0.0-265.0","5fa012c9da74d501089f07c6","620a732fcedb69707e320889","5","","","","","0","2"
"null","","","null","","","","html-keyboard-response","266","463950","0.0-266.0","5fa012c9da74d501089f07c6","620a732fcedb69707e320889","","","","","<p style=""color:darkgreen;font-size:24px;"">Correct :)</p>","",""
"2577","key","v","v","6.945323450134683","500","250","psychophysics","267","466528","0.0-267.0","5fa012c9da74d501089f07c6","620a732fcedb69707e320889","5","","","","","0","3"
"null","","","null","","","","html-keyboard-response","268","467029","0.0-268.0","5fa012c9da74d501089f07c6","620a732fcedb69707e320889","","","","","<p style=""color:darkgreen;font-size:24px;"">Correct :)</p>","",""
"2555","key","v","v","6.964512261580447","500","250","psychophysics","269","469585","0.0-269.0","5fa012c9da74d501089f07c6","620a732fcedb69707e320889","5","","","","","0","3"
"null","","","null","","","","html-keyboard-response","270","470087","0.0-270.0","5fa012c9da74d501089f07c6","620a732fcedb69707e320889","","","","","<p style=""color:darkgreen;font-size:24px;"">Correct :)</p>","",""
"2713","key","n","n","6.945561538461464","500","250","psychophysics","271","472801","0.0-271.0","5fa012c9da74d501089f07c6","620a732fcedb69707e320889","5","","","","","0","4"
"null","","","null","","","","html-keyboard-response","272","473302","0.0-272.0","5fa012c9da74d501089f07c6","620a732fcedb69707e320889","","","","","<p style=""color:darkgreen;font-size:24px;"">Correct :)</p>","",""
"2703","key","n","n","6.945570694087379","500","250","psychophysics","273","476006","0.0-273.0","5fa012c9da74d501089f07c6","620a732fcedb69707e320889","5","","","","","0","2"
"null","","","null","","","","html-keyboard-response","274","476507","0.0-274.0","5fa012c9da74d501089f07c6","620a732fcedb69707e320889","","","","","<p style=""color:darkgreen;font-size:24px;"">Correct :)</p>","",""
"2507","key","v","v","6.945573407202254","500","250","psychophysics","275","479016","0.0-275.0","5fa012c9da74d501089f07c6","620a732fcedb69707e320889","5","","","","","0","3"
"null","","","null","","","","html-keyboard-response","276","479517","0.0-276.0","5fa012c9da74d501089f07c6","620a732fcedb69707e320889","","","","","<p style=""color:darkgreen;font-size:24px;"">Correct :)</p>","",""
"13296","key","v","v","56.96605579399123","500","250","psychophysics","277","492815","0.0-277.0","5fa012c9da74d501089f07c6","620a732fcedb69707e320889","5","","","","","0","3"
"null","","","null","","","","html-keyboard-response","278","493316","0.0-278.0","5fa012c9da74d501089f07c6","620a732fcedb69707e320889","","","","","<p style=""color:darkgreen;font-size:24px;"">Correct :)</p>","",""
"2663","key","n","n","6.945578124999884","500","250","psychophysics","279","495981","0.0-279.0","5fa012c9da74d501089f07c6","620a732fcedb69707e320889","5","","","","","0","8"
"null","","","null","","","","html-keyboard-response","280","496482","0.0-280.0","5fa012c9da74d501089f07c6","620a732fcedb69707e320889","","","","","<p style=""color:darkgreen;font-size:24px;"">Correct :)</p>","",""
"2791","key","n","n","6.945552238806027","500","250","psychophysics","281","499275","0.0-281.0","5fa012c9da74d501089f07c6","620a732fcedb69707e320889","5","","","","","0","6"
"null","","","null","","","","html-keyboard-response","282","499776","0.0-282.0","5fa012c9da74d501089f07c6","620a732fcedb69707e320889","","","","","<p style=""color:darkgreen;font-size:24px;"">Correct :)</p>","",""
"2934","key","v","v","6.945581560283756","500","250","psychophysics","283","502711","0.0-283.0","5fa012c9da74d501089f07c6","620a732fcedb69707e320889","5","","","","","0","9"
"null","","","null","","","","html-keyboard-response","284","503212","0.0-284.0","5fa012c9da74d501089f07c6","620a732fcedb69707e320889","","","","","<p style=""color:darkgreen;font-size:24px;"">Correct :)</p>","",""
"2597","key","v","v","6.945590909090943","500","250","psychophysics","285","505811","0.0-285.0","5fa012c9da74d501089f07c6","620a732fcedb69707e320889","5","","","","","0","7"
"null","","","null","","","","html-keyboard-response","286","506312","0.0-286.0","5fa012c9da74d501089f07c6","620a732fcedb69707e320889","","","","","<p style=""color:darkgreen;font-size:24px;"">Correct :)</p>","",""
"2482","key","v","v","6.965070224719108","500","250","psychophysics","287","508796","0.0-287.0","5fa012c9da74d501089f07c6","620a732fcedb69707e320889","5","","","","","0","3"
"null","","","null","","","","html-keyboard-response","288","509297","0.0-288.0","5fa012c9da74d501089f07c6","620a732fcedb69707e320889","","","","","<p style=""color:darkgreen;font-size:24px;"">Correct :)</p>","",""
"2549","key","n","n","6.947299727520395","500","250","psychophysics","289","511848","0.0-289.0","5fa012c9da74d501089f07c6","620a732fcedb69707e320889","5","","","","","0","6"
"null","","","null","","","","html-keyboard-response","290","512349","0.0-290.0","5fa012c9da74d501089f07c6","620a732fcedb69707e320889","","","","","<p style=""color:darkgreen;font-size:24px;"">Correct :)</p>","",""
"2753","key","n","n","6.945570707070698","500","250","psychophysics","291","515104","0.0-291.0","5fa012c9da74d501089f07c6","620a732fcedb69707e320889","5","","","","","0","2"
"null","","","null","","","","html-keyboard-response","292","515606","0.0-292.0","5fa012c9da74d501089f07c6","620a732fcedb69707e320889","","","","","<p style=""color:darkgreen;font-size:24px;"">Correct :)</p>","",""
"2676","key","n","n","6.9455480519481085","500","250","psychophysics","293","518283","0.0-293.0","5fa012c9da74d501089f07c6","620a732fcedb69707e320889","5","","","","","0","2"
"null","","","null","","","","html-keyboard-response","294","518784","0.0-294.0","5fa012c9da74d501089f07c6","620a732fcedb69707e320889","","","","","<p style=""color:darkgreen;font-size:24px;"">Correct :)</p>","",""
"10352","","","v","","","","html-keyboard-response","295","529136","0.0-295.0","5fa012c9da74d501089f07c6","620a732fcedb69707e320889","","","","","<p> Here, the tasks are going to switch.  For some trials, your job is to decide if the digit is less than or greater than 5.  For others, it is to decide if the digit is even or odd.  You will be told which type of trial the current one is.  But, pay attention, the type of trial changes too.  We are going to do 50 of these.  </p>  <br><br>  Ready? (press v or n)","",""
"3377","key","n","n","6.946037037036987","500","250","psychophysics","296","532514","0.0-296.0","5fa012c9da74d501089f07c6","620a732fcedb69707e320889","6","","","","","1","7"
"null","","","null","","","","html-keyboard-response","297","533014","0.0-297.0","5fa012c9da74d501089f07c6","620a732fcedb69707e320889","","","","","<p style=""color:darkgreen;font-size:24px;"">Correct :)</p>","",""
"3056","key","v","v","6.9455568181816485","500","250","psychophysics","298","536072","0.0-298.0","5fa012c9da74d501089f07c6","620a732fcedb69707e320889","6","","","","","1","1"
"null","","","null","","","","html-keyboard-response","299","536574","0.0-299.0","5fa012c9da74d501089f07c6","620a732fcedb69707e320889","","","","","<p style=""color:darkgreen;font-size:24px;"">Correct :)</p>","",""
"3392","key","n","n","6.945512295082034","500","250","psychophysics","300","539967","0.0-300.0","5fa012c9da74d501089f07c6","620a732fcedb69707e320889","6","","","","","1","7"
"null","","","null","","","","html-keyboard-response","301","540468","0.0-301.0","5fa012c9da74d501089f07c6","620a732fcedb69707e320889","","","","","<p style=""color:darkgreen;font-size:24px;"">Correct :)</p>","",""
"2590","key","n","n","6.945605898123352","500","250","psychophysics","302","543060","0.0-302.0","5fa012c9da74d501089f07c6","620a732fcedb69707e320889","6","","","","","0","6"
"null","","","null","","","","html-keyboard-response","303","543562","0.0-303.0","5fa012c9da74d501089f07c6","620a732fcedb69707e320889","","","","","<p style=""color:darkgreen;font-size:24px;"">Correct :)</p>","",""
"2636","key","v","v","6.945673684210602","500","250","psychophysics","304","546200","0.0-304.0","5fa012c9da74d501089f07c6","620a732fcedb69707e320889","6","","","","","1","9"
"null","","","null","","","","html-keyboard-response","305","546701","0.0-305.0","5fa012c9da74d501089f07c6","620a732fcedb69707e320889","","","","","<p style=""color:red;font-size:24px;"">Error :(</p>","",""
"2702","key","n","n","6.945604113110756","500","250","psychophysics","306","549405","0.0-306.0","5fa012c9da74d501089f07c6","620a732fcedb69707e320889","6","","","","","1","6"
"null","","","null","","","","html-keyboard-response","307","549906","0.0-307.0","5fa012c9da74d501089f07c6","620a732fcedb69707e320889","","","","","<p style=""color:darkgreen;font-size:24px;"">Correct :)</p>","",""
"2638","key","n","n","6.9455552631578605","500","250","psychophysics","308","552546","0.0-308.0","5fa012c9da74d501089f07c6","620a732fcedb69707e320889","6","","","","","0","6"
"null","","","null","","","","html-keyboard-response","309","553046","0.0-309.0","5fa012c9da74d501089f07c6","620a732fcedb69707e320889","","","","","<p style=""color:darkgreen;font-size:24px;"">Correct :)</p>","",""
"2752","key","n","n","6.963108585858447","500","250","psychophysics","310","555801","0.0-310.0","5fa012c9da74d501089f07c6","620a732fcedb69707e320889","6","","","","","1","2"
"null","","","null","","","","html-keyboard-response","311","556302","0.0-311.0","5fa012c9da74d501089f07c6","620a732fcedb69707e320889","","","","","<p style=""color:red;font-size:24px;"">Error :(</p>","",""
"2589","key","v","v","6.944329758713099","500","250","psychophysics","312","558892","0.0-312.0","5fa012c9da74d501089f07c6","620a732fcedb69707e320889","6","","","","","0","9"
"null","","","null","","","","html-keyboard-response","313","559393","0.0-313.0","5fa012c9da74d501089f07c6","620a732fcedb69707e320889","","","","","<p style=""color:darkgreen;font-size:24px;"">Correct :)</p>","",""
"3287","key","v","v","6.94551054852325","500","250","psychophysics","314","562681","0.0-314.0","5fa012c9da74d501089f07c6","620a732fcedb69707e320889","6","","","","","0","7"
"null","","","null","","","","html-keyboard-response","315","563183","0.0-315.0","5fa012c9da74d501089f07c6","620a732fcedb69707e320889","","","","","<p style=""color:darkgreen;font-size:24px;"">Correct :)</p>","",""
"2402","key","n","n","6.9456965317919375","500","250","psychophysics","316","565587","0.0-316.0","5fa012c9da74d501089f07c6","620a732fcedb69707e320889","6","","","","","1","6"
"null","","","null","","","","html-keyboard-response","317","566088","0.0-317.0","5fa012c9da74d501089f07c6","620a732fcedb69707e320889","","","","","<p style=""color:darkgreen;font-size:24px;"">Correct :)</p>","",""
"2780","key","v","v","6.945374064838126","500","250","psychophysics","318","568870","0.0-318.0","5fa012c9da74d501089f07c6","620a732fcedb69707e320889","6","","","","","0","7"
"null","","","null","","","","html-keyboard-response","319","569372","0.0-319.0","5fa012c9da74d501089f07c6","620a732fcedb69707e320889","","","","","<p style=""color:darkgreen;font-size:24px;"">Correct :)</p>","",""
"2530","key","n","n","6.944862637362778","500","250","psychophysics","320","571903","0.0-320.0","5fa012c9da74d501089f07c6","620a732fcedb69707e320889","6","","","","","0","8"
"null","","","null","","","","html-keyboard-response","321","572405","0.0-321.0","5fa012c9da74d501089f07c6","620a732fcedb69707e320889","","","","","<p style=""color:darkgreen;font-size:24px;"">Correct :)</p>","",""
"2593","key","n","n","6.945565683646103","500","250","psychophysics","322","575000","0.0-322.0","5fa012c9da74d501089f07c6","620a732fcedb69707e320889","6","","","","","1","6"
"null","","","null","","","","html-keyboard-response","323","575502","0.0-323.0","5fa012c9da74d501089f07c6","620a732fcedb69707e320889","","","","","<p style=""color:darkgreen;font-size:24px;"">Correct :)</p>","",""
"2624","key","v","v","6.964002659574382","500","250","psychophysics","324","578127","0.0-324.0","5fa012c9da74d501089f07c6","620a732fcedb69707e320889","6","","","","","0","1"
"null","","","null","","","","html-keyboard-response","325","578628","0.0-325.0","5fa012c9da74d501089f07c6","620a732fcedb69707e320889","","","","","<p style=""color:darkgreen;font-size:24px;"">Correct :)</p>","",""
"2752","key","n","n","6.94539393939406","500","250","psychophysics","326","581382","0.0-326.0","5fa012c9da74d501089f07c6","620a732fcedb69707e320889","6","","","","","0","6"
"null","","","null","","","","html-keyboard-response","327","581883","0.0-327.0","5fa012c9da74d501089f07c6","620a732fcedb69707e320889","","","","","<p style=""color:darkgreen;font-size:24px;"">Correct :)</p>","",""
"2569","key","v","v","6.945591891891751","500","250","psychophysics","328","584454","0.0-328.0","5fa012c9da74d501089f07c6","620a732fcedb69707e320889","6","","","","","0","3"
"null","","","null","","","","html-keyboard-response","329","584955","0.0-329.0","5fa012c9da74d501089f07c6","620a732fcedb69707e320889","","","","","<p style=""color:darkgreen;font-size:24px;"">Correct :)</p>","",""
"3442","key","v","v","6.945525252525318","500","250","psychophysics","330","588399","0.0-330.0","5fa012c9da74d501089f07c6","620a732fcedb69707e320889","6","","","","","1","3"
"null","","","null","","","","html-keyboard-response","331","588901","0.0-331.0","5fa012c9da74d501089f07c6","620a732fcedb69707e320889","","","","","<p style=""color:darkgreen;font-size:24px;"">Correct :)</p>","",""
"2945","key","n","n","6.945540094339587","500","250","psychophysics","332","591848","0.0-332.0","5fa012c9da74d501089f07c6","620a732fcedb69707e320889","6","","","","","0","8"
"null","","","null","","","","html-keyboard-response","333","592357","0.0-333.0","5fa012c9da74d501089f07c6","620a732fcedb69707e320889","","","","","<p style=""color:darkgreen;font-size:24px;"">Correct :)</p>","",""
"2973","key","n","n","6.978088992974171","500","250","psychophysics","334","595332","0.0-334.0","5fa012c9da74d501089f07c6","620a732fcedb69707e320889","6","","","","","1","9"
"null","","","null","","","","html-keyboard-response","335","595838","0.0-335.0","5fa012c9da74d501089f07c6","620a732fcedb69707e320889","","","","","<p style=""color:darkgreen;font-size:24px;"">Correct :)</p>","",""
"3639","key","n","n","6.94552290076341","500","250","psychophysics","336","599479","0.0-336.0","5fa012c9da74d501089f07c6","620a732fcedb69707e320889","6","","","","","0","4"
"null","","","null","","","","html-keyboard-response","337","599980","0.0-337.0","5fa012c9da74d501089f07c6","620a732fcedb69707e320889","","","","","<p style=""color:darkgreen;font-size:24px;"">Correct :)</p>","",""
"3304","key","n","n","6.945510504201608","500","250","psychophysics","338","603285","0.0-338.0","5fa012c9da74d501089f07c6","620a732fcedb69707e320889","6","","","","","0","2"
"null","","","null","","","","html-keyboard-response","339","603786","0.0-339.0","5fa012c9da74d501089f07c6","620a732fcedb69707e320889","","","","","<p style=""color:darkgreen;font-size:24px;"">Correct :)</p>","",""
"3005","key","n","n","6.945561200923955","500","250","psychophysics","340","606793","0.0-340.0","5fa012c9da74d501089f07c6","620a732fcedb69707e320889","6","","","","","0","2"
"null","","","null","","","","html-keyboard-response","341","607295","0.0-341.0","5fa012c9da74d501089f07c6","620a732fcedb69707e320889","","","","","<p style=""color:darkgreen;font-size:24px;"">Correct :)</p>","",""
"2981","key","v","v","6.945550116549988","500","250","psychophysics","342","610277","0.0-342.0","5fa012c9da74d501089f07c6","620a732fcedb69707e320889","6","","","","","0","3"
"null","","","null","","","","html-keyboard-response","343","610779","0.0-343.0","5fa012c9da74d501089f07c6","620a732fcedb69707e320889","","","","","<p style=""color:darkgreen;font-size:24px;"">Correct :)</p>","",""
"2860","key","n","n","6.9455485436893","500","250","psychophysics","344","613641","0.0-344.0","5fa012c9da74d501089f07c6","620a732fcedb69707e320889","6","","","","","1","8"
"null","","","null","","","","html-keyboard-response","345","614142","0.0-345.0","5fa012c9da74d501089f07c6","620a732fcedb69707e320889","","","","","<p style=""color:darkgreen;font-size:24px;"">Correct :)</p>","",""
"3236","key","v","v","6.943515021459134","500","250","psychophysics","346","617379","0.0-346.0","5fa012c9da74d501089f07c6","620a732fcedb69707e320889","6","","","","","0","3"
"null","","","null","","","","html-keyboard-response","347","617880","0.0-347.0","5fa012c9da74d501089f07c6","620a732fcedb69707e320889","","","","","<p style=""color:darkgreen;font-size:24px;"">Correct :)</p>","",""
"3049","key","n","n","6.946022779043289","500","250","psychophysics","348","620930","0.0-348.0","5fa012c9da74d501089f07c6","620a732fcedb69707e320889","6","","","","","1","6"
"null","","","null","","","","html-keyboard-response","349","621432","0.0-349.0","5fa012c9da74d501089f07c6","620a732fcedb69707e320889","","","","","<p style=""color:darkgreen;font-size:24px;"">Correct :)</p>","",""
"2821","key","n","n","6.9449261083744185","500","250","psychophysics","350","624254","0.0-350.0","5fa012c9da74d501089f07c6","620a732fcedb69707e320889","6","","","","","1","8"
"null","","","null","","","","html-keyboard-response","351","624755","0.0-351.0","5fa012c9da74d501089f07c6","620a732fcedb69707e320889","","","","","<p style=""color:darkgreen;font-size:24px;"">Correct :)</p>","",""
"3133","key","v","v","6.945698447893591","500","250","psychophysics","352","627890","0.0-352.0","5fa012c9da74d501089f07c6","620a732fcedb69707e320889","6","","","","","0","9"
"null","","","null","","","","html-keyboard-response","353","628398","0.0-353.0","5fa012c9da74d501089f07c6","620a732fcedb69707e320889","","","","","<p style=""color:darkgreen;font-size:24px;"">Correct :)</p>","",""
"3240","key","v","v","6.9455343347638365","500","250","psychophysics","354","631639","0.0-354.0","5fa012c9da74d501089f07c6","620a732fcedb69707e320889","6","","","","","0","9"
"null","","","null","","","","html-keyboard-response","355","632141","0.0-355.0","5fa012c9da74d501089f07c6","620a732fcedb69707e320889","","","","","<p style=""color:darkgreen;font-size:24px;"">Correct :)</p>","",""
"3743","key","v","v","6.958389610389691","500","250","psychophysics","356","635886","0.0-356.0","5fa012c9da74d501089f07c6","620a732fcedb69707e320889","6","","","","","1","1"
"null","","","null","","","","html-keyboard-response","357","636397","0.0-357.0","5fa012c9da74d501089f07c6","620a732fcedb69707e320889","","","","","<p style=""color:darkgreen;font-size:24px;"">Correct :)</p>","",""
"2763","key","n","n","6.945592964823877","500","250","psychophysics","358","639162","0.0-358.0","5fa012c9da74d501089f07c6","620a732fcedb69707e320889","6","","","","","0","6"
"null","","","null","","","","html-keyboard-response","359","639663","0.0-359.0","5fa012c9da74d501089f07c6","620a732fcedb69707e320889","","","","","<p style=""color:darkgreen;font-size:24px;"">Correct :)</p>","",""
"3333","key","v","v","6.945514583333231","500","250","psychophysics","360","642998","0.0-360.0","5fa012c9da74d501089f07c6","620a732fcedb69707e320889","6","","","","","0","9"
"null","","","null","","","","html-keyboard-response","361","643499","0.0-361.0","5fa012c9da74d501089f07c6","620a732fcedb69707e320889","","","","","<p style=""color:darkgreen;font-size:24px;"">Correct :)</p>","",""
"3198","key","v","v","6.945455531453322","500","250","psychophysics","362","646699","0.0-362.0","5fa012c9da74d501089f07c6","620a732fcedb69707e320889","6","","","","","1","3"
"null","","","null","","","","html-keyboard-response","363","647200","0.0-363.0","5fa012c9da74d501089f07c6","620a732fcedb69707e320889","","","","","<p style=""color:darkgreen;font-size:24px;"">Correct :)</p>","",""
"2971","key","v","v","6.945485981308287","500","250","psychophysics","364","650173","0.0-364.0","5fa012c9da74d501089f07c6","620a732fcedb69707e320889","6","","","","","0","9"
"null","","","null","","","","html-keyboard-response","365","650674","0.0-365.0","5fa012c9da74d501089f07c6","620a732fcedb69707e320889","","","","","<p style=""color:darkgreen;font-size:24px;"">Correct :)</p>","",""
"3726","key","v","v","6.945540037243957","500","250","psychophysics","366","654402","0.0-366.0","5fa012c9da74d501089f07c6","620a732fcedb69707e320889","6","","","","","0","7"
"null","","","null","","","","html-keyboard-response","367","654903","0.0-367.0","5fa012c9da74d501089f07c6","620a732fcedb69707e320889","","","","","<p style=""color:darkgreen;font-size:24px;"">Correct :)</p>","",""
"3418","key","n","n","6.944894308943161","500","250","psychophysics","368","658323","0.0-368.0","5fa012c9da74d501089f07c6","620a732fcedb69707e320889","6","","","","","1","7"
"null","","","null","","","","html-keyboard-response","369","658824","0.0-369.0","5fa012c9da74d501089f07c6","620a732fcedb69707e320889","","","","","<p style=""color:darkgreen;font-size:24px;"">Correct :)</p>","",""
"3229","key","v","v","6.959370689655018","500","250","psychophysics","370","662054","0.0-370.0","5fa012c9da74d501089f07c6","620a732fcedb69707e320889","6","","","","","0","1"
"null","","","null","","","","html-keyboard-response","371","662555","0.0-371.0","5fa012c9da74d501089f07c6","620a732fcedb69707e320889","","","","","<p style=""color:darkgreen;font-size:24px;"">Correct :)</p>","",""
"2461","key","n","n","6.945612994350209","500","250","psychophysics","372","665018","0.0-372.0","5fa012c9da74d501089f07c6","620a732fcedb69707e320889","6","","","","","1","6"
"null","","","null","","","","html-keyboard-response","373","665519","0.0-373.0","5fa012c9da74d501089f07c6","620a732fcedb69707e320889","","","","","<p style=""color:darkgreen;font-size:24px;"">Correct :)</p>","",""
"2655","key","n","n","6.944514360313192","500","250","psychophysics","374","668175","0.0-374.0","5fa012c9da74d501089f07c6","620a732fcedb69707e320889","6","","","","","1","8"
"null","","","null","","","","html-keyboard-response","375","668676","0.0-375.0","5fa012c9da74d501089f07c6","620a732fcedb69707e320889","","","","","<p style=""color:darkgreen;font-size:24px;"">Correct :)</p>","",""
"2519","key","v","v","6.945586776859563","500","250","psychophysics","376","671197","0.0-376.0","5fa012c9da74d501089f07c6","620a732fcedb69707e320889","6","","","","","0","1"
"null","","","null","","","","html-keyboard-response","377","671698","0.0-377.0","5fa012c9da74d501089f07c6","620a732fcedb69707e320889","","","","","<p style=""color:darkgreen;font-size:24px;"">Correct :)</p>","",""
"2727","key","n","n","6.94532824427502","500","250","psychophysics","378","674426","0.0-378.0","5fa012c9da74d501089f07c6","620a732fcedb69707e320889","6","","","","","1","2"
"null","","","null","","","","html-keyboard-response","379","674928","0.0-379.0","5fa012c9da74d501089f07c6","620a732fcedb69707e320889","","","","","<p style=""color:red;font-size:24px;"">Error :(</p>","",""
"2701","key","v","v","6.945233933161944","500","250","psychophysics","380","677630","0.0-380.0","5fa012c9da74d501089f07c6","620a732fcedb69707e320889","6","","","","","1","7"
"null","","","null","","","","html-keyboard-response","381","678132","0.0-381.0","5fa012c9da74d501089f07c6","620a732fcedb69707e320889","","","","","<p style=""color:red;font-size:24px;"">Error :(</p>","",""
"2442","key","n","n","6.965390313390517","500","250","psychophysics","382","680576","0.0-382.0","5fa012c9da74d501089f07c6","620a732fcedb69707e320889","6","","","","","0","9"
"null","","","null","","","","html-keyboard-response","383","681077","0.0-383.0","5fa012c9da74d501089f07c6","620a732fcedb69707e320889","","","","","<p style=""color:red;font-size:24px;"">Error :(</p>","",""
"3072","key","n","n","6.992888636363734","500","250","psychophysics","384","684153","0.0-384.0","5fa012c9da74d501089f07c6","620a732fcedb69707e320889","6","","","","","1","7"
"null","","","null","","","","html-keyboard-response","385","684654","0.0-385.0","5fa012c9da74d501089f07c6","620a732fcedb69707e320889","","","","","<p style=""color:darkgreen;font-size:24px;"">Correct :)</p>","",""
"2793","key","v","v","6.962649253731309","500","250","psychophysics","386","687449","0.0-386.0","5fa012c9da74d501089f07c6","620a732fcedb69707e320889","6","","","","","0","1"
"null","","","null","","","","html-keyboard-response","387","687950","0.0-387.0","5fa012c9da74d501089f07c6","620a732fcedb69707e320889","","","","","<p style=""color:darkgreen;font-size:24px;"">Correct :)</p>","",""
"3102","key","v","v","6.945541387024623","500","250","psychophysics","388","691055","0.0-388.0","5fa012c9da74d501089f07c6","620a732fcedb69707e320889","6","","","","","0","1"
"null","","","null","","","","html-keyboard-response","389","691556","0.0-389.0","5fa012c9da74d501089f07c6","620a732fcedb69707e320889","","","","","<p style=""color:darkgreen;font-size:24px;"">Correct :)</p>","",""
"2796","key","n","n","6.945674937965161","500","250","psychophysics","390","694353","0.0-390.0","5fa012c9da74d501089f07c6","620a732fcedb69707e320889","6","","","","","0","4"
"null","","","null","","","","html-keyboard-response","391","694854","0.0-391.0","5fa012c9da74d501089f07c6","620a732fcedb69707e320889","","","","","<p style=""color:darkgreen;font-size:24px;"">Correct :)</p>","",""
"3035","key","v","v","6.9455377574369646","500","250","psychophysics","392","697891","0.0-392.0","5fa012c9da74d501089f07c6","620a732fcedb69707e320889","6","","","","","0","9"
"null","","","null","","","","html-keyboard-response","393","698392","0.0-393.0","5fa012c9da74d501089f07c6","620a732fcedb69707e320889","","","","","<p style=""color:darkgreen;font-size:24px;"">Correct :)</p>","",""
"3557","key","v","v","6.959048828124878","500","250","psychophysics","394","701950","0.0-394.0","5fa012c9da74d501089f07c6","620a732fcedb69707e320889","6","","","","","1","1"
"null","","","null","","","","html-keyboard-response","395","702451","0.0-395.0","5fa012c9da74d501089f07c6","620a732fcedb69707e320889","","","","","<p style=""color:darkgreen;font-size:24px;"">Correct :)</p>","",""
"3463","","","v","","","","html-keyboard-response","396","705915","0.0-396.0","5fa012c9da74d501089f07c6","620a732fcedb69707e320889","","","","","<p> Last set of trials.  Here, the tasks are going to switch once again.  We are going to do 50 of these.  And then you are done with the experiment.  </p>  <br><br>  Ready? (press v or n)","",""
"4258","key","n","n","6.946433931484486","500","250","psychophysics","397","710176","0.0-397.0","5fa012c9da74d501089f07c6","620a732fcedb69707e320889","7","","","","","1","6"
"null","","","null","","","","html-keyboard-response","398","710677","0.0-398.0","5fa012c9da74d501089f07c6","620a732fcedb69707e320889","","","","","<p style=""color:darkgreen;font-size:24px;"">Correct :)</p>","",""
"2518","key","v","v","6.945608815427141","500","250","psychophysics","399","713197","0.0-399.0","5fa012c9da74d501089f07c6","620a732fcedb69707e320889","7","","","","","1","1"
"null","","","null","","","","html-keyboard-response","400","713699","0.0-400.0","5fa012c9da74d501089f07c6","620a732fcedb69707e320889","","","","","<p style=""color:darkgreen;font-size:24px;"">Correct :)</p>","",""
"3045","key","v","v","6.945560364464748","500","250","psychophysics","401","716745","0.0-401.0","5fa012c9da74d501089f07c6","620a732fcedb69707e320889","7","","","","","1","1"
"null","","","null","","","","html-keyboard-response","402","717246","0.0-402.0","5fa012c9da74d501089f07c6","620a732fcedb69707e320889","","","","","<p style=""color:darkgreen;font-size:24px;"">Correct :)</p>","",""
"2798","key","n","n","6.948022332506384","500","250","psychophysics","403","720046","0.0-403.0","5fa012c9da74d501089f07c6","620a732fcedb69707e320889","7","","","","","1","7"
"null","","","null","","","","html-keyboard-response","404","720548","0.0-404.0","5fa012c9da74d501089f07c6","620a732fcedb69707e320889","","","","","<p style=""color:darkgreen;font-size:24px;"">Correct :)</p>","",""
"2869","key","v","v","6.9923163017033145","500","250","psychophysics","405","723419","0.0-405.0","5fa012c9da74d501089f07c6","620a732fcedb69707e320889","7","","","","","1","4"
"null","","","null","","","","html-keyboard-response","406","723919","0.0-406.0","5fa012c9da74d501089f07c6","620a732fcedb69707e320889","","","","","<p style=""color:darkgreen;font-size:24px;"">Correct :)</p>","",""
"2678","key","v","v","6.945740932642441","500","250","psychophysics","407","726600","0.0-407.0","5fa012c9da74d501089f07c6","620a732fcedb69707e320889","7","","","","","1","2"
"null","","","null","","","","html-keyboard-response","408","727102","0.0-408.0","5fa012c9da74d501089f07c6","620a732fcedb69707e320889","","","","","<p style=""color:darkgreen;font-size:24px;"">Correct :)</p>","",""
"2992","key","v","v","6.945554524361914","500","250","psychophysics","409","730095","0.0-409.0","5fa012c9da74d501089f07c6","620a732fcedb69707e320889","7","","","","","0","1"
"null","","","null","","","","html-keyboard-response","410","730606","0.0-410.0","5fa012c9da74d501089f07c6","620a732fcedb69707e320889","","","","","<p style=""color:darkgreen;font-size:24px;"">Correct :)</p>","",""
"2834","key","n","n","6.945539215686343","500","250","psychophysics","411","733442","0.0-411.0","5fa012c9da74d501089f07c6","620a732fcedb69707e320889","7","","","","","1","7"
"null","","","null","","","","html-keyboard-response","412","733944","0.0-412.0","5fa012c9da74d501089f07c6","620a732fcedb69707e320889","","","","","<p style=""color:darkgreen;font-size:24px;"">Correct :)</p>","",""
"2897","key","n","n","6.945604316546857","500","250","psychophysics","413","736843","0.0-413.0","5fa012c9da74d501089f07c6","620a732fcedb69707e320889","7","","","","","0","6"
"null","","","null","","","","html-keyboard-response","414","737344","0.0-414.0","5fa012c9da74d501089f07c6","620a732fcedb69707e320889","","","","","<p style=""color:darkgreen;font-size:24px;"">Correct :)</p>","",""
"4379","key","v","v","6.944990476190356","500","250","psychophysics","415","741724","0.0-415.0","5fa012c9da74d501089f07c6","620a732fcedb69707e320889","7","","","","","0","1"
"null","","","null","","","","html-keyboard-response","416","742225","0.0-416.0","5fa012c9da74d501089f07c6","620a732fcedb69707e320889","","","","","<p style=""color:darkgreen;font-size:24px;"">Correct :)</p>","",""
"3889","key","v","v","6.945417857142872","500","250","psychophysics","417","746115","0.0-417.0","5fa012c9da74d501089f07c6","620a732fcedb69707e320889","7","","","","","1","1"
"null","","","null","","","","html-keyboard-response","418","746627","0.0-418.0","5fa012c9da74d501089f07c6","620a732fcedb69707e320889","","","","","<p style=""color:darkgreen;font-size:24px;"">Correct :)</p>","",""
"5621","key","v","v","6.945387654320946","500","250","psychophysics","419","752250","0.0-419.0","5fa012c9da74d501089f07c6","620a732fcedb69707e320889","7","","","","","1","1"
"null","","","null","","","","html-keyboard-response","420","752752","0.0-420.0","5fa012c9da74d501089f07c6","620a732fcedb69707e320889","","","","","<p style=""color:darkgreen;font-size:24px;"">Correct :)</p>","",""
"3445","key","v","v","6.9455383064515415","500","250","psychophysics","421","756198","0.0-421.0","5fa012c9da74d501089f07c6","620a732fcedb69707e320889","7","","","","","0","1"
"null","","","null","","","","html-keyboard-response","422","756699","0.0-422.0","5fa012c9da74d501089f07c6","620a732fcedb69707e320889","","","","","<p style=""color:darkgreen;font-size:24px;"">Correct :)</p>","",""
"2679","key","v","v","6.963554404144853","500","250","psychophysics","423","759380","0.0-423.0","5fa012c9da74d501089f07c6","620a732fcedb69707e320889","7","","","","","0","3"
"null","","","null","","","","html-keyboard-response","424","759882","0.0-424.0","5fa012c9da74d501089f07c6","620a732fcedb69707e320889","","","","","<p style=""color:darkgreen;font-size:24px;"">Correct :)</p>","",""
"2770","key","v","v","6.94401253132823","500","250","psychophysics","425","762654","0.0-425.0","5fa012c9da74d501089f07c6","620a732fcedb69707e320889","7","","","","","0","1"
"null","","","null","","","","html-keyboard-response","426","763154","0.0-426.0","5fa012c9da74d501089f07c6","620a732fcedb69707e320889","","","","","<p style=""color:darkgreen;font-size:24px;"">Correct :)</p>","",""
"4176","key","v","v","6.9454359400997285","500","250","psychophysics","427","767332","0.0-427.0","5fa012c9da74d501089f07c6","620a732fcedb69707e320889","7","","","","","1","1"
"null","","","null","","","","html-keyboard-response","428","767833","0.0-428.0","5fa012c9da74d501089f07c6","620a732fcedb69707e320889","","","","","<p style=""color:darkgreen;font-size:24px;"">Correct :)</p>","",""
"3175","key","v","v","6.950196936542904","500","250","psychophysics","429","771009","0.0-429.0","5fa012c9da74d501089f07c6","620a732fcedb69707e320889","7","","","","","1","2"
"null","","","null","","","","html-keyboard-response","430","771511","0.0-430.0","5fa012c9da74d501089f07c6","620a732fcedb69707e320889","","","","","<p style=""color:darkgreen;font-size:24px;"">Correct :)</p>","",""
"4763","key","n","n","6.945957725947559","500","250","psychophysics","431","776275","0.0-431.0","5fa012c9da74d501089f07c6","620a732fcedb69707e320889","7","","","","","0","2"
"null","","","null","","","","html-keyboard-response","432","776777","0.0-432.0","5fa012c9da74d501089f07c6","620a732fcedb69707e320889","","","","","<p style=""color:darkgreen;font-size:24px;"">Correct :)</p>","",""
"2981","key","v","v","6.961890442890608","500","250","psychophysics","433","779760","0.0-433.0","5fa012c9da74d501089f07c6","620a732fcedb69707e320889","7","","","","","1","1"
"null","","","null","","","","html-keyboard-response","434","780260","0.0-434.0","5fa012c9da74d501089f07c6","620a732fcedb69707e320889","","","","","<p style=""color:darkgreen;font-size:24px;"">Correct :)</p>","",""
"3373","key","n","n","6.9455967078188054","500","250","psychophysics","435","783635","0.0-435.0","5fa012c9da74d501089f07c6","620a732fcedb69707e320889","7","","","","","0","6"
"null","","","null","","","","html-keyboard-response","436","784137","0.0-436.0","5fa012c9da74d501089f07c6","620a732fcedb69707e320889","","","","","<p style=""color:darkgreen;font-size:24px;"">Correct :)</p>","",""
"3634","key","v","v","6.945523900573541","500","250","psychophysics","437","787772","0.0-437.0","5fa012c9da74d501089f07c6","620a732fcedb69707e320889","7","","","","","0","3"
"null","","","null","","","","html-keyboard-response","438","788273","0.0-438.0","5fa012c9da74d501089f07c6","620a732fcedb69707e320889","","","","","<p style=""color:darkgreen;font-size:24px;"">Correct :)</p>","",""
"2683","key","v","v","6.945582901554392","500","250","psychophysics","439","790958","0.0-439.0","5fa012c9da74d501089f07c6","620a732fcedb69707e320889","7","","","","","0","3"
"null","","","null","","","","html-keyboard-response","440","791460","0.0-440.0","5fa012c9da74d501089f07c6","620a732fcedb69707e320889","","","","","<p style=""color:darkgreen;font-size:24px;"">Correct :)</p>","",""
"2976","key","n","n","6.961771028037466","500","250","psychophysics","441","794437","0.0-441.0","5fa012c9da74d501089f07c6","620a732fcedb69707e320889","7","","","","","0","4"
"null","","","null","","","","html-keyboard-response","442","794939","0.0-442.0","5fa012c9da74d501089f07c6","620a732fcedb69707e320889","","","","","<p style=""color:darkgreen;font-size:24px;"">Correct :)</p>","",""
"2880","key","n","n","6.945571084337376","500","250","psychophysics","443","797821","0.0-443.0","5fa012c9da74d501089f07c6","620a732fcedb69707e320889","7","","","","","1","6"
"null","","","null","","","","html-keyboard-response","444","798323","0.0-444.0","5fa012c9da74d501089f07c6","620a732fcedb69707e320889","","","","","<p style=""color:darkgreen;font-size:24px;"">Correct :)</p>","",""
"2701","key","v","v","6.945544987146331","500","250","psychophysics","445","801026","0.0-445.0","5fa012c9da74d501089f07c6","620a732fcedb69707e320889","7","","","","","1","3"
"null","","","null","","","","html-keyboard-response","446","801527","0.0-446.0","5fa012c9da74d501089f07c6","620a732fcedb69707e320889","","","","","<p style=""color:darkgreen;font-size:24px;"">Correct :)</p>","",""
"4326","key","v","v","6.945481540930845","500","250","psychophysics","447","805854","0.0-447.0","5fa012c9da74d501089f07c6","620a732fcedb69707e320889","7","","","","","1","2"
"null","","","null","","","","html-keyboard-response","448","806355","0.0-448.0","5fa012c9da74d501089f07c6","620a732fcedb69707e320889","","","","","<p style=""color:darkgreen;font-size:24px;"">Correct :)</p>","",""
"3479","key","v","v","6.945055888223549","500","250","psychophysics","449","809835","0.0-449.0","5fa012c9da74d501089f07c6","620a732fcedb69707e320889","7","","","","","0","7"
"null","","","null","","","","html-keyboard-response","450","810336","0.0-450.0","5fa012c9da74d501089f07c6","620a732fcedb69707e320889","","","","","<p style=""color:darkgreen;font-size:24px;"">Correct :)</p>","",""
"2403","key","n","n","6.945575144508655","500","250","psychophysics","451","812740","0.0-451.0","5fa012c9da74d501089f07c6","620a732fcedb69707e320889","7","","","","","0","6"
"null","","","null","","","","html-keyboard-response","452","813241","0.0-452.0","5fa012c9da74d501089f07c6","620a732fcedb69707e320889","","","","","<p style=""color:darkgreen;font-size:24px;"">Correct :)</p>","",""
"2726","key","v","v","6.945604591836502","500","250","psychophysics","453","815970","0.0-453.0","5fa012c9da74d501089f07c6","620a732fcedb69707e320889","7","","","","","0","7"
"null","","","null","","","","html-keyboard-response","454","816471","0.0-454.0","5fa012c9da74d501089f07c6","620a732fcedb69707e320889","","","","","<p style=""color:darkgreen;font-size:24px;"">Correct :)</p>","",""
"3488","key","n","n","6.945494023904453","500","250","psychophysics","455","819961","0.0-455.0","5fa012c9da74d501089f07c6","620a732fcedb69707e320889","7","","","","","0","4"
"null","","","null","","","","html-keyboard-response","456","820463","0.0-456.0","5fa012c9da74d501089f07c6","620a732fcedb69707e320889","","","","","<p style=""color:darkgreen;font-size:24px;"">Correct :)</p>","",""
"2736","key","v","v","6.931137055837606","500","250","psychophysics","457","823200","0.0-457.0","5fa012c9da74d501089f07c6","620a732fcedb69707e320889","7","","","","","0","1"
"null","","","null","","","","html-keyboard-response","458","823701","0.0-458.0","5fa012c9da74d501089f07c6","620a732fcedb69707e320889","","","","","<p style=""color:darkgreen;font-size:24px;"">Correct :)</p>","",""
"2511","key","v","v","6.946113573407259","500","250","psychophysics","459","826214","0.0-459.0","5fa012c9da74d501089f07c6","620a732fcedb69707e320889","7","","","","","0","3"
"null","","","null","","","","html-keyboard-response","460","826716","0.0-460.0","5fa012c9da74d501089f07c6","620a732fcedb69707e320889","","","","","<p style=""color:darkgreen;font-size:24px;"">Correct :)</p>","",""
"2642","key","v","v","6.945742105263114","500","250","psychophysics","461","829359","0.0-461.0","5fa012c9da74d501089f07c6","620a732fcedb69707e320889","7","","","","","0","1"
"null","","","null","","","","html-keyboard-response","462","829861","0.0-462.0","5fa012c9da74d501089f07c6","620a732fcedb69707e320889","","","","","<p style=""color:darkgreen;font-size:24px;"">Correct :)</p>","",""
"3165","key","v","v","6.9607978021979315","500","250","psychophysics","463","833027","0.0-463.0","5fa012c9da74d501089f07c6","620a732fcedb69707e320889","7","","","","","1","7"
"null","","","null","","","","html-keyboard-response","464","833528","0.0-464.0","5fa012c9da74d501089f07c6","620a732fcedb69707e320889","","","","","<p style=""color:red;font-size:24px;"">Error :(</p>","",""
"2621","key","n","n","7.001133333333457","500","250","psychophysics","465","836150","0.0-465.0","5fa012c9da74d501089f07c6","620a732fcedb69707e320889","7","","","","","1","6"
"null","","","null","","","","html-keyboard-response","466","836651","0.0-466.0","5fa012c9da74d501089f07c6","620a732fcedb69707e320889","","","","","<p style=""color:darkgreen;font-size:24px;"">Correct :)</p>","",""
"2622","key","n","n","6.94557407407414","500","250","psychophysics","467","839274","0.0-467.0","5fa012c9da74d501089f07c6","620a732fcedb69707e320889","7","","","","","1","6"
"null","","","null","","","","html-keyboard-response","468","839775","0.0-468.0","5fa012c9da74d501089f07c6","620a732fcedb69707e320889","","","","","<p style=""color:darkgreen;font-size:24px;"">Correct :)</p>","",""
"2623","key","v","v","6.945550264550124","500","250","psychophysics","469","842400","0.0-469.0","5fa012c9da74d501089f07c6","620a732fcedb69707e320889","7","","","","","0","3"
"null","","","null","","","","html-keyboard-response","470","842902","0.0-470.0","5fa012c9da74d501089f07c6","620a732fcedb69707e320889","","","","","<p style=""color:darkgreen;font-size:24px;"">Correct :)</p>","",""
"2636","key","n","n","6.9453894736842665","500","250","psychophysics","471","845539","0.0-471.0","5fa012c9da74d501089f07c6","620a732fcedb69707e320889","7","","","","","1","2"
"null","","","null","","","","html-keyboard-response","472","846040","0.0-472.0","5fa012c9da74d501089f07c6","620a732fcedb69707e320889","","","","","<p style=""color:red;font-size:24px;"">Error :(</p>","",""
"4076","key","n","n","6.945517887563835","500","250","psychophysics","473","850117","0.0-473.0","5fa012c9da74d501089f07c6","620a732fcedb69707e320889","7","","","","","0","4"
"null","","","null","","","","html-keyboard-response","474","850618","0.0-474.0","5fa012c9da74d501089f07c6","620a732fcedb69707e320889","","","","","<p style=""color:darkgreen;font-size:24px;"">Correct :)</p>","",""
"3882","key","v","v","6.945050089445535","500","250","psychophysics","475","854501","0.0-475.0","5fa012c9da74d501089f07c6","620a732fcedb69707e320889","7","","","","","1","1"
"null","","","null","","","","html-keyboard-response","476","855002","0.0-476.0","5fa012c9da74d501089f07c6","620a732fcedb69707e320889","","","","","<p style=""color:darkgreen;font-size:24px;"">Correct :)</p>","",""
"3147","key","n","n","6.9455792951543245","500","250","psychophysics","477","858151","0.0-477.0","5fa012c9da74d501089f07c6","620a732fcedb69707e320889","7","","","","","1","4"
"null","","","null","","","","html-keyboard-response","478","858652","0.0-478.0","5fa012c9da74d501089f07c6","620a732fcedb69707e320889","","","","","<p style=""color:red;font-size:24px;"">Error :(</p>","",""
"3494","key","v","v","6.9454592445327865","500","250","psychophysics","479","862148","0.0-479.0","5fa012c9da74d501089f07c6","620a732fcedb69707e320889","7","","","","","1","2"
"null","","","null","","","","html-keyboard-response","480","862649","0.0-480.0","5fa012c9da74d501089f07c6","620a732fcedb69707e320889","","","","","<p style=""color:darkgreen;font-size:24px;"">Correct :)</p>","",""
"4196","key","v","v","6.980093023255916","500","250","psychophysics","481","866848","0.0-481.0","5fa012c9da74d501089f07c6","620a732fcedb69707e320889","7","","","","","0","3"
"null","","","null","","","","html-keyboard-response","482","867349","0.0-482.0","5fa012c9da74d501089f07c6","620a732fcedb69707e320889","","","","","<p style=""color:darkgreen;font-size:24px;"">Correct :)</p>","",""
"3560","key","v","v","6.945512670565435","500","250","psychophysics","483","870910","0.0-483.0","5fa012c9da74d501089f07c6","620a732fcedb69707e320889","7","","","","","0","7"
"null","","","null","","","","html-keyboard-response","484","871411","0.0-484.0","5fa012c9da74d501089f07c6","620a732fcedb69707e320889","","","","","<p style=""color:darkgreen;font-size:24px;"">Correct :)</p>","",""
"2962","key","n","n","6.947461358313798","500","250","psychophysics","485","874375","0.0-485.0","5fa012c9da74d501089f07c6","620a732fcedb69707e320889","7","","","","","0","2"
"null","","","null","","","","html-keyboard-response","486","874877","0.0-486.0","5fa012c9da74d501089f07c6","620a732fcedb69707e320889","","","","","<p style=""color:darkgreen;font-size:24px;"">Correct :)</p>","",""
"4143","key","n","n","6.945931323282919","500","250","psychophysics","487","879022","0.0-487.0","5fa012c9da74d501089f07c6","620a732fcedb69707e320889","7","","","","","1","6"
"null","","","null","","","","html-keyboard-response","488","879522","0.0-488.0","5fa012c9da74d501089f07c6","620a732fcedb69707e320889","","","","","<p style=""color:darkgreen;font-size:24px;"">Correct :)</p>","",""
"3471","key","v","v","6.945673999999882","500","250","psychophysics","489","882996","0.0-489.0","5fa012c9da74d501089f07c6","620a732fcedb69707e320889","7","","","","","1","2"
"null","","","null","","","","html-keyboard-response","490","883496","0.0-490.0","5fa012c9da74d501089f07c6","620a732fcedb69707e320889","","","","","<p style=""color:darkgreen;font-size:24px;"">Correct :)</p>","",""
"3291","key","v","v","6.945373417721434","500","250","psychophysics","491","886789","0.0-491.0","5fa012c9da74d501089f07c6","620a732fcedb69707e320889","7","","","","","0","1"
"null","","","null","","","","html-keyboard-response","492","887290","0.0-492.0","5fa012c9da74d501089f07c6","620a732fcedb69707e320889","","","","","<p style=""color:darkgreen;font-size:24px;"">Correct :)</p>","",""
"4079","key","n","n","6.9454795918368015","500","250","psychophysics","493","891371","0.0-493.0","5fa012c9da74d501089f07c6","620a732fcedb69707e320889","7","","","","","0","4"
"null","","","null","","","","html-keyboard-response","494","891872","0.0-494.0","5fa012c9da74d501089f07c6","620a732fcedb69707e320889","","","","","<p style=""color:darkgreen;font-size:24px;"">Correct :)</p>","",""
"5165","key","v","v","6.945344086021519","500","250","psychophysics","495","897039","0.0-495.0","5fa012c9da74d501089f07c6","620a732fcedb69707e320889","7","","","","","1","3"
"null","","","null","","","","html-keyboard-response","496","897541","0.0-496.0","5fa012c9da74d501089f07c6","620a732fcedb69707e320889","","","","","<p style=""color:darkgreen;font-size:24px;"">Correct :)</p>","",""
