"rt","response_type","key_press","response","avg_frame_time","center_x","center_y","trial_type","trial_index","time_elapsed","internal_node_id","pid","sid","phase","guide","targ","resp","stimulus","is5","stim"
"3019","key"," "," ","16.75104945054945","500","250","psychophysics","0","3064","0.0-0.0","613ab311df99420815403fe9","6213cb9223c054231b776ce7","","","","","","",""
"4277","key"," "," ","16.658734375","500","250","psychophysics","1","7346","0.0-1.0","613ab311df99420815403fe9","6213cb9223c054231b776ce7","","","","","","",""
"2838","key"," "," ","16.66011764705882","500","250","psychophysics","2","10189","0.0-2.0","613ab311df99420815403fe9","6213cb9223c054231b776ce7","","","","","","",""
"1214","key"," "," ","16.66058333333333","500","250","psychophysics","3","11407","0.0-3.0","613ab311df99420815403fe9","6213cb9223c054231b776ce7","","","","","","",""
"2755","key"," "," ","16.658800000000006","500","250","psychophysics","4","14168","0.0-4.0","613ab311df99420815403fe9","6213cb9223c054231b776ce7","","","","","","",""
"5394","key"," "," ","16.659089783281736","500","250","psychophysics","5","19568","0.0-5.0","613ab311df99420815403fe9","6213cb9223c054231b776ce7","","","","","","",""
"3084","key"," "," ","16.66008152173912","500","250","psychophysics","6","22657","0.0-6.0","613ab311df99420815403fe9","6213cb9223c054231b776ce7","","","","","","",""
"6294","key"," "," ","16.659682539682542","500","250","psychophysics","7","28963","0.0-7.0","613ab311df99420815403fe9","6213cb9223c054231b776ce7","","","","","","",""
"11589","key"," "," ","16.65896978417266","500","250","psychophysics","8","40557","0.0-8.0","613ab311df99420815403fe9","6213cb9223c054231b776ce7","0","0","30","30","","",""
"3558","key"," "," ","16.657901408450712","500","250","psychophysics","9","44120","0.0-9.0","613ab311df99420815403fe9","6213cb9223c054231b776ce7","","","","","","",""
"4140","key"," "," ","16.72645528455284","500","250","psychophysics","10","48268","0.0-10.0","613ab311df99420815403fe9","6213cb9223c054231b776ce7","","","","","","",""
"6759","key"," "," ","16.659660098522167","500","250","psychophysics","11","55037","0.0-11.0","613ab311df99420815403fe9","6213cb9223c054231b776ce7","","","","","","",""
"4731","key"," "," ","16.658293286219077","500","250","psychophysics","12","59774","0.0-12.0","613ab311df99420815403fe9","6213cb9223c054231b776ce7","","","","","","",""
"1596","key"," "," ","16.6603229166667","500","250","psychophysics","13","61381","0.0-13.0","613ab311df99420815403fe9","6213cb9223c054231b776ce7","","","","","","",""
"4802","key"," "," ","16.77525614035089","500","250","psychophysics","14","66189","0.0-14.0","613ab311df99420815403fe9","6213cb9223c054231b776ce7","","","","","","",""
"2776","key"," "," ","16.65940119760485","500","250","psychophysics","15","68977","0.0-15.0","613ab311df99420815403fe9","6213cb9223c054231b776ce7","","","","","","",""
"3169","key"," "," ","16.657037037037","500","250","psychophysics","16","72153","0.0-16.0","613ab311df99420815403fe9","6213cb9223c054231b776ce7","","","","","","",""
"14737","key"," "," ","16.659167231638417","500","250","psychophysics","17","86902","0.0-17.0","613ab311df99420815403fe9","6213cb9223c054231b776ce7","1","0","47","72","","",""
"7625","key"," "," ","16.65910940919038","500","250","psychophysics","18","94533","0.0-18.0","613ab311df99420815403fe9","6213cb9223c054231b776ce7","1","5","58","73","","",""
"8504","key"," "," ","16.659777996070737","500","250","psychophysics","19","103042","0.0-19.0","613ab311df99420815403fe9","6213cb9223c054231b776ce7","1","0","49","70","","",""
"11819","key"," "," ","16.65905915492958","500","250","psychophysics","20","114872","0.0-20.0","613ab311df99420815403fe9","6213cb9223c054231b776ce7","1","5","53","61","","",""
"9362","key"," "," ","16.658684491978605","500","250","psychophysics","21","124240","0.0-21.0","613ab311df99420815403fe9","6213cb9223c054231b776ce7","1","0","39","62","","",""
"9953","key"," "," ","16.715110924369764","500","250","psychophysics","22","134201","0.0-22.0","613ab311df99420815403fe9","6213cb9223c054231b776ce7","1","5","48","53","","",""
"18867","key"," "," ","16.659171378091873","500","250","psychophysics","23","153075","0.0-23.0","613ab311df99420815403fe9","6213cb9223c054231b776ce7","1","0","59","79","","",""
"9168","key"," "," ","16.659054644808737","500","250","psychophysics","24","162248","0.0-24.0","613ab311df99420815403fe9","6213cb9223c054231b776ce7","1","5","28","33","","",""
"6865","key"," "," ","16.659364077669892","500","250","psychophysics","25","169123","0.0-25.0","613ab311df99420815403fe9","6213cb9223c054231b776ce7","1","0","37","52","","",""
"7585","key"," "," ","16.658872527472553","500","250","psychophysics","26","176711","0.0-26.0","613ab311df99420815403fe9","6213cb9223c054231b776ce7","1","5","20","23","","",""
"9033","key"," "," ","16.658874306839188","500","250","psychophysics","27","185749","0.0-27.0","613ab311df99420815403fe9","6213cb9223c054231b776ce7","1","0","47","68","","",""
"7685","key"," "," ","16.65954663774405","500","250","psychophysics","28","193438","0.0-28.0","613ab311df99420815403fe9","6213cb9223c054231b776ce7","1","5","23","29","","",""
"6060","key"," "," ","16.658650137741038","500","250","psychophysics","29","199502","0.0-29.0","613ab311df99420815403fe9","6213cb9223c054231b776ce7","1","0","56","83","","",""
"6210","key"," "," ","16.659685483870945","500","250","psychophysics","30","205715","0.0-30.0","613ab311df99420815403fe9","6213cb9223c054231b776ce7","1","5","36","42","","",""
"10706","key"," "," ","16.658677570093435","500","250","psychophysics","31","216426","0.0-31.0","613ab311df99420815403fe9","6213cb9223c054231b776ce7","1","0","36","56","","",""
"12667","key"," "," ","16.659469038208183","500","250","psychophysics","32","229097","0.0-32.0","613ab311df99420815403fe9","6213cb9223c054231b776ce7","1","5","57","62","","",""
"6077","key"," "," ","16.659128767123352","500","250","psychophysics","33","235183","0.0-33.0","613ab311df99420815403fe9","6213cb9223c054231b776ce7","1","0","52","72","","",""
"12552","key"," "," ","16.658972074468075","500","250","psychophysics","34","247740","0.0-34.0","613ab311df99420815403fe9","6213cb9223c054231b776ce7","1","5","53","57","","",""
"5217","key"," "," ","16.659335463258795","500","250","psychophysics","35","252966","0.0-35.0","613ab311df99420815403fe9","6213cb9223c054231b776ce7","1","0","25","36","","",""
"4903","key"," "," ","16.71521501706481","500","250","psychophysics","36","257874","0.0-36.0","613ab311df99420815403fe9","6213cb9223c054231b776ce7","1","5","39","45","","",""
"2689","key"," "," ","16.66082499999993","500","250","psychophysics","37","260565","0.0-37.0","613ab311df99420815403fe9","6213cb9223c054231b776ce7","","","","","","",""
"5397","key"," "," ","16.659786377709082","500","250","psychophysics","38","265967","0.0-38.0","613ab311df99420815403fe9","6213cb9223c054231b776ce7","","","","","","",""
"2844","key"," "," ","16.659093567251215","500","250","psychophysics","39","268820","0.0-39.0","613ab311df99420815403fe9","6213cb9223c054231b776ce7","","","","","","",""
"7907","key"," "," ","16.65922784810124","500","250","psychophysics","40","276733","0.0-40.0","613ab311df99420815403fe9","6213cb9223c054231b776ce7","2","0","50","75","","",""
"4999","key"," "," ","16.6585317725751","500","250","psychophysics","41","281738","0.0-41.0","613ab311df99420815403fe9","6213cb9223c054231b776ce7","","","","","","",""
"7307","key"," "," ","16.659399543378953","500","250","psychophysics","42","289048","0.0-42.0","613ab311df99420815403fe9","6213cb9223c054231b776ce7","2","0","44","60","","",""
"3723","key"," "," ","16.658677130044886","500","250","psychophysics","43","292776","0.0-43.0","613ab311df99420815403fe9","6213cb9223c054231b776ce7","","","","","","",""
"5198","key"," "," ","16.712609677419493","500","250","psychophysics","44","297978","0.0-44.0","613ab311df99420815403fe9","6213cb9223c054231b776ce7","2","0","37","46","","",""
"2829","key"," "," ","16.659088757396443","500","250","psychophysics","45","300811","0.0-45.0","613ab311df99420815403fe9","6213cb9223c054231b776ce7","","","","","","",""
"5607","key"," "," ","16.659279761904706","500","250","psychophysics","46","306423","0.0-46.0","613ab311df99420815403fe9","6213cb9223c054231b776ce7","2","0","26","29","","",""
"2391","key"," "," ","16.657951048951045","500","250","psychophysics","47","308818","0.0-47.0","613ab311df99420815403fe9","6213cb9223c054231b776ce7","","","","","","",""
"6163","key"," "," ","16.659140921409207","500","250","psychophysics","48","314986","0.0-48.0","613ab311df99420815403fe9","6213cb9223c054231b776ce7","2","0","26","32","","",""
"2236","key"," "," ","16.658789473684255","500","250","psychophysics","49","317226","0.0-49.0","613ab311df99420815403fe9","6213cb9223c054231b776ce7","","","","","","",""
"5618","key"," "," ","16.658869436201922","500","250","psychophysics","50","322851","0.0-50.0","613ab311df99420815403fe9","6213cb9223c054231b776ce7","2","0","20","19","","",""
"2498","key"," "," ","16.658765100671257","500","250","psychophysics","51","325352","0.0-51.0","613ab311df99420815403fe9","6213cb9223c054231b776ce7","","","","","","",""
"9291","key"," "," ","16.689462230215852","500","250","psychophysics","52","334647","0.0-52.0","613ab311df99420815403fe9","6213cb9223c054231b776ce7","2","0","50","62","","",""
"2437","key"," "," ","16.65952054794506","500","250","psychophysics","53","337089","0.0-53.0","613ab311df99420815403fe9","6213cb9223c054231b776ce7","","","","","","",""
"9340","key"," "," ","16.658917857142868","500","250","psychophysics","54","346434","0.0-54.0","613ab311df99420815403fe9","6213cb9223c054231b776ce7","2","0","52","56","","",""
"1371","key"," "," ","16.657901234567642","500","250","psychophysics","55","347809","0.0-55.0","613ab311df99420815403fe9","6213cb9223c054231b776ce7","","","","","","",""
"3738","key"," "," ","16.65908928571428","500","250","psychophysics","56","351551","0.0-56.0","613ab311df99420815403fe9","6213cb9223c054231b776ce7","2","0","28","30","","",""
"1246","key"," "," ","16.658486486486524","500","250","psychophysics","57","352801","0.0-57.0","613ab311df99420815403fe9","6213cb9223c054231b776ce7","","","","","","",""
"7443","key"," "," ","16.658524663677237","500","250","psychophysics","58","360249","0.0-58.0","613ab311df99420815403fe9","6213cb9223c054231b776ce7","2","0","50","51","","",""
"1924","key"," "," ","16.660252173913076","500","250","psychophysics","59","362178","0.0-59.0","613ab311df99420815403fe9","6213cb9223c054231b776ce7","","","","","","",""
"8244","key"," "," ","16.692855983772898","500","250","psychophysics","60","370426","0.0-60.0","613ab311df99420815403fe9","6213cb9223c054231b776ce7","2","0","56","62","","",""
"1288","key"," "," ","16.65584210526293","500","250","psychophysics","61","371717","0.0-61.0","613ab311df99420815403fe9","6213cb9223c054231b776ce7","","","","","","",""
"3026","key"," "," ","16.659635359116184","500","250","psychophysics","62","374752","0.0-62.0","613ab311df99420815403fe9","6213cb9223c054231b776ce7","2","0","22","22","","",""
"1515","key"," "," ","16.660505494505813","500","250","psychophysics","63","376274","0.0-63.0","613ab311df99420815403fe9","6213cb9223c054231b776ce7","","","","","","",""
"7307","key"," "," ","16.658764840182624","500","250","psychophysics","64","383584","0.0-64.0","613ab311df99420815403fe9","6213cb9223c054231b776ce7","2","0","42","53","","",""
"1167","key"," "," ","16.65943478260854","500","250","psychophysics","65","384756","0.0-65.0","613ab311df99420815403fe9","6213cb9223c054231b776ce7","","","","","","",""
"6444","key"," "," ","16.659240932642497","500","250","psychophysics","66","391204","0.0-66.0","613ab311df99420815403fe9","6213cb9223c054231b776ce7","2","0","29","27","","",""
"1372","key"," "," ","16.657963414633898","500","250","psychophysics","67","392580","0.0-67.0","613ab311df99420815403fe9","6213cb9223c054231b776ce7","","","","","","",""
"8969","key"," "," ","16.689707089552275","500","250","psychophysics","68","401554","0.0-68.0","613ab311df99420815403fe9","6213cb9223c054231b776ce7","2","0","46","45","","",""
"1012","key"," "," ","16.659819672131324","500","250","psychophysics","69","402575","0.0-69.0","613ab311df99420815403fe9","6213cb9223c054231b776ce7","","","","","","",""
"9616","key"," "," ","16.65865798611109","500","250","psychophysics","70","412197","0.0-70.0","613ab311df99420815403fe9","6213cb9223c054231b776ce7","","","","","","",""
"5126","key"," "," ","16.65918566775243","500","250","psychophysics","71","417328","0.0-71.0","613ab311df99420815403fe9","6213cb9223c054231b776ce7","","","","","","",""
"985","key"," "," ","16.661491525424566","500","250","psychophysics","72","418321","0.0-72.0","613ab311df99420815403fe9","6213cb9223c054231b776ce7","3","5","35","10","","",""
"7173","key"," "," ","16.65854418604651","500","250","psychophysics","73","425499","0.0-73.0","613ab311df99420815403fe9","6213cb9223c054231b776ce7","3","0","48","51","","",""
"12764","key"," "," ","16.65915816993463","500","250","psychophysics","74","438269","0.0-74.0","613ab311df99420815403fe9","6213cb9223c054231b776ce7","3","5","54","52","","",""
"6335","key"," "," ","16.659499999999962","500","250","psychophysics","75","444613","0.0-75.0","613ab311df99420815403fe9","6213cb9223c054231b776ce7","3","0","33","35","","",""
"9484","key"," "," ","16.68846302816905","500","250","psychophysics","76","454103","0.0-76.0","613ab311df99420815403fe9","6213cb9223c054231b776ce7","3","5","45","49","","",""
"3983","key"," "," ","16.659172268907692","500","250","psychophysics","77","458094","0.0-77.0","613ab311df99420815403fe9","6213cb9223c054231b776ce7","3","0","31","35","","",""
"4960","key"," "," ","16.65959595959584","500","250","psychophysics","78","463064","0.0-78.0","613ab311df99420815403fe9","6213cb9223c054231b776ce7","3","5","20","20","","",""
"4944","key"," "," ","16.65907407407406","500","250","psychophysics","79","468015","0.0-79.0","613ab311df99420815403fe9","6213cb9223c054231b776ce7","3","0","24","28","","",""
"7557","key"," "," ","16.65921192052985","500","250","psychophysics","80","475579","0.0-80.0","613ab311df99420815403fe9","6213cb9223c054231b776ce7","3","5","44","41","","",""
"3118","key"," "," ","16.65874193548394","500","250","psychophysics","81","478703","0.0-81.0","613ab311df99420815403fe9","6213cb9223c054231b776ce7","3","0","20","20","","",""
"5752","key"," "," ","16.659542028985552","500","250","psychophysics","82","484464","0.0-82.0","613ab311df99420815403fe9","6213cb9223c054231b776ce7","3","5","25","28","","",""
"9372","key"," "," ","16.659535587188586","500","250","psychophysics","83","493840","0.0-83.0","613ab311df99420815403fe9","6213cb9223c054231b776ce7","3","0","53","66","","",""
"10221","key"," "," ","16.68667320261439","500","250","psychophysics","84","504067","0.0-84.0","613ab311df99420815403fe9","6213cb9223c054231b776ce7","3","5","57","61","","",""
"13043","key"," "," ","16.65934526854221","500","250","psychophysics","85","517116","0.0-85.0","613ab311df99420815403fe9","6213cb9223c054231b776ce7","3","0","48","59","","",""
"5857","key"," "," ","16.65962962962971","500","250","psychophysics","86","522983","0.0-86.0","613ab311df99420815403fe9","6213cb9223c054231b776ce7","3","5","46","51","","",""
"6393","key"," "," ","16.65970572916679","500","250","psychophysics","87","529385","0.0-87.0","613ab311df99420815403fe9","6213cb9223c054231b776ce7","3","0","44","52","","",""
"4065","key"," "," ","16.6586378600823","500","250","psychophysics","88","533456","0.0-88.0","613ab311df99420815403fe9","6213cb9223c054231b776ce7","3","5","60","58","","",""
"6553","key"," "," ","16.659104325699573","500","250","psychophysics","89","540014","0.0-89.0","613ab311df99420815403fe9","6213cb9223c054231b776ce7","3","0","60","72","","",""
"4724","key"," "," ","16.658190812720576","500","250","psychophysics","90","544743","0.0-90.0","613ab311df99420815403fe9","6213cb9223c054231b776ce7","3","5","54","58","","",""
"3343","key"," "," ","16.658180000000286","500","250","psychophysics","91","548091","0.0-91.0","613ab311df99420815403fe9","6213cb9223c054231b776ce7","3","0","31","38","","",""
"1524","key"," "," ","16.65946666666617","500","250","psychophysics","92","549617","0.0-92.0","613ab311df99420815403fe9","6213cb9223c054231b776ce7","","","","","","",""
"161584","","","v","","","","html-keyboard-response","93","711205","0.0-93.0","613ab311df99420815403fe9","6213cb9223c054231b776ce7","","","","","<p> In this part of the experiment, we are going present digits 1, 2, 3, 4, 6, 7, 8, and 9.  Notice that 5 is missing.  Your job is to say whether the presented digit is less than or greater than 5.  For example, 3 is less than 5 and 7 is greater than 5.  If the digit is less than 5, press the v key; if it is greater than 5, press the n key. We are going to do 200 of these in total, but only 50 righ now. They go real fast.</p>  <br><br>  Ready? (press v or n)","",""
"3052","key","v","v","16.650092391304813","500","250","psychophysics","94","714271","0.0-94.0","613ab311df99420815403fe9","6213cb9223c054231b776ce7","4","","","","","1","3"
"null","","","null","","","","html-keyboard-response","95","714781","0.0-95.0","613ab311df99420815403fe9","6213cb9223c054231b776ce7","","","","","<p style=""color:darkgreen;font-size:24px;"">Correct :)</p>","",""
"2218","key","v","v","16.66156390977453","500","250","psychophysics","96","717006","0.0-96.0","613ab311df99420815403fe9","6213cb9223c054231b776ce7","4","","","","","1","4"
"null","","","null","","","","html-keyboard-response","97","717518","0.0-97.0","613ab311df99420815403fe9","6213cb9223c054231b776ce7","","","","","<p style=""color:darkgreen;font-size:24px;"">Correct :)</p>","",""
"3022","key","v","v","16.657850828729263","500","250","psychophysics","98","720545","0.0-98.0","613ab311df99420815403fe9","6213cb9223c054231b776ce7","4","","","","","1","2"
"null","","","null","","","","html-keyboard-response","99","721057","0.0-99.0","613ab311df99420815403fe9","6213cb9223c054231b776ce7","","","","","<p style=""color:darkgreen;font-size:24px;"">Correct :)</p>","",""
"2945","key","v","v","16.659480225988716","500","250","psychophysics","100","724005","0.0-100.0","613ab311df99420815403fe9","6213cb9223c054231b776ce7","4","","","","","1","4"
"null","","","null","","","","html-keyboard-response","101","724508","0.0-101.0","613ab311df99420815403fe9","6213cb9223c054231b776ce7","","","","","<p style=""color:darkgreen;font-size:24px;"">Correct :)</p>","",""
"3415","key","v","v","16.740819512195205","500","250","psychophysics","102","727930","0.0-102.0","613ab311df99420815403fe9","6213cb9223c054231b776ce7","4","","","","","1","3"
"null","","","null","","","","html-keyboard-response","103","728432","0.0-103.0","613ab311df99420815403fe9","6213cb9223c054231b776ce7","","","","","<p style=""color:darkgreen;font-size:24px;"">Correct :)</p>","",""
"2891","key","n","n","16.658385057471314","500","250","psychophysics","104","731329","0.0-104.0","613ab311df99420815403fe9","6213cb9223c054231b776ce7","4","","","","","1","7"
"null","","","null","","","","html-keyboard-response","105","731831","0.0-105.0","613ab311df99420815403fe9","6213cb9223c054231b776ce7","","","","","<p style=""color:darkgreen;font-size:24px;"">Correct :)</p>","",""
"2807","key","n","n","16.658218934910906","500","250","psychophysics","106","734646","0.0-106.0","613ab311df99420815403fe9","6213cb9223c054231b776ce7","4","","","","","1","7"
"null","","","null","","","","html-keyboard-response","107","735148","0.0-107.0","613ab311df99420815403fe9","6213cb9223c054231b776ce7","","","","","<p style=""color:darkgreen;font-size:24px;"">Correct :)</p>","",""
"2505","key","v","v","16.771493333332863","500","250","psychophysics","108","737659","0.0-108.0","613ab311df99420815403fe9","6213cb9223c054231b776ce7","4","","","","","1","4"
"null","","","null","","","","html-keyboard-response","109","738165","0.0-109.0","613ab311df99420815403fe9","6213cb9223c054231b776ce7","","","","","<p style=""color:darkgreen;font-size:24px;"">Correct :)</p>","",""
"2679","key","v","v","16.658254658385406","500","250","psychophysics","110","740850","0.0-110.0","613ab311df99420815403fe9","6213cb9223c054231b776ce7","4","","","","","1","2"
"null","","","null","","","","html-keyboard-response","111","741357","0.0-111.0","613ab311df99420815403fe9","6213cb9223c054231b776ce7","","","","","<p style=""color:darkgreen;font-size:24px;"">Correct :)</p>","",""
"2584","key","v","v","16.65900000000012","500","250","psychophysics","112","743948","0.0-112.0","613ab311df99420815403fe9","6213cb9223c054231b776ce7","4","","","","","1","2"
"null","","","null","","","","html-keyboard-response","113","744452","0.0-113.0","613ab311df99420815403fe9","6213cb9223c054231b776ce7","","","","","<p style=""color:darkgreen;font-size:24px;"">Correct :)</p>","",""
"2603","key","v","v","16.65849358974344","500","250","psychophysics","114","747060","0.0-114.0","613ab311df99420815403fe9","6213cb9223c054231b776ce7","4","","","","","1","1"
"null","","","null","","","","html-keyboard-response","115","747567","0.0-115.0","613ab311df99420815403fe9","6213cb9223c054231b776ce7","","","","","<p style=""color:darkgreen;font-size:24px;"">Correct :)</p>","",""
"2663","key","n","n","16.65853750000024","500","250","psychophysics","116","750237","0.0-116.0","613ab311df99420815403fe9","6213cb9223c054231b776ce7","4","","","","","1","9"
"null","","","null","","","","html-keyboard-response","117","750748","0.0-117.0","613ab311df99420815403fe9","6213cb9223c054231b776ce7","","","","","<p style=""color:darkgreen;font-size:24px;"">Correct :)</p>","",""
"2678","key","n","n","16.658198757763802","500","250","psychophysics","118","753432","0.0-118.0","613ab311df99420815403fe9","6213cb9223c054231b776ce7","4","","","","","1","8"
"null","","","null","","","","html-keyboard-response","119","753940","0.0-119.0","613ab311df99420815403fe9","6213cb9223c054231b776ce7","","","","","<p style=""color:darkgreen;font-size:24px;"">Correct :)</p>","",""
"2669","key","n","n","16.65985714285692","500","250","psychophysics","120","756616","0.0-120.0","613ab311df99420815403fe9","6213cb9223c054231b776ce7","4","","","","","1","9"
"null","","","null","","","","html-keyboard-response","121","757121","0.0-121.0","613ab311df99420815403fe9","6213cb9223c054231b776ce7","","","","","<p style=""color:darkgreen;font-size:24px;"">Correct :)</p>","",""
"2788","key","v","v","16.659166666667304","500","250","psychophysics","122","759915","0.0-122.0","613ab311df99420815403fe9","6213cb9223c054231b776ce7","4","","","","","1","4"
"null","","","null","","","","html-keyboard-response","123","760425","0.0-123.0","613ab311df99420815403fe9","6213cb9223c054231b776ce7","","","","","<p style=""color:darkgreen;font-size:24px;"">Correct :)</p>","",""
"2453","key","n","n","16.887280821918242","500","250","psychophysics","124","762884","0.0-124.0","613ab311df99420815403fe9","6213cb9223c054231b776ce7","4","","","","","1","9"
"null","","","null","","","","html-keyboard-response","125","763392","0.0-125.0","613ab311df99420815403fe9","6213cb9223c054231b776ce7","","","","","<p style=""color:darkgreen;font-size:24px;"">Correct :)</p>","",""
"2681","key","v","v","16.66005590062166","500","250","psychophysics","126","766079","0.0-126.0","613ab311df99420815403fe9","6213cb9223c054231b776ce7","4","","","","","1","2"
"null","","","null","","","","html-keyboard-response","127","766592","0.0-127.0","613ab311df99420815403fe9","6213cb9223c054231b776ce7","","","","","<p style=""color:darkgreen;font-size:24px;"">Correct :)</p>","",""
"2547","key","n","n","16.65853594771276","500","250","psychophysics","128","769149","0.0-128.0","613ab311df99420815403fe9","6213cb9223c054231b776ce7","4","","","","","1","8"
"null","","","null","","","","html-keyboard-response","129","769658","0.0-129.0","613ab311df99420815403fe9","6213cb9223c054231b776ce7","","","","","<p style=""color:darkgreen;font-size:24px;"">Correct :)</p>","",""
"2587","key","v","v","16.657948387096514","500","250","psychophysics","130","772250","0.0-130.0","613ab311df99420815403fe9","6213cb9223c054231b776ce7","4","","","","","1","2"
"null","","","null","","","","html-keyboard-response","131","772755","0.0-131.0","613ab311df99420815403fe9","6213cb9223c054231b776ce7","","","","","<p style=""color:darkgreen;font-size:24px;"">Correct :)</p>","",""
"2641","key","v","v","16.660879746836144","500","250","psychophysics","132","775401","0.0-132.0","613ab311df99420815403fe9","6213cb9223c054231b776ce7","4","","","","","1","4"
"null","","","null","","","","html-keyboard-response","133","775904","0.0-133.0","613ab311df99420815403fe9","6213cb9223c054231b776ce7","","","","","<p style=""color:darkgreen;font-size:24px;"">Correct :)</p>","",""
"2395","key","v","v","16.660895833333296","500","250","psychophysics","134","778307","0.0-134.0","613ab311df99420815403fe9","6213cb9223c054231b776ce7","4","","","","","1","4"
"null","","","null","","","","html-keyboard-response","135","778819","0.0-135.0","613ab311df99420815403fe9","6213cb9223c054231b776ce7","","","","","<p style=""color:darkgreen;font-size:24px;"">Correct :)</p>","",""
"2376","key","v","v","16.65783098591557","500","250","psychophysics","136","781198","0.0-136.0","613ab311df99420815403fe9","6213cb9223c054231b776ce7","4","","","","","1","4"
"null","","","null","","","","html-keyboard-response","137","781707","0.0-137.0","613ab311df99420815403fe9","6213cb9223c054231b776ce7","","","","","<p style=""color:darkgreen;font-size:24px;"">Correct :)</p>","",""
"2407","key","n","n","16.6584652777779","500","250","psychophysics","138","784119","0.0-138.0","613ab311df99420815403fe9","6213cb9223c054231b776ce7","4","","","","","1","9"
"null","","","null","","","","html-keyboard-response","139","784624","0.0-139.0","613ab311df99420815403fe9","6213cb9223c054231b776ce7","","","","","<p style=""color:darkgreen;font-size:24px;"">Correct :)</p>","",""
"2455","key","v","v","16.773095238095365","500","250","psychophysics","140","787085","0.0-140.0","613ab311df99420815403fe9","6213cb9223c054231b776ce7","4","","","","","1","1"
"null","","","null","","","","html-keyboard-response","141","787588","0.0-141.0","613ab311df99420815403fe9","6213cb9223c054231b776ce7","","","","","<p style=""color:darkgreen;font-size:24px;"">Correct :)</p>","",""
"2474","key","n","n","16.66077852348919","500","250","psychophysics","142","790066","0.0-142.0","613ab311df99420815403fe9","6213cb9223c054231b776ce7","4","","","","","1","9"
"null","","","null","","","","html-keyboard-response","143","790569","0.0-143.0","613ab311df99420815403fe9","6213cb9223c054231b776ce7","","","","","<p style=""color:darkgreen;font-size:24px;"">Correct :)</p>","",""
"2359","key","n","n","16.658316901408654","500","250","psychophysics","144","792934","0.0-144.0","613ab311df99420815403fe9","6213cb9223c054231b776ce7","4","","","","","1","9"
"null","","","null","","","","html-keyboard-response","145","793439","0.0-145.0","613ab311df99420815403fe9","6213cb9223c054231b776ce7","","","","","<p style=""color:darkgreen;font-size:24px;"">Correct :)</p>","",""
"2408","key","n","n","16.658489655172612","500","250","psychophysics","146","795853","0.0-146.0","613ab311df99420815403fe9","6213cb9223c054231b776ce7","4","","","","","1","9"
"null","","","null","","","","html-keyboard-response","147","796355","0.0-147.0","613ab311df99420815403fe9","6213cb9223c054231b776ce7","","","","","<p style=""color:darkgreen;font-size:24px;"">Correct :)</p>","",""
"2535","key","n","n","16.658666666666367","500","250","psychophysics","148","798895","0.0-148.0","613ab311df99420815403fe9","6213cb9223c054231b776ce7","4","","","","","1","8"
"null","","","null","","","","html-keyboard-response","149","799399","0.0-149.0","613ab311df99420815403fe9","6213cb9223c054231b776ce7","","","","","<p style=""color:darkgreen;font-size:24px;"">Correct :)</p>","",""
"2592","key","n","n","16.659000000000024","500","250","psychophysics","150","801998","0.0-150.0","613ab311df99420815403fe9","6213cb9223c054231b776ce7","4","","","","","1","6"
"null","","","null","","","","html-keyboard-response","151","802500","0.0-151.0","613ab311df99420815403fe9","6213cb9223c054231b776ce7","","","","","<p style=""color:darkgreen;font-size:24px;"">Correct :)</p>","",""
"2362","key","n","n","16.657063380281382","500","250","psychophysics","152","804868","0.0-152.0","613ab311df99420815403fe9","6213cb9223c054231b776ce7","4","","","","","1","9"
"null","","","null","","","","html-keyboard-response","153","805377","0.0-153.0","613ab311df99420815403fe9","6213cb9223c054231b776ce7","","","","","<p style=""color:darkgreen;font-size:24px;"">Correct :)</p>","",""
"2304","key","n","n","16.66139855072496","500","250","psychophysics","154","807686","0.0-154.0","613ab311df99420815403fe9","6213cb9223c054231b776ce7","4","","","","","1","8"
"null","","","null","","","","html-keyboard-response","155","808188","0.0-155.0","613ab311df99420815403fe9","6213cb9223c054231b776ce7","","","","","<p style=""color:darkgreen;font-size:24px;"">Correct :)</p>","",""
"2383","key","n","n","16.65718881118883","500","250","psychophysics","156","810577","0.0-156.0","613ab311df99420815403fe9","6213cb9223c054231b776ce7","4","","","","","1","7"
"null","","","null","","","","html-keyboard-response","157","811080","0.0-157.0","613ab311df99420815403fe9","6213cb9223c054231b776ce7","","","","","<p style=""color:darkgreen;font-size:24px;"">Correct :)</p>","",""
"2560","key","n","n","16.65957792207762","500","250","psychophysics","158","813648","0.0-158.0","613ab311df99420815403fe9","6213cb9223c054231b776ce7","4","","","","","1","8"
"null","","","null","","","","html-keyboard-response","159","814152","0.0-159.0","613ab311df99420815403fe9","6213cb9223c054231b776ce7","","","","","<p style=""color:darkgreen;font-size:24px;"">Correct :)</p>","",""
"2962","key","v","v","16.659471910112025","500","250","psychophysics","160","817120","0.0-160.0","613ab311df99420815403fe9","6213cb9223c054231b776ce7","4","","","","","1","2"
"null","","","null","","","","html-keyboard-response","161","817630","0.0-161.0","613ab311df99420815403fe9","6213cb9223c054231b776ce7","","","","","<p style=""color:darkgreen;font-size:24px;"">Correct :)</p>","",""
"2458","key","v","v","16.660074324324267","500","250","psychophysics","162","820094","0.0-162.0","613ab311df99420815403fe9","6213cb9223c054231b776ce7","4","","","","","1","3"
"null","","","null","","","","html-keyboard-response","163","820618","0.0-163.0","613ab311df99420815403fe9","6213cb9223c054231b776ce7","","","","","<p style=""color:darkgreen;font-size:24px;"">Correct :)</p>","",""
"2439","key","n","n","16.659684931506142","500","250","psychophysics","164","823063","0.0-164.0","613ab311df99420815403fe9","6213cb9223c054231b776ce7","4","","","","","1","7"
"null","","","null","","","","html-keyboard-response","165","823569","0.0-165.0","613ab311df99420815403fe9","6213cb9223c054231b776ce7","","","","","<p style=""color:darkgreen;font-size:24px;"">Correct :)</p>","",""
"2495","key","v","v","16.661159999999995","500","250","psychophysics","166","826069","0.0-166.0","613ab311df99420815403fe9","6213cb9223c054231b776ce7","4","","","","","1","2"
"null","","","null","","","","html-keyboard-response","167","826574","0.0-167.0","613ab311df99420815403fe9","6213cb9223c054231b776ce7","","","","","<p style=""color:darkgreen;font-size:24px;"">Correct :)</p>","",""
"2569","key","n","n","16.661206451612674","500","250","psychophysics","168","829149","0.0-168.0","613ab311df99420815403fe9","6213cb9223c054231b776ce7","4","","","","","1","8"
"null","","","null","","","","html-keyboard-response","169","829659","0.0-169.0","613ab311df99420815403fe9","6213cb9223c054231b776ce7","","","","","<p style=""color:darkgreen;font-size:24px;"">Correct :)</p>","",""
"2445","key","v","v","16.658304054054078","500","250","psychophysics","170","832114","0.0-170.0","613ab311df99420815403fe9","6213cb9223c054231b776ce7","4","","","","","1","4"
"null","","","null","","","","html-keyboard-response","171","832620","0.0-171.0","613ab311df99420815403fe9","6213cb9223c054231b776ce7","","","","","<p style=""color:darkgreen;font-size:24px;"">Correct :)</p>","",""
"2498","key","v","v","16.882298013244736","500","250","psychophysics","172","835165","0.0-172.0","613ab311df99420815403fe9","6213cb9223c054231b776ce7","4","","","","","1","1"
"null","","","null","","","","html-keyboard-response","173","835679","0.0-173.0","613ab311df99420815403fe9","6213cb9223c054231b776ce7","","","","","<p style=""color:darkgreen;font-size:24px;"">Correct :)</p>","",""
"2504","key","v","v","16.658746666666897","500","250","psychophysics","174","838190","0.0-174.0","613ab311df99420815403fe9","6213cb9223c054231b776ce7","4","","","","","1","4"
"null","","","null","","","","html-keyboard-response","175","838700","0.0-175.0","613ab311df99420815403fe9","6213cb9223c054231b776ce7","","","","","<p style=""color:darkgreen;font-size:24px;"">Correct :)</p>","",""
"2382","key","v","v","16.660482517482674","500","250","psychophysics","176","841087","0.0-176.0","613ab311df99420815403fe9","6213cb9223c054231b776ce7","4","","","","","1","4"
"null","","","null","","","","html-keyboard-response","177","841591","0.0-177.0","613ab311df99420815403fe9","6213cb9223c054231b776ce7","","","","","<p style=""color:darkgreen;font-size:24px;"">Correct :)</p>","",""
"2576","key","n","n","16.660980645161604","500","250","psychophysics","178","844174","0.0-178.0","613ab311df99420815403fe9","6213cb9223c054231b776ce7","4","","","","","1","8"
"null","","","null","","","","html-keyboard-response","179","844683","0.0-179.0","613ab311df99420815403fe9","6213cb9223c054231b776ce7","","","","","<p style=""color:darkgreen;font-size:24px;"">Correct :)</p>","",""
"2483","key","n","n","16.660646666667112","500","250","psychophysics","180","847174","0.0-180.0","613ab311df99420815403fe9","6213cb9223c054231b776ce7","4","","","","","1","9"
"null","","","null","","","","html-keyboard-response","181","847677","0.0-181.0","613ab311df99420815403fe9","6213cb9223c054231b776ce7","","","","","<p style=""color:darkgreen;font-size:24px;"">Correct :)</p>","",""
"2525","key","v","v","16.659282894736908","500","250","psychophysics","182","850208","0.0-182.0","613ab311df99420815403fe9","6213cb9223c054231b776ce7","4","","","","","1","3"
"null","","","null","","","","html-keyboard-response","183","850716","0.0-183.0","613ab311df99420815403fe9","6213cb9223c054231b776ce7","","","","","<p style=""color:darkgreen;font-size:24px;"">Correct :)</p>","",""
"2407","key","n","n","16.658117241379482","500","250","psychophysics","184","853128","0.0-184.0","613ab311df99420815403fe9","6213cb9223c054231b776ce7","4","","","","","1","8"
"null","","","null","","","","html-keyboard-response","185","853640","0.0-185.0","613ab311df99420815403fe9","6213cb9223c054231b776ce7","","","","","<p style=""color:darkgreen;font-size:24px;"">Correct :)</p>","",""
"2546","key","v","v","16.65773202614323","500","250","psychophysics","186","856192","0.0-186.0","613ab311df99420815403fe9","6213cb9223c054231b776ce7","4","","","","","1","3"
"null","","","null","","","","html-keyboard-response","187","856699","0.0-187.0","613ab311df99420815403fe9","6213cb9223c054231b776ce7","","","","","<p style=""color:darkgreen;font-size:24px;"">Correct :)</p>","",""
"2470","key","v","v","16.772523809523722","500","250","psychophysics","188","859174","0.0-188.0","613ab311df99420815403fe9","6213cb9223c054231b776ce7","4","","","","","1","1"
"null","","","null","","","","html-keyboard-response","189","859676","0.0-189.0","613ab311df99420815403fe9","6213cb9223c054231b776ce7","","","","","<p style=""color:darkgreen;font-size:24px;"">Correct :)</p>","",""
"2453","key","n","n","16.659209459459227","500","250","psychophysics","190","862135","0.0-190.0","613ab311df99420815403fe9","6213cb9223c054231b776ce7","4","","","","","1","9"
"null","","","null","","","","html-keyboard-response","191","862639","0.0-191.0","613ab311df99420815403fe9","6213cb9223c054231b776ce7","","","","","<p style=""color:darkgreen;font-size:24px;"">Correct :)</p>","",""
"2388","key","v","v","16.657622377622637","500","250","psychophysics","192","865033","0.0-192.0","613ab311df99420815403fe9","6213cb9223c054231b776ce7","4","","","","","1","3"
"null","","","null","","","","html-keyboard-response","193","865540","0.0-193.0","613ab311df99420815403fe9","6213cb9223c054231b776ce7","","","","","<p style=""color:darkgreen;font-size:24px;"">Correct :)</p>","",""
"145192","","","v","","","","html-keyboard-response","194","1010734","0.0-194.0","613ab311df99420815403fe9","6213cb9223c054231b776ce7","","","","","<p> Ok, now we are going present the same digits as before.  Your job is to say whether the digit is even or odd  If the digit is odd, press to v key; if it is even, press the n key. We are going to do 50 of these.  </p>  <br><br>  Ready? (press v or n)","",""
"2839","key","n","n","16.65610526315732","500","250","psychophysics","195","1013583","0.0-195.0","613ab311df99420815403fe9","6213cb9223c054231b776ce7","5","","","","","0","4"
"null","","","null","","","","html-keyboard-response","196","1014090","0.0-196.0","613ab311df99420815403fe9","6213cb9223c054231b776ce7","","","","","<p style=""color:darkgreen;font-size:24px;"">Correct :)</p>","",""
"2452","key","v","v","16.657716216216638","500","250","psychophysics","197","1016548","0.0-197.0","613ab311df99420815403fe9","6213cb9223c054231b776ce7","5","","","","","0","9"
"null","","","null","","","","html-keyboard-response","198","1017052","0.0-198.0","613ab311df99420815403fe9","6213cb9223c054231b776ce7","","","","","<p style=""color:darkgreen;font-size:24px;"">Correct :)</p>","",""
"2471","key","v","v","16.66006040268409","500","250","psychophysics","199","1019529","0.0-199.0","613ab311df99420815403fe9","6213cb9223c054231b776ce7","5","","","","","0","1"
"null","","","null","","","","html-keyboard-response","200","1020041","0.0-200.0","613ab311df99420815403fe9","6213cb9223c054231b776ce7","","","","","<p style=""color:darkgreen;font-size:24px;"">Correct :)</p>","",""
"2476","key","v","v","16.773202702702758","500","250","psychophysics","201","1022523","0.0-201.0","613ab311df99420815403fe9","6213cb9223c054231b776ce7","5","","","","","0","1"
"null","","","null","","","","html-keyboard-response","202","1023030","0.0-202.0","613ab311df99420815403fe9","6213cb9223c054231b776ce7","","","","","<p style=""color:darkgreen;font-size:24px;"">Correct :)</p>","",""
"2627","key","n","n","16.656834394904596","500","250","psychophysics","203","1025662","0.0-203.0","613ab311df99420815403fe9","6213cb9223c054231b776ce7","5","","","","","0","4"
"null","","","null","","","","html-keyboard-response","204","1026169","0.0-204.0","613ab311df99420815403fe9","6213cb9223c054231b776ce7","","","","","<p style=""color:darkgreen;font-size:24px;"">Correct :)</p>","",""
"2665","key","v","v","16.868086956521665","500","250","psychophysics","205","1028877","0.0-205.0","613ab311df99420815403fe9","6213cb9223c054231b776ce7","5","","","","","0","3"
"null","","","null","","","","html-keyboard-response","206","1029381","0.0-206.0","613ab311df99420815403fe9","6213cb9223c054231b776ce7","","","","","<p style=""color:darkgreen;font-size:24px;"">Correct :)</p>","",""
"2603","key","v","v","16.658070063694517","500","250","psychophysics","207","1031991","0.0-207.0","613ab311df99420815403fe9","6213cb9223c054231b776ce7","5","","","","","0","3"
"null","","","null","","","","html-keyboard-response","208","1032496","0.0-208.0","613ab311df99420815403fe9","6213cb9223c054231b776ce7","","","","","<p style=""color:darkgreen;font-size:24px;"">Correct :)</p>","",""
"2565","key","n","n","16.657824675325006","500","250","psychophysics","209","1035067","0.0-209.0","613ab311df99420815403fe9","6213cb9223c054231b776ce7","5","","","","","0","6"
"null","","","null","","","","html-keyboard-response","210","1035572","0.0-210.0","613ab311df99420815403fe9","6213cb9223c054231b776ce7","","","","","<p style=""color:darkgreen;font-size:24px;"">Correct :)</p>","",""
"2619","key","n","n","16.660171974522274","500","250","psychophysics","211","1038196","0.0-211.0","613ab311df99420815403fe9","6213cb9223c054231b776ce7","5","","","","","0","2"
"null","","","null","","","","html-keyboard-response","212","1038699","0.0-212.0","613ab311df99420815403fe9","6213cb9223c054231b776ce7","","","","","<p style=""color:darkgreen;font-size:24px;"">Correct :)</p>","",""
"2398","key","v","v","16.659020689654902","500","250","psychophysics","213","1041102","0.0-213.0","613ab311df99420815403fe9","6213cb9223c054231b776ce7","5","","","","","0","9"
"null","","","null","","","","html-keyboard-response","214","1041605","0.0-214.0","613ab311df99420815403fe9","6213cb9223c054231b776ce7","","","","","<p style=""color:darkgreen;font-size:24px;"">Correct :)</p>","",""
"2428","key","n","n","16.658910958904116","500","250","psychophysics","215","1044038","0.0-215.0","613ab311df99420815403fe9","6213cb9223c054231b776ce7","5","","","","","0","8"
"null","","","null","","","","html-keyboard-response","216","1044542","0.0-216.0","613ab311df99420815403fe9","6213cb9223c054231b776ce7","","","","","<p style=""color:darkgreen;font-size:24px;"">Correct :)</p>","",""
"2486","key","v","v","16.65752666666638","500","250","psychophysics","217","1047034","0.0-217.0","613ab311df99420815403fe9","6213cb9223c054231b776ce7","5","","","","","0","3"
"null","","","null","","","","html-keyboard-response","218","1047537","0.0-218.0","613ab311df99420815403fe9","6213cb9223c054231b776ce7","","","","","<p style=""color:darkgreen;font-size:24px;"">Correct :)</p>","",""
"2473","key","n","n","16.658214765100823","500","250","psychophysics","219","1050016","0.0-219.0","613ab311df99420815403fe9","6213cb9223c054231b776ce7","5","","","","","0","4"
"null","","","null","","","","html-keyboard-response","220","1050529","0.0-220.0","613ab311df99420815403fe9","6213cb9223c054231b776ce7","","","","","<p style=""color:darkgreen;font-size:24px;"">Correct :)</p>","",""
"2656","key","v","v","16.661025157233453","500","250","psychophysics","221","1053193","0.0-221.0","613ab311df99420815403fe9","6213cb9223c054231b776ce7","5","","","","","0","7"
"null","","","null","","","","html-keyboard-response","222","1053703","0.0-222.0","613ab311df99420815403fe9","6213cb9223c054231b776ce7","","","","","<p style=""color:darkgreen;font-size:24px;"">Correct :)</p>","",""
"2669","key","n","n","16.65780745341691","500","250","psychophysics","223","1056379","0.0-223.0","613ab311df99420815403fe9","6213cb9223c054231b776ce7","5","","","","","0","2"
"null","","","null","","","","html-keyboard-response","224","1056890","0.0-224.0","613ab311df99420815403fe9","6213cb9223c054231b776ce7","","","","","<p style=""color:darkgreen;font-size:24px;"">Correct :)</p>","",""
"2605","key","v","v","16.65778343949117","500","250","psychophysics","225","1059498","0.0-225.0","613ab311df99420815403fe9","6213cb9223c054231b776ce7","5","","","","","0","9"
"null","","","null","","","","html-keyboard-response","226","1060001","0.0-226.0","613ab311df99420815403fe9","6213cb9223c054231b776ce7","","","","","<p style=""color:darkgreen;font-size:24px;"">Correct :)</p>","",""
"2639","key","n","n","16.660106918238597","500","250","psychophysics","227","1062646","0.0-227.0","613ab311df99420815403fe9","6213cb9223c054231b776ce7","5","","","","","0","8"
"null","","","null","","","","html-keyboard-response","228","1063157","0.0-228.0","613ab311df99420815403fe9","6213cb9223c054231b776ce7","","","","","<p style=""color:darkgreen;font-size:24px;"">Correct :)</p>","",""
"2565","key","n","n","16.65966233766378","500","250","psychophysics","229","1065728","0.0-229.0","613ab311df99420815403fe9","6213cb9223c054231b776ce7","5","","","","","0","4"
"null","","","null","","","","html-keyboard-response","230","1066231","0.0-230.0","613ab311df99420815403fe9","6213cb9223c054231b776ce7","","","","","<p style=""color:darkgreen;font-size:24px;"">Correct :)</p>","",""
"2624","key","v","v","16.658386075948776","500","250","psychophysics","231","1068860","0.0-231.0","613ab311df99420815403fe9","6213cb9223c054231b776ce7","5","","","","","0","3"
"null","","","null","","","","html-keyboard-response","232","1069363","0.0-232.0","613ab311df99420815403fe9","6213cb9223c054231b776ce7","","","","","<p style=""color:darkgreen;font-size:24px;"">Correct :)</p>","",""
"2657","key","n","n","16.658618749999732","500","250","psychophysics","233","1072026","0.0-233.0","613ab311df99420815403fe9","6213cb9223c054231b776ce7","5","","","","","0","7"
"null","","","null","","","","html-keyboard-response","234","1072533","0.0-234.0","613ab311df99420815403fe9","6213cb9223c054231b776ce7","","","","","<p style=""color:red;font-size:24px;"">Error :(</p>","",""
"2531","key","n","n","16.8785562913908","500","250","psychophysics","235","1075070","0.0-235.0","613ab311df99420815403fe9","6213cb9223c054231b776ce7","5","","","","","0","6"
"null","","","null","","","","html-keyboard-response","236","1075574","0.0-236.0","613ab311df99420815403fe9","6213cb9223c054231b776ce7","","","","","<p style=""color:darkgreen;font-size:24px;"">Correct :)</p>","",""
"2469","key","n","n","16.6612229729732","500","250","psychophysics","237","1078048","0.0-237.0","613ab311df99420815403fe9","6213cb9223c054231b776ce7","5","","","","","0","4"
"null","","","null","","","","html-keyboard-response","238","1078557","0.0-238.0","613ab311df99420815403fe9","6213cb9223c054231b776ce7","","","","","<p style=""color:darkgreen;font-size:24px;"">Correct :)</p>","",""
"2884","key","v","v","16.75755232558207","500","250","psychophysics","239","1081447","0.0-239.0","613ab311df99420815403fe9","6213cb9223c054231b776ce7","5","","","","","0","1"
"null","","","null","","","","html-keyboard-response","240","1081953","0.0-240.0","613ab311df99420815403fe9","6213cb9223c054231b776ce7","","","","","<p style=""color:darkgreen;font-size:24px;"">Correct :)</p>","",""
"2590","key","n","n","16.656794871794634","500","250","psychophysics","241","1084550","0.0-241.0","613ab311df99420815403fe9","6213cb9223c054231b776ce7","5","","","","","0","2"
"null","","","null","","","","html-keyboard-response","242","1085061","0.0-242.0","613ab311df99420815403fe9","6213cb9223c054231b776ce7","","","","","<p style=""color:darkgreen;font-size:24px;"">Correct :)</p>","",""
"2620","key","n","n","16.766025477707398","500","250","psychophysics","243","1087687","0.0-243.0","613ab311df99420815403fe9","6213cb9223c054231b776ce7","5","","","","","0","4"
"null","","","null","","","","html-keyboard-response","244","1088192","0.0-244.0","613ab311df99420815403fe9","6213cb9223c054231b776ce7","","","","","<p style=""color:darkgreen;font-size:24px;"">Correct :)</p>","",""
"2478","key","v","v","16.658456375839613","500","250","psychophysics","245","1090675","0.0-245.0","613ab311df99420815403fe9","6213cb9223c054231b776ce7","5","","","","","0","8"
"null","","","null","","","","html-keyboard-response","246","1091189","0.0-246.0","613ab311df99420815403fe9","6213cb9223c054231b776ce7","","","","","<p style=""color:red;font-size:24px;"">Error :(</p>","",""
"2518","key","n","n","16.660447368421284","500","250","psychophysics","247","1093713","0.0-247.0","613ab311df99420815403fe9","6213cb9223c054231b776ce7","5","","","","","0","6"
"null","","","null","","","","html-keyboard-response","248","1094224","0.0-248.0","613ab311df99420815403fe9","6213cb9223c054231b776ce7","","","","","<p style=""color:darkgreen;font-size:24px;"">Correct :)</p>","",""
"2545","key","n","n","16.768967105264124","500","250","psychophysics","249","1096775","0.0-249.0","613ab311df99420815403fe9","6213cb9223c054231b776ce7","5","","","","","0","2"
"null","","","null","","","","html-keyboard-response","250","1097279","0.0-250.0","613ab311df99420815403fe9","6213cb9223c054231b776ce7","","","","","<p style=""color:darkgreen;font-size:24px;"">Correct :)</p>","",""
"2441","key","n","n","16.658809523809335","500","250","psychophysics","251","1099727","0.0-251.0","613ab311df99420815403fe9","6213cb9223c054231b776ce7","5","","","","","0","8"
"null","","","null","","","","html-keyboard-response","252","1100229","0.0-252.0","613ab311df99420815403fe9","6213cb9223c054231b776ce7","","","","","<p style=""color:darkgreen;font-size:24px;"">Correct :)</p>","",""
"2409","key","n","n","16.659489655173545","500","250","psychophysics","253","1102645","0.0-253.0","613ab311df99420815403fe9","6213cb9223c054231b776ce7","5","","","","","0","6"
"null","","","null","","","","html-keyboard-response","254","1103155","0.0-254.0","613ab311df99420815403fe9","6213cb9223c054231b776ce7","","","","","<p style=""color:darkgreen;font-size:24px;"">Correct :)</p>","",""
"2571","key","v","v","16.66059090909034","500","250","psychophysics","255","1105731","0.0-255.0","613ab311df99420815403fe9","6213cb9223c054231b776ce7","5","","","","","0","9"
"null","","","null","","","","html-keyboard-response","256","1106237","0.0-256.0","613ab311df99420815403fe9","6213cb9223c054231b776ce7","","","","","<p style=""color:darkgreen;font-size:24px;"">Correct :)</p>","",""
"2386","key","v","v","16.661447552447957","500","250","psychophysics","257","1108629","0.0-257.0","613ab311df99420815403fe9","6213cb9223c054231b776ce7","5","","","","","0","7"
"null","","","null","","","","html-keyboard-response","258","1109136","0.0-258.0","613ab311df99420815403fe9","6213cb9223c054231b776ce7","","","","","<p style=""color:darkgreen;font-size:24px;"">Correct :)</p>","",""
"2511","key","n","n","16.657960264900368","500","250","psychophysics","259","1111653","0.0-259.0","613ab311df99420815403fe9","6213cb9223c054231b776ce7","5","","","","","0","3"
"null","","","null","","","","html-keyboard-response","260","1112158","0.0-260.0","613ab311df99420815403fe9","6213cb9223c054231b776ce7","","","","","<p style=""color:red;font-size:24px;"">Error :(</p>","",""
"2372","key","n","n","16.658895104895574","500","250","psychophysics","261","1114536","0.0-261.0","613ab311df99420815403fe9","6213cb9223c054231b776ce7","5","","","","","0","6"
"null","","","null","","","","html-keyboard-response","262","1115046","0.0-262.0","613ab311df99420815403fe9","6213cb9223c054231b776ce7","","","","","<p style=""color:darkgreen;font-size:24px;"">Correct :)</p>","",""
"2501","key","n","n","16.65902666666545","500","250","psychophysics","263","1117552","0.0-263.0","613ab311df99420815403fe9","6213cb9223c054231b776ce7","5","","","","","0","6"
"null","","","null","","","","html-keyboard-response","264","1118054","0.0-264.0","613ab311df99420815403fe9","6213cb9223c054231b776ce7","","","","","<p style=""color:darkgreen;font-size:24px;"">Correct :)</p>","",""
"2566","key","n","n","16.66074025973998","500","250","psychophysics","265","1120624","0.0-265.0","613ab311df99420815403fe9","6213cb9223c054231b776ce7","5","","","","","0","8"
"null","","","null","","","","html-keyboard-response","266","1121126","0.0-266.0","613ab311df99420815403fe9","6213cb9223c054231b776ce7","","","","","<p style=""color:darkgreen;font-size:24px;"">Correct :)</p>","",""
"2370","key","n","n","16.659405594405072","500","250","psychophysics","267","1123503","0.0-267.0","613ab311df99420815403fe9","6213cb9223c054231b776ce7","5","","","","","0","8"
"null","","","null","","","","html-keyboard-response","268","1124010","0.0-268.0","613ab311df99420815403fe9","6213cb9223c054231b776ce7","","","","","<p style=""color:darkgreen;font-size:24px;"">Correct :)</p>","",""
"2416","key","v","v","16.659315068493214","500","250","psychophysics","269","1126432","0.0-269.0","613ab311df99420815403fe9","6213cb9223c054231b776ce7","5","","","","","0","3"
"null","","","null","","","","html-keyboard-response","270","1126943","0.0-270.0","613ab311df99420815403fe9","6213cb9223c054231b776ce7","","","","","<p style=""color:darkgreen;font-size:24px;"">Correct :)</p>","",""
"2429","key","v","v","16.77430769230786","500","250","psychophysics","271","1129375","0.0-271.0","613ab311df99420815403fe9","6213cb9223c054231b776ce7","5","","","","","0","9"
"null","","","null","","","","html-keyboard-response","272","1129881","0.0-272.0","613ab311df99420815403fe9","6213cb9223c054231b776ce7","","","","","<p style=""color:darkgreen;font-size:24px;"">Correct :)</p>","",""
"2393","key","v","v","16.65705555555501","500","250","psychophysics","273","1132280","0.0-273.0","613ab311df99420815403fe9","6213cb9223c054231b776ce7","5","","","","","0","4"
"null","","","null","","","","html-keyboard-response","274","1132792","0.0-274.0","613ab311df99420815403fe9","6213cb9223c054231b776ce7","","","","","<p style=""color:red;font-size:24px;"">Error :(</p>","",""
"2613","key","v","v","16.659121019107285","500","250","psychophysics","275","1135411","0.0-275.0","613ab311df99420815403fe9","6213cb9223c054231b776ce7","5","","","","","0","7"
"null","","","null","","","","html-keyboard-response","276","1135917","0.0-276.0","613ab311df99420815403fe9","6213cb9223c054231b776ce7","","","","","<p style=""color:darkgreen;font-size:24px;"">Correct :)</p>","",""
"2485","key","n","n","16.662213333334464","500","250","psychophysics","277","1138409","0.0-277.0","613ab311df99420815403fe9","6213cb9223c054231b776ce7","5","","","","","0","8"
"null","","","null","","","","html-keyboard-response","278","1138912","0.0-278.0","613ab311df99420815403fe9","6213cb9223c054231b776ce7","","","","","<p style=""color:darkgreen;font-size:24px;"">Correct :)</p>","",""
"2800","key","v","v","16.659392857142457","500","250","psychophysics","279","1141717","0.0-279.0","613ab311df99420815403fe9","6213cb9223c054231b776ce7","5","","","","","0","3"
"null","","","null","","","","html-keyboard-response","280","1142219","0.0-280.0","613ab311df99420815403fe9","6213cb9223c054231b776ce7","","","","","<p style=""color:darkgreen;font-size:24px;"">Correct :)</p>","",""
"2587","key","v","v","16.767238709677553","500","250","psychophysics","281","1144810","0.0-281.0","613ab311df99420815403fe9","6213cb9223c054231b776ce7","5","","","","","0","9"
"null","","","null","","","","html-keyboard-response","282","1145312","0.0-282.0","613ab311df99420815403fe9","6213cb9223c054231b776ce7","","","","","<p style=""color:darkgreen;font-size:24px;"">Correct :)</p>","",""
"2494","key","n","n","16.658953333332512","500","250","psychophysics","283","1147812","0.0-283.0","613ab311df99420815403fe9","6213cb9223c054231b776ce7","5","","","","","0","6"
"null","","","null","","","","html-keyboard-response","284","1148324","0.0-284.0","613ab311df99420815403fe9","6213cb9223c054231b776ce7","","","","","<p style=""color:darkgreen;font-size:24px;"">Correct :)</p>","",""
"2507","key","n","n","16.658549668873345","500","250","psychophysics","285","1150837","0.0-285.0","613ab311df99420815403fe9","6213cb9223c054231b776ce7","5","","","","","0","8"
"null","","","null","","","","html-keyboard-response","286","1151340","0.0-286.0","613ab311df99420815403fe9","6213cb9223c054231b776ce7","","","","","<p style=""color:darkgreen;font-size:24px;"">Correct :)</p>","",""
"2615","key","v","v","16.65854777070059","500","250","psychophysics","287","1153960","0.0-287.0","613ab311df99420815403fe9","6213cb9223c054231b776ce7","5","","","","","0","1"
"null","","","null","","","","html-keyboard-response","288","1154469","0.0-288.0","613ab311df99420815403fe9","6213cb9223c054231b776ce7","","","","","<p style=""color:darkgreen;font-size:24px;"">Correct :)</p>","",""
"2438","key","v","v","16.772216216215828","500","250","psychophysics","289","1156952","0.0-289.0","613ab311df99420815403fe9","6213cb9223c054231b776ce7","5","","","","","0","1"
"null","","","null","","","","html-keyboard-response","290","1157459","0.0-290.0","613ab311df99420815403fe9","6213cb9223c054231b776ce7","","","","","<p style=""color:darkgreen;font-size:24px;"">Correct :)</p>","",""
"2459","key","n","n","16.658000000000527","500","250","psychophysics","291","1159925","0.0-291.0","613ab311df99420815403fe9","6213cb9223c054231b776ce7","5","","","","","0","6"
"null","","","null","","","","html-keyboard-response","292","1160435","0.0-292.0","613ab311df99420815403fe9","6213cb9223c054231b776ce7","","","","","<p style=""color:darkgreen;font-size:24px;"">Correct :)</p>","",""
"2382","key","n","n","16.65811888111749","500","250","psychophysics","293","1162823","0.0-293.0","613ab311df99420815403fe9","6213cb9223c054231b776ce7","5","","","","","0","2"
"null","","","null","","","","html-keyboard-response","294","1163328","0.0-294.0","613ab311df99420815403fe9","6213cb9223c054231b776ce7","","","","","<p style=""color:darkgreen;font-size:24px;"">Correct :)</p>","",""
"22650","","","v","","","","html-keyboard-response","295","1185979","0.0-295.0","613ab311df99420815403fe9","6213cb9223c054231b776ce7","","","","","<p> Here, the tasks are going to switch.  For some trials, your job is to decide if the digit is less than or greater than 5.  For others, it is to decide if the digit is even or odd.  You will be told which type of trial the current one is.  But, pay attention, the type of trial changes too.  We are going to do 50 of these.  </p>  <br><br>  Ready? (press v or n)","",""
"2597","key","v","v","16.666987179487478","500","250","psychophysics","296","1188582","0.0-296.0","613ab311df99420815403fe9","6213cb9223c054231b776ce7","6","","","","","1","4"
"null","","","null","","","","html-keyboard-response","297","1189088","0.0-297.0","613ab311df99420815403fe9","6213cb9223c054231b776ce7","","","","","<p style=""color:darkgreen;font-size:24px;"">Correct :)</p>","",""
"2454","key","n","n","16.65768707482949","500","250","psychophysics","298","1191548","0.0-298.0","613ab311df99420815403fe9","6213cb9223c054231b776ce7","6","","","","","0","8"
"null","","","null","","","","html-keyboard-response","299","1192050","0.0-299.0","613ab311df99420815403fe9","6213cb9223c054231b776ce7","","","","","<p style=""color:darkgreen;font-size:24px;"">Correct :)</p>","",""
"2493","key","n","n","16.65933333333271","500","250","psychophysics","300","1194551","0.0-300.0","613ab311df99420815403fe9","6213cb9223c054231b776ce7","6","","","","","1","6"
"null","","","null","","","","html-keyboard-response","301","1195060","0.0-301.0","613ab311df99420815403fe9","6213cb9223c054231b776ce7","","","","","<p style=""color:darkgreen;font-size:24px;"">Correct :)</p>","",""
"2909","key","v","v","16.65933142857094","500","250","psychophysics","302","1197976","0.0-302.0","613ab311df99420815403fe9","6213cb9223c054231b776ce7","6","","","","","1","4"
"null","","","null","","","","html-keyboard-response","303","1198480","0.0-303.0","613ab311df99420815403fe9","6213cb9223c054231b776ce7","","","","","<p style=""color:darkgreen;font-size:24px;"">Correct :)</p>","",""
"2811","key","n","n","16.660177514791908","500","250","psychophysics","304","1201297","0.0-304.0","613ab311df99420815403fe9","6213cb9223c054231b776ce7","6","","","","","0","6"
"null","","","null","","","","html-keyboard-response","305","1201809","0.0-305.0","613ab311df99420815403fe9","6213cb9223c054231b776ce7","","","","","<p style=""color:darkgreen;font-size:24px;"">Correct :)</p>","",""
"3123","key","n","n","16.6597311827955","500","250","psychophysics","306","1204935","0.0-306.0","613ab311df99420815403fe9","6213cb9223c054231b776ce7","6","","","","","1","9"
"null","","","null","","","","html-keyboard-response","307","1205446","0.0-307.0","613ab311df99420815403fe9","6213cb9223c054231b776ce7","","","","","<p style=""color:darkgreen;font-size:24px;"">Correct :)</p>","",""
"2804","key","n","n","16.756158823529532","500","250","psychophysics","308","1208295","0.0-308.0","613ab311df99420815403fe9","6213cb9223c054231b776ce7","6","","","","","1","8"
"null","","","null","","","","html-keyboard-response","309","1208807","0.0-309.0","613ab311df99420815403fe9","6213cb9223c054231b776ce7","","","","","<p style=""color:darkgreen;font-size:24px;"">Correct :)</p>","",""
"2480","key","n","n","16.66119463087197","500","250","psychophysics","310","1211293","0.0-310.0","613ab311df99420815403fe9","6213cb9223c054231b776ce7","6","","","","","0","4"
"null","","","null","","","","html-keyboard-response","311","1211802","0.0-311.0","613ab311df99420815403fe9","6213cb9223c054231b776ce7","","","","","<p style=""color:darkgreen;font-size:24px;"">Correct :)</p>","",""
"2787","key","n","n","16.658994047619803","500","250","psychophysics","312","1214594","0.0-312.0","613ab311df99420815403fe9","6213cb9223c054231b776ce7","6","","","","","1","6"
"null","","","null","","","","html-keyboard-response","313","1215100","0.0-313.0","613ab311df99420815403fe9","6213cb9223c054231b776ce7","","","","","<p style=""color:darkgreen;font-size:24px;"">Correct :)</p>","",""
"2450","key","n","n","16.660412162161634","500","250","psychophysics","314","1217557","0.0-314.0","613ab311df99420815403fe9","6213cb9223c054231b776ce7","6","","","","","1","8"
"null","","","null","","","","html-keyboard-response","315","1218073","0.0-315.0","613ab311df99420815403fe9","6213cb9223c054231b776ce7","","","","","<p style=""color:darkgreen;font-size:24px;"">Correct :)</p>","",""
"2471","key","n","n","16.65959459459535","500","250","psychophysics","316","1220549","0.0-316.0","613ab311df99420815403fe9","6213cb9223c054231b776ce7","6","","","","","0","6"
"null","","","null","","","","html-keyboard-response","317","1221056","0.0-317.0","613ab311df99420815403fe9","6213cb9223c054231b776ce7","","","","","<p style=""color:darkgreen;font-size:24px;"">Correct :)</p>","",""
"2478","key","v","v","16.658020134227687","500","250","psychophysics","318","1223539","0.0-318.0","613ab311df99420815403fe9","6213cb9223c054231b776ce7","6","","","","","0","7"
"null","","","null","","","","html-keyboard-response","319","1224044","0.0-319.0","613ab311df99420815403fe9","6213cb9223c054231b776ce7","","","","","<p style=""color:darkgreen;font-size:24px;"">Correct :)</p>","",""
"2503","key","v","v","16.659145695363968","500","250","psychophysics","320","1226553","0.0-320.0","613ab311df99420815403fe9","6213cb9223c054231b776ce7","6","","","","","0","9"
"null","","","null","","","","html-keyboard-response","321","1227058","0.0-321.0","613ab311df99420815403fe9","6213cb9223c054231b776ce7","","","","","<p style=""color:darkgreen;font-size:24px;"">Correct :)</p>","",""
"2500","key","n","n","16.659706666666704","500","250","psychophysics","322","1229564","0.0-322.0","613ab311df99420815403fe9","6213cb9223c054231b776ce7","6","","","","","0","8"
"null","","","null","","","","html-keyboard-response","323","1230074","0.0-323.0","613ab311df99420815403fe9","6213cb9223c054231b776ce7","","","","","<p style=""color:darkgreen;font-size:24px;"">Correct :)</p>","",""
"2960","key","n","n","16.75171186440719","500","250","psychophysics","324","1233040","0.0-324.0","613ab311df99420815403fe9","6213cb9223c054231b776ce7","6","","","","","0","7"
"null","","","null","","","","html-keyboard-response","325","1233544","0.0-325.0","613ab311df99420815403fe9","6213cb9223c054231b776ce7","","","","","<p style=""color:red;font-size:24px;"">Error :(</p>","",""
"2915","key","v","v","16.754862857142996","500","250","psychophysics","326","1236466","0.0-326.0","613ab311df99420815403fe9","6213cb9223c054231b776ce7","6","","","","","1","4"
"null","","","null","","","","html-keyboard-response","327","1236969","0.0-327.0","613ab311df99420815403fe9","6213cb9223c054231b776ce7","","","","","<p style=""color:darkgreen;font-size:24px;"">Correct :)</p>","",""
"2973","key","v","v","16.6594692737426","500","250","psychophysics","328","1239948","0.0-328.0","613ab311df99420815403fe9","6213cb9223c054231b776ce7","6","","","","","1","1"
"null","","","null","","","","html-keyboard-response","329","1240450","0.0-329.0","613ab311df99420815403fe9","6213cb9223c054231b776ce7","","","","","<p style=""color:darkgreen;font-size:24px;"">Correct :)</p>","",""
"2458","key","n","n","16.657020270270674","500","250","psychophysics","330","1242916","0.0-330.0","613ab311df99420815403fe9","6213cb9223c054231b776ce7","6","","","","","1","8"
"null","","","null","","","","html-keyboard-response","331","1243425","0.0-331.0","613ab311df99420815403fe9","6213cb9223c054231b776ce7","","","","","<p style=""color:darkgreen;font-size:24px;"">Correct :)</p>","",""
"2496","key","v","v","16.659020000000794","500","250","psychophysics","332","1245926","0.0-332.0","613ab311df99420815403fe9","6213cb9223c054231b776ce7","6","","","","","1","3"
"null","","","null","","","","html-keyboard-response","333","1246434","0.0-333.0","613ab311df99420815403fe9","6213cb9223c054231b776ce7","","","","","<p style=""color:darkgreen;font-size:24px;"">Correct :)</p>","",""
"2357","key","v","v","16.6578802816901","500","250","psychophysics","334","1248797","0.0-334.0","613ab311df99420815403fe9","6213cb9223c054231b776ce7","6","","","","","1","2"
"null","","","null","","","","html-keyboard-response","335","1249301","0.0-335.0","613ab311df99420815403fe9","6213cb9223c054231b776ce7","","","","","<p style=""color:darkgreen;font-size:24px;"">Correct :)</p>","",""
"2442","key","v","v","16.65976870748322","500","250","psychophysics","336","1251749","0.0-336.0","613ab311df99420815403fe9","6213cb9223c054231b776ce7","6","","","","","1","4"
"null","","","null","","","","html-keyboard-response","337","1252257","0.0-337.0","613ab311df99420815403fe9","6213cb9223c054231b776ce7","","","","","<p style=""color:darkgreen;font-size:24px;"">Correct :)</p>","",""
"2392","key","n","n","16.660729166666798","500","250","psychophysics","338","1254655","0.0-338.0","613ab311df99420815403fe9","6213cb9223c054231b776ce7","6","","","","","0","4"
"null","","","null","","","","html-keyboard-response","339","1255161","0.0-339.0","613ab311df99420815403fe9","6213cb9223c054231b776ce7","","","","","<p style=""color:darkgreen;font-size:24px;"">Correct :)</p>","",""
"2489","key","n","n","16.771510067114594","500","250","psychophysics","340","1257655","0.0-340.0","613ab311df99420815403fe9","6213cb9223c054231b776ce7","6","","","","","1","8"
"null","","","null","","","","html-keyboard-response","341","1258159","0.0-341.0","613ab311df99420815403fe9","6213cb9223c054231b776ce7","","","","","<p style=""color:darkgreen;font-size:24px;"">Correct :)</p>","",""
"2583","key","n","n","16.65842580645225","500","250","psychophysics","342","1260749","0.0-342.0","613ab311df99420815403fe9","6213cb9223c054231b776ce7","6","","","","","0","7"
"null","","","null","","","","html-keyboard-response","343","1261261","0.0-343.0","613ab311df99420815403fe9","6213cb9223c054231b776ce7","","","","","<p style=""color:red;font-size:24px;"">Error :(</p>","",""
"2434","key","n","n","16.65768027210887","500","250","psychophysics","344","1263702","0.0-344.0","613ab311df99420815403fe9","6213cb9223c054231b776ce7","6","","","","","1","8"
"null","","","null","","","","html-keyboard-response","345","1264206","0.0-345.0","613ab311df99420815403fe9","6213cb9223c054231b776ce7","","","","","<p style=""color:darkgreen;font-size:24px;"">Correct :)</p>","",""
"2717","key","v","v","16.657693251533193","500","250","psychophysics","346","1266929","0.0-346.0","613ab311df99420815403fe9","6213cb9223c054231b776ce7","6","","","","","1","2"
"null","","","null","","","","html-keyboard-response","347","1267435","0.0-347.0","613ab311df99420815403fe9","6213cb9223c054231b776ce7","","","","","<p style=""color:darkgreen;font-size:24px;"">Correct :)</p>","",""
"2877","key","v","v","16.661173410405475","500","250","psychophysics","348","1270318","0.0-348.0","613ab311df99420815403fe9","6213cb9223c054231b776ce7","6","","","","","1","4"
"null","","","null","","","","html-keyboard-response","349","1270827","0.0-349.0","613ab311df99420815403fe9","6213cb9223c054231b776ce7","","","","","<p style=""color:darkgreen;font-size:24px;"">Correct :)</p>","",""
"2514","key","v","v","16.76852317880808","500","250","psychophysics","350","1273347","0.0-350.0","613ab311df99420815403fe9","6213cb9223c054231b776ce7","6","","","","","0","3"
"null","","","null","","","","html-keyboard-response","351","1273854","0.0-351.0","613ab311df99420815403fe9","6213cb9223c054231b776ce7","","","","","<p style=""color:darkgreen;font-size:24px;"">Correct :)</p>","",""
"2918","key","v","v","16.660605714285214","500","250","psychophysics","352","1276777","0.0-352.0","613ab311df99420815403fe9","6213cb9223c054231b776ce7","6","","","","","1","1"
"null","","","null","","","","html-keyboard-response","353","1277289","0.0-353.0","613ab311df99420815403fe9","6213cb9223c054231b776ce7","","","","","<p style=""color:darkgreen;font-size:24px;"">Correct :)</p>","",""
"5432","key","n","n","16.65975535168193","500","250","psychophysics","354","1282728","0.0-354.0","613ab311df99420815403fe9","6213cb9223c054231b776ce7","6","","","","","0","4"
"null","","","null","","","","html-keyboard-response","355","1283237","0.0-355.0","613ab311df99420815403fe9","6213cb9223c054231b776ce7","","","","","<p style=""color:darkgreen;font-size:24px;"">Correct :)</p>","",""
"3562","key","v","v","16.814237209302267","500","250","psychophysics","356","1286845","0.0-356.0","613ab311df99420815403fe9","6213cb9223c054231b776ce7","6","","","","","1","3"
"null","","","null","","","","html-keyboard-response","357","1287349","0.0-357.0","613ab311df99420815403fe9","6213cb9223c054231b776ce7","","","","","<p style=""color:darkgreen;font-size:24px;"">Correct :)</p>","",""
"2682","key","n","n","16.65929629629547","500","250","psychophysics","358","1290044","0.0-358.0","613ab311df99420815403fe9","6213cb9223c054231b776ce7","6","","","","","1","8"
"null","","","null","","","","html-keyboard-response","359","1290555","0.0-359.0","613ab311df99420815403fe9","6213cb9223c054231b776ce7","","","","","<p style=""color:darkgreen;font-size:24px;"">Correct :)</p>","",""
"2644","key","v","v","16.660710691824356","500","250","psychophysics","360","1293205","0.0-360.0","613ab311df99420815403fe9","6213cb9223c054231b776ce7","6","","","","","1","3"
"null","","","null","","","","html-keyboard-response","361","1293712","0.0-361.0","613ab311df99420815403fe9","6213cb9223c054231b776ce7","","","","","<p style=""color:darkgreen;font-size:24px;"">Correct :)</p>","",""
"2671","key","v","v","16.6590745341617","500","250","psychophysics","362","1296388","0.0-362.0","613ab311df99420815403fe9","6213cb9223c054231b776ce7","6","","","","","1","2"
"null","","","null","","","","html-keyboard-response","363","1296897","0.0-363.0","613ab311df99420815403fe9","6213cb9223c054231b776ce7","","","","","<p style=""color:darkgreen;font-size:24px;"">Correct :)</p>","",""
"2649","key","n","n","16.661704402515056","500","250","psychophysics","364","1299552","0.0-364.0","613ab311df99420815403fe9","6213cb9223c054231b776ce7","6","","","","","1","7"
"null","","","null","","","","html-keyboard-response","365","1300064","0.0-365.0","613ab311df99420815403fe9","6213cb9223c054231b776ce7","","","","","<p style=""color:darkgreen;font-size:24px;"">Correct :)</p>","",""
"2400","key","v","v","16.777305555554147","500","250","psychophysics","366","1302470","0.0-366.0","613ab311df99420815403fe9","6213cb9223c054231b776ce7","6","","","","","1","1"
"null","","","null","","","","html-keyboard-response","367","1302974","0.0-367.0","613ab311df99420815403fe9","6213cb9223c054231b776ce7","","","","","<p style=""color:darkgreen;font-size:24px;"">Correct :)</p>","",""
"2554","key","n","n","16.658344155844215","500","250","psychophysics","368","1305533","0.0-368.0","613ab311df99420815403fe9","6213cb9223c054231b776ce7","6","","","","","1","6"
"null","","","null","","","","html-keyboard-response","369","1306037","0.0-369.0","613ab311df99420815403fe9","6213cb9223c054231b776ce7","","","","","<p style=""color:darkgreen;font-size:24px;"">Correct :)</p>","",""
"2470","key","n","n","16.659445945945933","500","250","psychophysics","370","1308512","0.0-370.0","613ab311df99420815403fe9","6213cb9223c054231b776ce7","6","","","","","1","4"
"null","","","null","","","","html-keyboard-response","371","1309015","0.0-371.0","613ab311df99420815403fe9","6213cb9223c054231b776ce7","","","","","<p style=""color:red;font-size:24px;"">Error :(</p>","",""
"2792","key","v","v","16.75965060240937","500","250","psychophysics","372","1311813","0.0-372.0","613ab311df99420815403fe9","6213cb9223c054231b776ce7","6","","","","","0","9"
"null","","","null","","","","html-keyboard-response","373","1312322","0.0-373.0","613ab311df99420815403fe9","6213cb9223c054231b776ce7","","","","","<p style=""color:darkgreen;font-size:24px;"">Correct :)</p>","",""
"2631","key","v","v","16.657522012577715","500","250","psychophysics","374","1314960","0.0-374.0","613ab311df99420815403fe9","6213cb9223c054231b776ce7","6","","","","","1","3"
"null","","","null","","","","html-keyboard-response","375","1315466","0.0-375.0","613ab311df99420815403fe9","6213cb9223c054231b776ce7","","","","","<p style=""color:darkgreen;font-size:24px;"">Correct :)</p>","",""
"2663","key","n","n","16.660499999999594","500","250","psychophysics","376","1318134","0.0-376.0","613ab311df99420815403fe9","6213cb9223c054231b776ce7","6","","","","","0","4"
"null","","","null","","","","html-keyboard-response","377","1318640","0.0-377.0","613ab311df99420815403fe9","6213cb9223c054231b776ce7","","","","","<p style=""color:darkgreen;font-size:24px;"">Correct :)</p>","",""
"2679","key","v","v","16.656763975154202","500","250","psychophysics","378","1321324","0.0-378.0","613ab311df99420815403fe9","6213cb9223c054231b776ce7","6","","","","","0","2"
"null","","","null","","","","html-keyboard-response","379","1321830","0.0-379.0","613ab311df99420815403fe9","6213cb9223c054231b776ce7","","","","","<p style=""color:red;font-size:24px;"">Error :(</p>","",""
"2708","key","n","n","16.65954601227026","500","250","psychophysics","380","1324543","0.0-380.0","613ab311df99420815403fe9","6213cb9223c054231b776ce7","6","","","","","0","9"
"null","","","null","","","","html-keyboard-response","381","1325046","0.0-381.0","613ab311df99420815403fe9","6213cb9223c054231b776ce7","","","","","<p style=""color:red;font-size:24px;"">Error :(</p>","",""
"2738","key","n","n","16.657624242423722","500","250","psychophysics","382","1327790","0.0-382.0","613ab311df99420815403fe9","6213cb9223c054231b776ce7","6","","","","","1","6"
"null","","","null","","","","html-keyboard-response","383","1328298","0.0-383.0","613ab311df99420815403fe9","6213cb9223c054231b776ce7","","","","","<p style=""color:darkgreen;font-size:24px;"">Correct :)</p>","",""
"2509","key","n","n","16.66133112582804","500","250","psychophysics","384","1330813","0.0-384.0","613ab311df99420815403fe9","6213cb9223c054231b776ce7","6","","","","","1","6"
"null","","","null","","","","html-keyboard-response","385","1331315","0.0-385.0","613ab311df99420815403fe9","6213cb9223c054231b776ce7","","","","","<p style=""color:darkgreen;font-size:24px;"">Correct :)</p>","",""
"2642","key","n","n","16.659748427673836","500","250","psychophysics","386","1333963","0.0-386.0","613ab311df99420815403fe9","6213cb9223c054231b776ce7","6","","","","","0","2"
"null","","","null","","","","html-keyboard-response","387","1334472","0.0-387.0","613ab311df99420815403fe9","6213cb9223c054231b776ce7","","","","","<p style=""color:darkgreen;font-size:24px;"">Correct :)</p>","",""
"2583","key","n","n","16.767441558441472","500","250","psychophysics","388","1337060","0.0-388.0","613ab311df99420815403fe9","6213cb9223c054231b776ce7","6","","","","","0","6"
"null","","","null","","","","html-keyboard-response","389","1337567","0.0-389.0","613ab311df99420815403fe9","6213cb9223c054231b776ce7","","","","","<p style=""color:darkgreen;font-size:24px;"">Correct :)</p>","",""
"2548","key","n","n","16.65688888888861","500","250","psychophysics","390","1340122","0.0-390.0","613ab311df99420815403fe9","6213cb9223c054231b776ce7","6","","","","","1","9"
"null","","","null","","","","html-keyboard-response","391","1340635","0.0-391.0","613ab311df99420815403fe9","6213cb9223c054231b776ce7","","","","","<p style=""color:darkgreen;font-size:24px;"">Correct :)</p>","",""
"2481","key","v","v","16.65912080536934","500","250","psychophysics","392","1343122","0.0-392.0","613ab311df99420815403fe9","6213cb9223c054231b776ce7","6","","","","","1","4"
"null","","","null","","","","html-keyboard-response","393","1343629","0.0-393.0","613ab311df99420815403fe9","6213cb9223c054231b776ce7","","","","","<p style=""color:darkgreen;font-size:24px;"">Correct :)</p>","",""
"2545","key","v","v","16.659743421053893","500","250","psychophysics","394","1346179","0.0-394.0","613ab311df99420815403fe9","6213cb9223c054231b776ce7","6","","","","","1","3"
"null","","","null","","","","html-keyboard-response","395","1346687","0.0-395.0","613ab311df99420815403fe9","6213cb9223c054231b776ce7","","","","","<p style=""color:darkgreen;font-size:24px;"">Correct :)</p>","",""
"11129","","","v","","","","html-keyboard-response","396","1357818","0.0-396.0","613ab311df99420815403fe9","6213cb9223c054231b776ce7","","","","","<p> Last set of trials.  Here, the tasks are going to switch once again.  We are going to do 50 of these.  And then you are done with the experiment.  </p>  <br><br>  Ready? (press v or n)","",""
"2585","key","v","v","16.657870967741754","500","250","psychophysics","397","1360409","0.0-397.0","613ab311df99420815403fe9","6213cb9223c054231b776ce7","7","","","","","0","3"
"null","","","null","","","","html-keyboard-response","398","1360915","0.0-398.0","613ab311df99420815403fe9","6213cb9223c054231b776ce7","","","","","<p style=""color:darkgreen;font-size:24px;"">Correct :)</p>","",""
"2702","key","n","n","16.659444444444905","500","250","psychophysics","399","1363623","0.0-399.0","613ab311df99420815403fe9","6213cb9223c054231b776ce7","7","","","","","1","4"
"null","","","null","","","","html-keyboard-response","400","1364135","0.0-400.0","613ab311df99420815403fe9","6213cb9223c054231b776ce7","","","","","<p style=""color:red;font-size:24px;"">Error :(</p>","",""
"2930","key","n","n","16.754767045455413","500","250","psychophysics","401","1367071","0.0-401.0","613ab311df99420815403fe9","6213cb9223c054231b776ce7","7","","","","","0","6"
"null","","","null","","","","html-keyboard-response","402","1367580","0.0-402.0","613ab311df99420815403fe9","6213cb9223c054231b776ce7","","","","","<p style=""color:darkgreen;font-size:24px;"">Correct :)</p>","",""
"2774","key","v","v","16.659485029940587","500","250","psychophysics","403","1370360","0.0-403.0","613ab311df99420815403fe9","6213cb9223c054231b776ce7","7","","","","","0","7"
"null","","","null","","","","html-keyboard-response","404","1370864","0.0-404.0","613ab311df99420815403fe9","6213cb9223c054231b776ce7","","","","","<p style=""color:darkgreen;font-size:24px;"">Correct :)</p>","",""
"2887","key","v","v","16.660103448275905","500","250","psychophysics","405","1373757","0.0-405.0","613ab311df99420815403fe9","6213cb9223c054231b776ce7","7","","","","","1","2"
"null","","","null","","","","html-keyboard-response","406","1374259","0.0-406.0","613ab311df99420815403fe9","6213cb9223c054231b776ce7","","","","","<p style=""color:darkgreen;font-size:24px;"">Correct :)</p>","",""
"2466","key","v","v","16.772680272107475","500","250","psychophysics","407","1376730","0.0-407.0","613ab311df99420815403fe9","6213cb9223c054231b776ce7","7","","","","","1","4"
"null","","","null","","","","html-keyboard-response","408","1377239","0.0-408.0","613ab311df99420815403fe9","6213cb9223c054231b776ce7","","","","","<p style=""color:darkgreen;font-size:24px;"">Correct :)</p>","",""
"2507","key","n","n","16.658105960265356","500","250","psychophysics","409","1379752","0.0-409.0","613ab311df99420815403fe9","6213cb9223c054231b776ce7","7","","","","","1","7"
"null","","","null","","","","html-keyboard-response","410","1380257","0.0-410.0","613ab311df99420815403fe9","6213cb9223c054231b776ce7","","","","","<p style=""color:darkgreen;font-size:24px;"">Correct :)</p>","",""
"2527","key","v","v","16.659842105263746","500","250","psychophysics","411","1382790","0.0-411.0","613ab311df99420815403fe9","6213cb9223c054231b776ce7","7","","","","","1","4"
"null","","","null","","","","html-keyboard-response","412","1383295","0.0-412.0","613ab311df99420815403fe9","6213cb9223c054231b776ce7","","","","","<p style=""color:darkgreen;font-size:24px;"">Correct :)</p>","",""
"2655","key","v","v","16.659415094340044","500","250","psychophysics","413","1385956","0.0-413.0","613ab311df99420815403fe9","6213cb9223c054231b776ce7","7","","","","","1","3"
"null","","","null","","","","html-keyboard-response","414","1386462","0.0-414.0","613ab311df99420815403fe9","6213cb9223c054231b776ce7","","","","","<p style=""color:darkgreen;font-size:24px;"">Correct :)</p>","",""
"2667","key","n","n","16.660356249999314","500","250","psychophysics","415","1389135","0.0-415.0","613ab311df99420815403fe9","6213cb9223c054231b776ce7","7","","","","","0","6"
"null","","","null","","","","html-keyboard-response","416","1389643","0.0-416.0","613ab311df99420815403fe9","6213cb9223c054231b776ce7","","","","","<p style=""color:darkgreen;font-size:24px;"">Correct :)</p>","",""
"2493","key","v","v","16.65906666666735","500","250","psychophysics","417","1392143","0.0-417.0","613ab311df99420815403fe9","6213cb9223c054231b776ce7","7","","","","","0","3"
"null","","","null","","","","html-keyboard-response","418","1392649","0.0-418.0","613ab311df99420815403fe9","6213cb9223c054231b776ce7","","","","","<p style=""color:darkgreen;font-size:24px;"">Correct :)</p>","",""
"2717","key","n","n","16.65886503067353","500","250","psychophysics","419","1395369","0.0-419.0","613ab311df99420815403fe9","6213cb9223c054231b776ce7","7","","","","","0","2"
"null","","","null","","","","html-keyboard-response","420","1395874","0.0-420.0","613ab311df99420815403fe9","6213cb9223c054231b776ce7","","","","","<p style=""color:darkgreen;font-size:24px;"">Correct :)</p>","",""
"2505","key","v","v","16.65975333333326","500","250","psychophysics","421","1398385","0.0-421.0","613ab311df99420815403fe9","6213cb9223c054231b776ce7","7","","","","","1","1"
"null","","","null","","","","html-keyboard-response","422","1398888","0.0-422.0","613ab311df99420815403fe9","6213cb9223c054231b776ce7","","","","","<p style=""color:darkgreen;font-size:24px;"">Correct :)</p>","",""
"2636","key","n","n","16.658341772151417","500","250","psychophysics","423","1401530","0.0-423.0","613ab311df99420815403fe9","6213cb9223c054231b776ce7","7","","","","","0","4"
"null","","","null","","","","html-keyboard-response","424","1402038","0.0-424.0","613ab311df99420815403fe9","6213cb9223c054231b776ce7","","","","","<p style=""color:darkgreen;font-size:24px;"">Correct :)</p>","",""
"2715","key","v","v","16.66109202453935","500","250","psychophysics","425","1404759","0.0-425.0","613ab311df99420815403fe9","6213cb9223c054231b776ce7","7","","","","","1","3"
"null","","","null","","","","html-keyboard-response","426","1405270","0.0-426.0","613ab311df99420815403fe9","6213cb9223c054231b776ce7","","","","","<p style=""color:darkgreen;font-size:24px;"">Correct :)</p>","",""
"2524","key","v","v","16.766802631578972","500","250","psychophysics","427","1407830","0.0-427.0","613ab311df99420815403fe9","6213cb9223c054231b776ce7","7","","","","","0","3"
"null","","","null","","","","html-keyboard-response","428","1408336","0.0-428.0","613ab311df99420815403fe9","6213cb9223c054231b776ce7","","","","","<p style=""color:darkgreen;font-size:24px;"">Correct :)</p>","",""
"2560","key","n","n","16.659928571428292","500","250","psychophysics","429","1410902","0.0-429.0","613ab311df99420815403fe9","6213cb9223c054231b776ce7","7","","","","","0","6"
"null","","","null","","","","html-keyboard-response","430","1411411","0.0-430.0","613ab311df99420815403fe9","6213cb9223c054231b776ce7","","","","","<p style=""color:darkgreen;font-size:24px;"">Correct :)</p>","",""
"2749","key","v","v","16.657704819277132","500","250","psychophysics","431","1414168","0.0-431.0","613ab311df99420815403fe9","6213cb9223c054231b776ce7","7","","","","","1","4"
"null","","","null","","","","html-keyboard-response","432","1414671","0.0-432.0","613ab311df99420815403fe9","6213cb9223c054231b776ce7","","","","","<p style=""color:darkgreen;font-size:24px;"">Correct :)</p>","",""
"2892","key","v","v","16.658022988505994","500","250","psychophysics","433","1417569","0.0-433.0","613ab311df99420815403fe9","6213cb9223c054231b776ce7","7","","","","","0","7"
"null","","","null","","","","html-keyboard-response","434","1418074","0.0-434.0","613ab311df99420815403fe9","6213cb9223c054231b776ce7","","","","","<p style=""color:darkgreen;font-size:24px;"">Correct :)</p>","",""
"2662","key","v","v","16.659106249999603","500","250","psychophysics","435","1420743","0.0-435.0","613ab311df99420815403fe9","6213cb9223c054231b776ce7","7","","","","","0","3"
"null","","","null","","","","html-keyboard-response","436","1421251","0.0-436.0","613ab311df99420815403fe9","6213cb9223c054231b776ce7","","","","","<p style=""color:darkgreen;font-size:24px;"">Correct :)</p>","",""
"2584","key","n","n","16.659148387097183","500","250","psychophysics","437","1423842","0.0-437.0","613ab311df99420815403fe9","6213cb9223c054231b776ce7","7","","","","","1","6"
"null","","","null","","","","html-keyboard-response","438","1424353","0.0-438.0","613ab311df99420815403fe9","6213cb9223c054231b776ce7","","","","","<p style=""color:darkgreen;font-size:24px;"">Correct :)</p>","",""
"2690","key","v","v","16.659450617283984","500","250","psychophysics","439","1427048","0.0-439.0","613ab311df99420815403fe9","6213cb9223c054231b776ce7","7","","","","","1","3"
"null","","","null","","","","html-keyboard-response","440","1427552","0.0-440.0","613ab311df99420815403fe9","6213cb9223c054231b776ce7","","","","","<p style=""color:darkgreen;font-size:24px;"">Correct :)</p>","",""
"2419","key","v","v","16.657472602740786","500","250","psychophysics","441","1429978","0.0-441.0","613ab311df99420815403fe9","6213cb9223c054231b776ce7","7","","","","","0","1"
"null","","","null","","","","html-keyboard-response","442","1430487","0.0-442.0","613ab311df99420815403fe9","6213cb9223c054231b776ce7","","","","","<p style=""color:darkgreen;font-size:24px;"">Correct :)</p>","",""
"2757","key","v","v","16.76008484848408","500","250","psychophysics","443","1433250","0.0-443.0","613ab311df99420815403fe9","6213cb9223c054231b776ce7","7","","","","","1","2"
"null","","","null","","","","html-keyboard-response","444","1433758","0.0-444.0","613ab311df99420815403fe9","6213cb9223c054231b776ce7","","","","","<p style=""color:darkgreen;font-size:24px;"">Correct :)</p>","",""
"2695","key","v","v","16.660203703703576","500","250","psychophysics","445","1436460","0.0-445.0","613ab311df99420815403fe9","6213cb9223c054231b776ce7","7","","","","","0","1"
"null","","","null","","","","html-keyboard-response","446","1436965","0.0-446.0","613ab311df99420815403fe9","6213cb9223c054231b776ce7","","","","","<p style=""color:darkgreen;font-size:24px;"">Correct :)</p>","",""
"2566","key","n","n","16.659232258065153","500","250","psychophysics","447","1439540","0.0-447.0","613ab311df99420815403fe9","6213cb9223c054231b776ce7","7","","","","","1","4"
"null","","","null","","","","html-keyboard-response","448","1440053","0.0-448.0","613ab311df99420815403fe9","6213cb9223c054231b776ce7","","","","","<p style=""color:red;font-size:24px;"">Error :(</p>","",""
"2626","key","v","v","16.6616624203825","500","250","psychophysics","449","1442684","0.0-449.0","613ab311df99420815403fe9","6213cb9223c054231b776ce7","7","","","","","0","3"
"null","","","null","","","","html-keyboard-response","450","1443188","0.0-450.0","613ab311df99420815403fe9","6213cb9223c054231b776ce7","","","","","<p style=""color:darkgreen;font-size:24px;"">Correct :)</p>","",""
"2863","key","v","v","16.658872093023938","500","250","psychophysics","451","1446058","0.0-451.0","613ab311df99420815403fe9","6213cb9223c054231b776ce7","7","","","","","1","1"
"null","","","null","","","","html-keyboard-response","452","1446561","0.0-452.0","613ab311df99420815403fe9","6213cb9223c054231b776ce7","","","","","<p style=""color:darkgreen;font-size:24px;"">Correct :)</p>","",""
"3013","key","n","n","16.659408839779665","500","250","psychophysics","453","1449583","0.0-453.0","613ab311df99420815403fe9","6213cb9223c054231b776ce7","7","","","","","0","4"
"null","","","null","","","","html-keyboard-response","454","1450097","0.0-454.0","613ab311df99420815403fe9","6213cb9223c054231b776ce7","","","","","<p style=""color:darkgreen;font-size:24px;"">Correct :)</p>","",""
"2415","key","v","v","16.660124137931792","500","250","psychophysics","455","1452516","0.0-455.0","613ab311df99420815403fe9","6213cb9223c054231b776ce7","7","","","","","0","3"
"null","","","null","","","","html-keyboard-response","456","1453019","0.0-456.0","613ab311df99420815403fe9","6213cb9223c054231b776ce7","","","","","<p style=""color:darkgreen;font-size:24px;"">Correct :)</p>","",""
"2712","key","n","n","16.661607361962858","500","250","psychophysics","457","1455737","0.0-457.0","613ab311df99420815403fe9","6213cb9223c054231b776ce7","7","","","","","1","6"
"null","","","null","","","","html-keyboard-response","458","1456244","0.0-458.0","613ab311df99420815403fe9","6213cb9223c054231b776ce7","","","","","<p style=""color:darkgreen;font-size:24px;"">Correct :)</p>","",""
"2922","key","n","n","16.660074285713158","500","250","psychophysics","459","1459172","0.0-459.0","613ab311df99420815403fe9","6213cb9223c054231b776ce7","7","","","","","1","7"
"null","","","null","","","","html-keyboard-response","460","1459680","0.0-460.0","613ab311df99420815403fe9","6213cb9223c054231b776ce7","","","","","<p style=""color:darkgreen;font-size:24px;"">Correct :)</p>","",""
"2425","key","n","n","16.773896551724714","500","250","psychophysics","461","1462111","0.0-461.0","613ab311df99420815403fe9","6213cb9223c054231b776ce7","7","","","","","1","7"
"null","","","null","","","","html-keyboard-response","462","1462614","0.0-462.0","613ab311df99420815403fe9","6213cb9223c054231b776ce7","","","","","<p style=""color:darkgreen;font-size:24px;"">Correct :)</p>","",""
"2397","key","v","v","16.66013194444531","500","250","psychophysics","463","1465017","0.0-463.0","613ab311df99420815403fe9","6213cb9223c054231b776ce7","7","","","","","1","1"
"null","","","null","","","","html-keyboard-response","464","1465526","0.0-464.0","613ab311df99420815403fe9","6213cb9223c054231b776ce7","","","","","<p style=""color:darkgreen;font-size:24px;"">Correct :)</p>","",""
"2601","key","v","v","16.660083333333322","500","250","psychophysics","465","1468137","0.0-465.0","613ab311df99420815403fe9","6213cb9223c054231b776ce7","7","","","","","0","2"
"null","","","null","","","","html-keyboard-response","466","1468649","0.0-466.0","613ab311df99420815403fe9","6213cb9223c054231b776ce7","","","","","<p style=""color:red;font-size:24px;"">Error :(</p>","",""
"2698","key","v","v","16.65962345679118","500","250","psychophysics","467","1471354","0.0-467.0","613ab311df99420815403fe9","6213cb9223c054231b776ce7","7","","","","","0","3"
"null","","","null","","","","html-keyboard-response","468","1471859","0.0-468.0","613ab311df99420815403fe9","6213cb9223c054231b776ce7","","","","","<p style=""color:darkgreen;font-size:24px;"">Correct :)</p>","",""
"2534","key","n","n","16.658440789472813","500","250","psychophysics","469","1474399","0.0-469.0","613ab311df99420815403fe9","6213cb9223c054231b776ce7","7","","","","","1","4"
"null","","","null","","","","html-keyboard-response","470","1474913","0.0-470.0","613ab311df99420815403fe9","6213cb9223c054231b776ce7","","","","","<p style=""color:red;font-size:24px;"">Error :(</p>","",""
"2582","key","n","n","16.65822580645101","500","250","psychophysics","471","1477500","0.0-471.0","613ab311df99420815403fe9","6213cb9223c054231b776ce7","7","","","","","1","7"
"null","","","null","","","","html-keyboard-response","472","1478010","0.0-472.0","613ab311df99420815403fe9","6213cb9223c054231b776ce7","","","","","<p style=""color:darkgreen;font-size:24px;"">Correct :)</p>","",""
"2524","key","v","v","16.65903947368344","500","250","psychophysics","473","1480541","0.0-473.0","613ab311df99420815403fe9","6213cb9223c054231b776ce7","7","","","","","1","2"
"null","","","null","","","","html-keyboard-response","474","1481044","0.0-474.0","613ab311df99420815403fe9","6213cb9223c054231b776ce7","","","","","<p style=""color:darkgreen;font-size:24px;"">Correct :)</p>","",""
"2668","key","v","v","16.659422360247824","500","250","psychophysics","475","1483719","0.0-475.0","613ab311df99420815403fe9","6213cb9223c054231b776ce7","7","","","","","1","3"
"null","","","null","","","","html-keyboard-response","476","1484223","0.0-476.0","613ab311df99420815403fe9","6213cb9223c054231b776ce7","","","","","<p style=""color:darkgreen;font-size:24px;"">Correct :)</p>","",""
"2503","key","n","n","16.659173333332873","500","250","psychophysics","477","1486732","0.0-477.0","613ab311df99420815403fe9","6213cb9223c054231b776ce7","7","","","","","0","6"
"null","","","null","","","","html-keyboard-response","478","1487239","0.0-478.0","613ab311df99420815403fe9","6213cb9223c054231b776ce7","","","","","<p style=""color:darkgreen;font-size:24px;"">Correct :)</p>","",""
"2923","key","n","n","16.754628571428892","500","250","psychophysics","479","1490168","0.0-479.0","613ab311df99420815403fe9","6213cb9223c054231b776ce7","7","","","","","1","4"
"null","","","null","","","","html-keyboard-response","480","1490677","0.0-480.0","613ab311df99420815403fe9","6213cb9223c054231b776ce7","","","","","<p style=""color:red;font-size:24px;"">Error :(</p>","",""
"2651","key","v","v","16.658337499998744","500","250","psychophysics","481","1493335","0.0-481.0","613ab311df99420815403fe9","6213cb9223c054231b776ce7","7","","","","","1","2"
"null","","","null","","","","html-keyboard-response","482","1493839","0.0-482.0","613ab311df99420815403fe9","6213cb9223c054231b776ce7","","","","","<p style=""color:darkgreen;font-size:24px;"">Correct :)</p>","",""
"2825","key","n","n","16.657370588235448","500","250","psychophysics","483","1496670","0.0-483.0","613ab311df99420815403fe9","6213cb9223c054231b776ce7","7","","","","","0","2"
"null","","","null","","","","html-keyboard-response","484","1497186","0.0-484.0","613ab311df99420815403fe9","6213cb9223c054231b776ce7","","","","","<p style=""color:darkgreen;font-size:24px;"">Correct :)</p>","",""
"2505","key","n","n","16.661251655630213","500","250","psychophysics","485","1499698","0.0-485.0","613ab311df99420815403fe9","6213cb9223c054231b776ce7","7","","","","","0","6"
"null","","","null","","","","html-keyboard-response","486","1500218","0.0-486.0","613ab311df99420815403fe9","6213cb9223c054231b776ce7","","","","","<p style=""color:darkgreen;font-size:24px;"">Correct :)</p>","",""
"2545","key","v","v","16.65856862745059","500","250","psychophysics","487","1502769","0.0-487.0","613ab311df99420815403fe9","6213cb9223c054231b776ce7","7","","","","","0","1"
"null","","","null","","","","html-keyboard-response","488","1503272","0.0-488.0","613ab311df99420815403fe9","6213cb9223c054231b776ce7","","","","","<p style=""color:darkgreen;font-size:24px;"">Correct :)</p>","",""
"2643","key","v","v","16.65924203821612","500","250","psychophysics","489","1505918","0.0-489.0","613ab311df99420815403fe9","6213cb9223c054231b776ce7","7","","","","","1","1"
"null","","","null","","","","html-keyboard-response","490","1506428","0.0-490.0","613ab311df99420815403fe9","6213cb9223c054231b776ce7","","","","","<p style=""color:darkgreen;font-size:24px;"">Correct :)</p>","",""
"2651","key","v","v","16.658509433963598","500","250","psychophysics","491","1509085","0.0-491.0","613ab311df99420815403fe9","6213cb9223c054231b776ce7","7","","","","","1","1"
"null","","","null","","","","html-keyboard-response","492","1509595","0.0-492.0","613ab311df99420815403fe9","6213cb9223c054231b776ce7","","","","","<p style=""color:darkgreen;font-size:24px;"">Correct :)</p>","",""
"2665","key","n","n","16.659256250000908","500","250","psychophysics","493","1512265","0.0-493.0","613ab311df99420815403fe9","6213cb9223c054231b776ce7","7","","","","","0","7"
"null","","","null","","","","html-keyboard-response","494","1512777","0.0-494.0","613ab311df99420815403fe9","6213cb9223c054231b776ce7","","","","","<p style=""color:red;font-size:24px;"">Error :(</p>","",""
"2773","key","v","v","16.76114457831241","500","250","psychophysics","495","1515557","0.0-495.0","613ab311df99420815403fe9","6213cb9223c054231b776ce7","7","","","","","1","4"
"null","","","null","","","","html-keyboard-response","496","1516065","0.0-496.0","613ab311df99420815403fe9","6213cb9223c054231b776ce7","","","","","<p style=""color:darkgreen;font-size:24px;"">Correct :)</p>","",""
