"rt","response_type","key_press","response","avg_frame_time","center_x","center_y","trial_type","trial_index","time_elapsed","internal_node_id","pid","sid","phase","guide","targ","resp","stimulus","is5","stim"
"3198","key"," "," ","7.009287581699346","500","250","psychophysics","0","3209","0.0-0.0","5f765a3c8a6ec010370c9cc1","6213d12a808bd3dd07be6e12","","","","","","",""
"1816","key"," "," ","6.948291187739463","500","250","psychophysics","1","5029","0.0-1.0","5f765a3c8a6ec010370c9cc1","6213d12a808bd3dd07be6e12","","","","","","",""
"4933","key"," "," ","6.948708039492242","500","250","psychophysics","2","9964","0.0-2.0","5f765a3c8a6ec010370c9cc1","6213d12a808bd3dd07be6e12","","","","","","",""
"1484","key"," "," ","6.981276995305167","500","250","psychophysics","3","11456","0.0-3.0","5f765a3c8a6ec010370c9cc1","6213d12a808bd3dd07be6e12","","","","","","",""
"1741","key"," "," ","6.948775999999998","500","250","psychophysics","4","13201","0.0-4.0","5f765a3c8a6ec010370c9cc1","6213d12a808bd3dd07be6e12","","","","","","",""
"18473","key"," "," ","6.951350018818216","500","250","psychophysics","5","31677","0.0-5.0","5f765a3c8a6ec010370c9cc1","6213d12a808bd3dd07be6e12","","","","","","",""
"1852","key"," "," ","6.948672932330833","500","250","psychophysics","6","33532","0.0-6.0","5f765a3c8a6ec010370c9cc1","6213d12a808bd3dd07be6e12","","","","","","",""
"2012","key"," "," ","6.948782006920429","500","250","psychophysics","7","35546","0.0-7.0","5f765a3c8a6ec010370c9cc1","6213d12a808bd3dd07be6e12","","","","","","",""
"11589","key"," "," ","6.948728254349129","500","250","psychophysics","8","47138","0.0-8.0","5f765a3c8a6ec010370c9cc1","6213d12a808bd3dd07be6e12","0","0","29","155","","",""
"8577","key"," "," ","6.948719611021071","500","250","psychophysics","9","55721","0.0-9.0","5f765a3c8a6ec010370c9cc1","6213d12a808bd3dd07be6e12","","","","","","",""
"1538","key"," "," ","6.948850678733048","500","250","psychophysics","10","57263","0.0-10.0","5f765a3c8a6ec010370c9cc1","6213d12a808bd3dd07be6e12","","","","","","",""
"4803","key"," "," ","6.948733719247463","500","250","psychophysics","11","62072","0.0-11.0","5f765a3c8a6ec010370c9cc1","6213d12a808bd3dd07be6e12","","","","","","",""
"4068","key"," "," ","6.948747008547008","500","250","psychophysics","12","66143","0.0-12.0","5f765a3c8a6ec010370c9cc1","6213d12a808bd3dd07be6e12","","","","","","",""
"826","key"," "," ","6.94871186440669","500","250","psychophysics","13","66972","0.0-13.0","5f765a3c8a6ec010370c9cc1","6213d12a808bd3dd07be6e12","","","","","","",""
"1547","key"," "," ","6.948789237668169","500","250","psychophysics","14","68527","0.0-14.0","5f765a3c8a6ec010370c9cc1","6213d12a808bd3dd07be6e12","","","","","","",""
"1864","key"," "," ","6.948712686567181","500","250","psychophysics","15","70399","0.0-15.0","5f765a3c8a6ec010370c9cc1","6213d12a808bd3dd07be6e12","","","","","","",""
"5953","key"," "," ","6.948715285880979","500","250","psychophysics","16","76358","0.0-16.0","5f765a3c8a6ec010370c9cc1","6213d12a808bd3dd07be6e12","","","","","","",""
"9700","key"," "," ","6.948727077363894","500","250","psychophysics","17","86065","0.0-17.0","5f765a3c8a6ec010370c9cc1","6213d12a808bd3dd07be6e12","1","0","52","189","","",""
"2791","key"," "," ","6.9487556109725706","500","250","psychophysics","18","88859","0.0-18.0","5f765a3c8a6ec010370c9cc1","6213d12a808bd3dd07be6e12","1","5","39","25","","",""
"9013","key"," "," ","6.9487301464919025","500","250","psychophysics","19","97879","0.0-19.0","5f765a3c8a6ec010370c9cc1","6213d12a808bd3dd07be6e12","1","0","23","159","","",""
"3420","key"," "," ","6.948841463414608","500","250","psychophysics","20","101306","0.0-20.0","5f765a3c8a6ec010370c9cc1","6213d12a808bd3dd07be6e12","1","5","36","22","","",""
"10242","key"," "," ","6.948727272727272","500","250","psychophysics","21","111554","0.0-21.0","5f765a3c8a6ec010370c9cc1","6213d12a808bd3dd07be6e12","1","0","27","163","","",""
"2595","key"," "," ","6.948756032171578","500","250","psychophysics","22","114153","0.0-22.0","5f765a3c8a6ec010370c9cc1","6213d12a808bd3dd07be6e12","1","5","50","34","","",""
"6315","key"," "," ","6.948723568281945","500","250","psychophysics","23","120471","0.0-23.0","5f765a3c8a6ec010370c9cc1","6213d12a808bd3dd07be6e12","1","0","29","171","","",""
"3294","key"," "," ","6.948710970464131","500","250","psychophysics","24","123771","0.0-24.0","5f765a3c8a6ec010370c9cc1","6213d12a808bd3dd07be6e12","1","5","49","40","","",""
"7359","key"," "," ","6.948735599622295","500","250","psychophysics","25","131136","0.0-25.0","5f765a3c8a6ec010370c9cc1","6213d12a808bd3dd07be6e12","1","0","57","196","","",""
"2688","key"," "," ","6.948713178294579","500","250","psychophysics","26","133831","0.0-26.0","5f765a3c8a6ec010370c9cc1","6213d12a808bd3dd07be6e12","1","5","60","46","","",""
"9353","key"," "," ","6.948715985130102","500","250","psychophysics","27","143186","0.0-27.0","5f765a3c8a6ec010370c9cc1","6213d12a808bd3dd07be6e12","1","0","53","189","","",""
"2389","key"," "," ","6.948735465116337","500","250","psychophysics","28","145581","0.0-28.0","5f765a3c8a6ec010370c9cc1","6213d12a808bd3dd07be6e12","1","5","28","22","","",""
"8377","key"," "," ","6.948757676348545","500","250","psychophysics","29","153960","0.0-29.0","5f765a3c8a6ec010370c9cc1","6213d12a808bd3dd07be6e12","1","0","32","172","","",""
"2328","key"," "," ","6.948721556886292","500","250","psychophysics","30","156291","0.0-30.0","5f765a3c8a6ec010370c9cc1","6213d12a808bd3dd07be6e12","1","5","31","23","","",""
"6406","key"," "," ","6.948732104121475","500","250","psychophysics","31","162703","0.0-31.0","5f765a3c8a6ec010370c9cc1","6213d12a808bd3dd07be6e12","1","0","23","164","","",""
"2063","key"," "," ","6.9486868686869","500","250","psychophysics","32","164773","0.0-32.0","5f765a3c8a6ec010370c9cc1","6213d12a808bd3dd07be6e12","1","5","46","34","","",""
"6552","key"," "," ","6.94872428419936","500","250","psychophysics","33","171332","0.0-33.0","5f765a3c8a6ec010370c9cc1","6213d12a808bd3dd07be6e12","1","0","23","159","","",""
"6772","key"," "," ","6.948608829568796","500","250","psychophysics","34","178108","0.0-34.0","5f765a3c8a6ec010370c9cc1","6213d12a808bd3dd07be6e12","1","5","26","9","","",""
"7530","key"," "," ","6.948716528162504","500","250","psychophysics","35","185641","0.0-35.0","5f765a3c8a6ec010370c9cc1","6213d12a808bd3dd07be6e12","1","0","21","150","","",""
"4604","key"," "," ","6.948709969788522","500","250","psychophysics","36","190247","0.0-36.0","5f765a3c8a6ec010370c9cc1","6213d12a808bd3dd07be6e12","1","5","56","37","","",""
"2099","key"," "," ","6.948632450331105","500","250","psychophysics","37","192354","0.0-37.0","5f765a3c8a6ec010370c9cc1","6213d12a808bd3dd07be6e12","","","","","","",""
"2207","key"," "," ","6.948640378548841","500","250","psychophysics","38","194563","0.0-38.0","5f765a3c8a6ec010370c9cc1","6213d12a808bd3dd07be6e12","","","","","","",""
"959","key"," "," ","6.948811594203015","500","250","psychophysics","39","195528","0.0-39.0","5f765a3c8a6ec010370c9cc1","6213d12a808bd3dd07be6e12","","","","","","",""
"8712","key"," "," ","6.948718276137275","500","250","psychophysics","40","204244","0.0-40.0","5f765a3c8a6ec010370c9cc1","6213d12a808bd3dd07be6e12","2","0","48","186","","",""
"5183","key"," "," ","6.948754691689019","500","250","psychophysics","41","209433","0.0-41.0","5f765a3c8a6ec010370c9cc1","6213d12a808bd3dd07be6e12","","","","","","",""
"9204","key"," "," ","6.948740181268891","500","250","psychophysics","42","218640","0.0-42.0","5f765a3c8a6ec010370c9cc1","6213d12a808bd3dd07be6e12","2","0","44","175","","",""
"4838","key"," "," ","6.948747126436794","500","250","psychophysics","43","223481","0.0-43.0","5f765a3c8a6ec010370c9cc1","6213d12a808bd3dd07be6e12","","","","","","",""
"7727","key"," "," ","6.948766876687683","500","250","psychophysics","44","231211","0.0-44.0","5f765a3c8a6ec010370c9cc1","6213d12a808bd3dd07be6e12","2","0","39","188","","",""
"3405","key"," "," ","6.94875306122454","500","250","psychophysics","45","234621","0.0-45.0","5f765a3c8a6ec010370c9cc1","6213d12a808bd3dd07be6e12","","","","","","",""
"9220","key"," "," ","6.948730769230764","500","250","psychophysics","46","243845","0.0-46.0","5f765a3c8a6ec010370c9cc1","6213d12a808bd3dd07be6e12","2","0","50","256","","",""
"2585","key"," "," ","6.948704301075282","500","250","psychophysics","47","246434","0.0-47.0","5f765a3c8a6ec010370c9cc1","6213d12a808bd3dd07be6e12","","","","","","",""
"7399","key"," "," ","6.948738721804497","500","250","psychophysics","48","253835","0.0-48.0","5f765a3c8a6ec010370c9cc1","6213d12a808bd3dd07be6e12","2","0","57","200","","",""
"1016","key"," "," ","6.948630136986301","500","250","psychophysics","49","254855","0.0-49.0","5f765a3c8a6ec010370c9cc1","6213d12a808bd3dd07be6e12","","","","","","",""
"6576","key"," "," ","6.948740740740738","500","250","psychophysics","50","261434","0.0-50.0","5f765a3c8a6ec010370c9cc1","6213d12a808bd3dd07be6e12","2","0","30","160","","",""
"860","key"," "," ","6.9485645161292915","500","250","psychophysics","51","262297","0.0-51.0","5f765a3c8a6ec010370c9cc1","6213d12a808bd3dd07be6e12","","","","","","",""
"6470","key"," "," ","6.948704301075251","500","250","psychophysics","52","268770","0.0-52.0","5f765a3c8a6ec010370c9cc1","6213d12a808bd3dd07be6e12","2","0","24","168","","",""
"614","key"," "," ","6.9488749999998785","500","250","psychophysics","53","269388","0.0-53.0","5f765a3c8a6ec010370c9cc1","6213d12a808bd3dd07be6e12","","","","","","",""
"6643","key"," "," ","6.948721757322178","500","250","psychophysics","54","276036","0.0-54.0","5f765a3c8a6ec010370c9cc1","6213d12a808bd3dd07be6e12","2","0","46","180","","",""
"769","key"," "," ","6.948663636363662","500","250","psychophysics","55","276808","0.0-55.0","5f765a3c8a6ec010370c9cc1","6213d12a808bd3dd07be6e12","","","","","","",""
"6657","key"," "," ","6.948679540709834","500","250","psychophysics","56","283471","0.0-56.0","5f765a3c8a6ec010370c9cc1","6213d12a808bd3dd07be6e12","2","0","39","184","","",""
"586","key"," "," ","6.948702380952281","500","250","psychophysics","57","284060","0.0-57.0","5f765a3c8a6ec010370c9cc1","6213d12a808bd3dd07be6e12","","","","","","",""
"8859","key"," "," ","6.9487551020408445","500","250","psychophysics","58","292922","0.0-58.0","5f765a3c8a6ec010370c9cc1","6213d12a808bd3dd07be6e12","2","0","24","145","","",""
"1135","key"," "," ","6.948999999999854","500","250","psychophysics","59","294060","0.0-59.0","5f765a3c8a6ec010370c9cc1","6213d12a808bd3dd07be6e12","","","","","","",""
"6600","key"," "," ","6.948738672286621","500","250","psychophysics","60","300663","0.0-60.0","5f765a3c8a6ec010370c9cc1","6213d12a808bd3dd07be6e12","2","0","30","168","","",""
"772","key"," "," ","6.948218181818215","500","250","psychophysics","61","301437","0.0-61.0","5f765a3c8a6ec010370c9cc1","6213d12a808bd3dd07be6e12","","","","","","",""
"7075","key"," "," ","6.948766208251457","500","250","psychophysics","62","308516","0.0-62.0","5f765a3c8a6ec010370c9cc1","6213d12a808bd3dd07be6e12","2","0","56","194","","",""
"556","key"," "," ","6.949012499999663","500","250","psychophysics","63","309076","0.0-63.0","5f765a3c8a6ec010370c9cc1","6213d12a808bd3dd07be6e12","","","","","","",""
"6038","key"," "," ","6.948698156682062","500","250","psychophysics","64","315117","0.0-64.0","5f765a3c8a6ec010370c9cc1","6213d12a808bd3dd07be6e12","2","0","26","163","","",""
"669","key"," "," ","6.948364583333387","500","250","psychophysics","65","315790","0.0-65.0","5f765a3c8a6ec010370c9cc1","6213d12a808bd3dd07be6e12","","","","","","",""
"7344","key"," "," ","6.948745265151516","500","250","psychophysics","66","323137","0.0-66.0","5f765a3c8a6ec010370c9cc1","6213d12a808bd3dd07be6e12","2","0","32","158","","",""
"514","key"," "," ","6.949000000000328","500","250","psychophysics","67","323654","0.0-67.0","5f765a3c8a6ec010370c9cc1","6213d12a808bd3dd07be6e12","","","","","","",""
"6504","key"," "," ","6.948726203208565","500","250","psychophysics","68","330161","0.0-68.0","5f765a3c8a6ec010370c9cc1","6213d12a808bd3dd07be6e12","2","0","31","176","","",""
"480","key"," "," ","6.948608695652565","500","250","psychophysics","69","330644","0.0-69.0","5f765a3c8a6ec010370c9cc1","6213d12a808bd3dd07be6e12","","","","","","",""
"1646","key"," "," ","6.9486483050847205","500","250","psychophysics","70","332293","0.0-70.0","5f765a3c8a6ec010370c9cc1","6213d12a808bd3dd07be6e12","","","","","","",""
"1694","key"," "," ","6.9487530864198375","500","250","psychophysics","71","333990","0.0-71.0","5f765a3c8a6ec010370c9cc1","6213d12a808bd3dd07be6e12","","","","","","",""
"1806","key"," "," ","6.948684615384599","500","250","psychophysics","72","335802","0.0-72.0","5f765a3c8a6ec010370c9cc1","6213d12a808bd3dd07be6e12","3","5","38","24","","",""
"6974","key"," "," ","6.9487367896310905","500","250","psychophysics","73","342779","0.0-73.0","5f765a3c8a6ec010370c9cc1","6213d12a808bd3dd07be6e12","3","0","43","183","","",""
"417","key"," "," ","6.948133333332953","500","250","psychophysics","74","343203","0.0-74.0","5f765a3c8a6ec010370c9cc1","6213d12a808bd3dd07be6e12","3","5","45","11","","",""
"8839","key"," "," ","6.948693396226425","500","250","psychophysics","75","352048","0.0-75.0","5f765a3c8a6ec010370c9cc1","6213d12a808bd3dd07be6e12","3","0","44","182","","",""
"2304","key"," "," ","6.948697885196287","500","250","psychophysics","76","354355","0.0-76.0","5f765a3c8a6ec010370c9cc1","6213d12a808bd3dd07be6e12","3","5","21","14","","",""
"6918","key"," "," ","6.948729648241181","500","250","psychophysics","77","361276","0.0-77.0","5f765a3c8a6ec010370c9cc1","6213d12a808bd3dd07be6e12","3","0","44","179","","",""
"2353","key"," "," ","6.948786982248528","500","250","psychophysics","78","363632","0.0-78.0","5f765a3c8a6ec010370c9cc1","6213d12a808bd3dd07be6e12","3","5","35","21","","",""
"8308","key"," "," ","6.948718828451868","500","250","psychophysics","79","371943","0.0-79.0","5f765a3c8a6ec010370c9cc1","6213d12a808bd3dd07be6e12","3","0","60","194","","",""
"2568","key"," "," ","6.948750677506716","500","250","psychophysics","80","374513","0.0-80.0","5f765a3c8a6ec010370c9cc1","6213d12a808bd3dd07be6e12","3","5","46","31","","",""
"5897","key"," "," ","6.948680424528267","500","250","psychophysics","81","380414","0.0-81.0","5f765a3c8a6ec010370c9cc1","6213d12a808bd3dd07be6e12","3","0","23","151","","",""
"2742","key"," "," ","6.948708121827479","500","250","psychophysics","82","383159","0.0-82.0","5f765a3c8a6ec010370c9cc1","6213d12a808bd3dd07be6e12","3","5","58","37","","",""
"6413","key"," "," ","6.948689057421467","500","250","psychophysics","83","389578","0.0-83.0","5f765a3c8a6ec010370c9cc1","6213d12a808bd3dd07be6e12","3","0","26","165","","",""
"1889","key"," "," ","6.948686346863405","500","250","psychophysics","84","391470","0.0-84.0","5f765a3c8a6ec010370c9cc1","6213d12a808bd3dd07be6e12","3","5","23","16","","",""
"6917","key"," "," ","6.948760804020093","500","250","psychophysics","85","398392","0.0-85.0","5f765a3c8a6ec010370c9cc1","6213d12a808bd3dd07be6e12","3","0","33","173","","",""
"2681","key"," "," ","6.948769430051904","500","250","psychophysics","86","401079","0.0-86.0","5f765a3c8a6ec010370c9cc1","6213d12a808bd3dd07be6e12","3","5","49","34","","",""
"6240","key"," "," ","6.948712694877525","500","250","psychophysics","87","407326","0.0-87.0","5f765a3c8a6ec010370c9cc1","6213d12a808bd3dd07be6e12","3","0","27","167","","",""
"1654","key"," "," ","6.948836134453676","500","250","psychophysics","88","408987","0.0-88.0","5f765a3c8a6ec010370c9cc1","6213d12a808bd3dd07be6e12","3","5","39","30","","",""
"6526","key"," "," ","6.948769968051076","500","250","psychophysics","89","415519","0.0-89.0","5f765a3c8a6ec010370c9cc1","6213d12a808bd3dd07be6e12","3","0","41","179","","",""
"1570","key"," "," ","6.94884513274342","500","250","psychophysics","90","417096","0.0-90.0","5f765a3c8a6ec010370c9cc1","6213d12a808bd3dd07be6e12","3","5","48","30","","",""
"6871","key"," "," ","6.948736842105276","500","250","psychophysics","91","423969","0.0-91.0","5f765a3c8a6ec010370c9cc1","6213d12a808bd3dd07be6e12","3","0","43","191","","",""
"13600","key"," "," ","6.9487342871742515","500","250","psychophysics","92","437574","0.0-92.0","5f765a3c8a6ec010370c9cc1","6213d12a808bd3dd07be6e12","","","","","","",""
"27241","","","v","","","","html-keyboard-response","93","464815","0.0-93.0","5f765a3c8a6ec010370c9cc1","6213d12a808bd3dd07be6e12","","","","","<p> In this part of the experiment, we are going present digits 1, 2, 3, 4, 6, 7, 8, and 9.  Notice that 5 is missing.  Your job is to say whether the presented digit is less than or greater than 5.  For example, 3 is less than 5 and 7 is greater than 5.  If the digit is less than 5, press the v key; if it is greater than 5, press the n key. We are going to do 200 of these in total, but only 50 righ now. They go real fast.</p>  <br><br>  Ready? (press v or n)","",""
"2668","key","n","n","6.956096354166675","500","250","psychophysics","94","467490","0.0-94.0","5f765a3c8a6ec010370c9cc1","6213d12a808bd3dd07be6e12","4","","","","","1","8"
"null","","","null","","","","html-keyboard-response","95","467992","0.0-95.0","5f765a3c8a6ec010370c9cc1","6213d12a808bd3dd07be6e12","","","","","<p style=""color:darkgreen;font-size:24px;"">Correct :)</p>","",""
"2423","key","n","n","6.948893982807993","500","250","psychophysics","96","470418","0.0-96.0","5f765a3c8a6ec010370c9cc1","6213d12a808bd3dd07be6e12","4","","","","","1","7"
"null","","","null","","","","html-keyboard-response","97","470919","0.0-97.0","5f765a3c8a6ec010370c9cc1","6213d12a808bd3dd07be6e12","","","","","<p style=""color:darkgreen;font-size:24px;"">Correct :)</p>","",""
"2556","key","v","v","6.94899456521734","500","250","psychophysics","98","473478","0.0-98.0","5f765a3c8a6ec010370c9cc1","6213d12a808bd3dd07be6e12","4","","","","","1","2"
"null","","","null","","","","html-keyboard-response","99","473980","0.0-99.0","5f765a3c8a6ec010370c9cc1","6213d12a808bd3dd07be6e12","","","","","<p style=""color:darkgreen;font-size:24px;"">Correct :)</p>","",""
"2959","key","n","n","6.9488337236534","500","250","psychophysics","100","476943","0.0-100.0","5f765a3c8a6ec010370c9cc1","6213d12a808bd3dd07be6e12","4","","","","","1","7"
"null","","","null","","","","html-keyboard-response","101","477444","0.0-101.0","5f765a3c8a6ec010370c9cc1","6213d12a808bd3dd07be6e12","","","","","<p style=""color:darkgreen;font-size:24px;"">Correct :)</p>","",""
"2519","key","v","v","6.948696969697071","500","250","psychophysics","102","479968","0.0-102.0","5f765a3c8a6ec010370c9cc1","6213d12a808bd3dd07be6e12","4","","","","","1","9"
"null","","","null","","","","html-keyboard-response","103","480469","0.0-103.0","5f765a3c8a6ec010370c9cc1","6213d12a808bd3dd07be6e12","","","","","<p style=""color:red;font-size:24px;"">Error :(</p>","",""
"2498","key","v","v","6.948819444444477","500","250","psychophysics","104","482970","0.0-104.0","5f765a3c8a6ec010370c9cc1","6213d12a808bd3dd07be6e12","4","","","","","1","1"
"null","","","null","","","","html-keyboard-response","105","483471","0.0-105.0","5f765a3c8a6ec010370c9cc1","6213d12a808bd3dd07be6e12","","","","","<p style=""color:darkgreen;font-size:24px;"">Correct :)</p>","",""
"2446","key","v","v","6.948943342776242","500","250","psychophysics","106","485921","0.0-106.0","5f765a3c8a6ec010370c9cc1","6213d12a808bd3dd07be6e12","4","","","","","1","1"
"null","","","null","","","","html-keyboard-response","107","486421","0.0-107.0","5f765a3c8a6ec010370c9cc1","6213d12a808bd3dd07be6e12","","","","","<p style=""color:darkgreen;font-size:24px;"">Correct :)</p>","",""
"2409","key","v","v","6.948855907780887","500","250","psychophysics","108","488834","0.0-108.0","5f765a3c8a6ec010370c9cc1","6213d12a808bd3dd07be6e12","4","","","","","1","2"
"null","","","null","","","","html-keyboard-response","109","489335","0.0-109.0","5f765a3c8a6ec010370c9cc1","6213d12a808bd3dd07be6e12","","","","","<p style=""color:darkgreen;font-size:24px;"">Correct :)</p>","",""
"2449","key","n","n","6.948946175637402","500","250","psychophysics","110","491788","0.0-110.0","5f765a3c8a6ec010370c9cc1","6213d12a808bd3dd07be6e12","4","","","","","1","6"
"null","","","null","","","","html-keyboard-response","111","492289","0.0-111.0","5f765a3c8a6ec010370c9cc1","6213d12a808bd3dd07be6e12","","","","","<p style=""color:darkgreen;font-size:24px;"">Correct :)</p>","",""
"2461","key","n","n","6.9481633802816845","500","250","psychophysics","112","494753","0.0-112.0","5f765a3c8a6ec010370c9cc1","6213d12a808bd3dd07be6e12","4","","","","","1","6"
"null","","","null","","","","html-keyboard-response","113","495255","0.0-113.0","5f765a3c8a6ec010370c9cc1","6213d12a808bd3dd07be6e12","","","","","<p style=""color:darkgreen;font-size:24px;"">Correct :)</p>","",""
"2401","key","n","n","6.948890173410381","500","250","psychophysics","114","497658","0.0-114.0","5f765a3c8a6ec010370c9cc1","6213d12a808bd3dd07be6e12","4","","","","","1","6"
"null","","","null","","","","html-keyboard-response","115","498160","0.0-115.0","5f765a3c8a6ec010370c9cc1","6213d12a808bd3dd07be6e12","","","","","<p style=""color:darkgreen;font-size:24px;"">Correct :)</p>","",""
"2552","key","n","n","6.9486195652174025","500","250","psychophysics","116","500715","0.0-116.0","5f765a3c8a6ec010370c9cc1","6213d12a808bd3dd07be6e12","4","","","","","1","8"
"null","","","null","","","","html-keyboard-response","117","501216","0.0-117.0","5f765a3c8a6ec010370c9cc1","6213d12a808bd3dd07be6e12","","","","","<p style=""color:darkgreen;font-size:24px;"">Correct :)</p>","",""
"2384","key","n","n","6.948877551020483","500","250","psychophysics","118","503602","0.0-118.0","5f765a3c8a6ec010370c9cc1","6213d12a808bd3dd07be6e12","4","","","","","1","6"
"null","","","null","","","","html-keyboard-response","119","504103","0.0-119.0","5f765a3c8a6ec010370c9cc1","6213d12a808bd3dd07be6e12","","","","","<p style=""color:darkgreen;font-size:24px;"">Correct :)</p>","",""
"2776","key","n","n","6.948751879699311","500","250","psychophysics","120","506882","0.0-120.0","5f765a3c8a6ec010370c9cc1","6213d12a808bd3dd07be6e12","4","","","","","1","6"
"null","","","null","","","","html-keyboard-response","121","507383","0.0-121.0","5f765a3c8a6ec010370c9cc1","6213d12a808bd3dd07be6e12","","","","","<p style=""color:darkgreen;font-size:24px;"">Correct :)</p>","",""
"2420","key","n","n","6.948913793103474","500","250","psychophysics","122","509806","0.0-122.0","5f765a3c8a6ec010370c9cc1","6213d12a808bd3dd07be6e12","4","","","","","1","6"
"null","","","null","","","","html-keyboard-response","123","510307","0.0-123.0","5f765a3c8a6ec010370c9cc1","6213d12a808bd3dd07be6e12","","","","","<p style=""color:darkgreen;font-size:24px;"">Correct :)</p>","",""
"2413","key","v","v","6.948870689655157","500","250","psychophysics","124","512723","0.0-124.0","5f765a3c8a6ec010370c9cc1","6213d12a808bd3dd07be6e12","4","","","","","1","7"
"null","","","null","","","","html-keyboard-response","125","513224","0.0-125.0","5f765a3c8a6ec010370c9cc1","6213d12a808bd3dd07be6e12","","","","","<p style=""color:red;font-size:24px;"">Error :(</p>","",""
"2541","key","v","v","6.948849726775903","500","250","psychophysics","126","515768","0.0-126.0","5f765a3c8a6ec010370c9cc1","6213d12a808bd3dd07be6e12","4","","","","","1","1"
"null","","","null","","","","html-keyboard-response","127","516270","0.0-127.0","5f765a3c8a6ec010370c9cc1","6213d12a808bd3dd07be6e12","","","","","<p style=""color:darkgreen;font-size:24px;"">Correct :)</p>","",""
"2539","key","v","v","6.948893442623065","500","250","psychophysics","128","518812","0.0-128.0","5f765a3c8a6ec010370c9cc1","6213d12a808bd3dd07be6e12","4","","","","","1","2"
"null","","","null","","","","html-keyboard-response","129","519313","0.0-129.0","5f765a3c8a6ec010370c9cc1","6213d12a808bd3dd07be6e12","","","","","<p style=""color:darkgreen;font-size:24px;"">Correct :)</p>","",""
"2775","key","v","v","6.94877999999997","500","250","psychophysics","130","522091","0.0-130.0","5f765a3c8a6ec010370c9cc1","6213d12a808bd3dd07be6e12","4","","","","","1","3"
"null","","","null","","","","html-keyboard-response","131","522592","0.0-131.0","5f765a3c8a6ec010370c9cc1","6213d12a808bd3dd07be6e12","","","","","<p style=""color:darkgreen;font-size:24px;"">Correct :)</p>","",""
"2398","key","n","n","6.948895953757139","500","250","psychophysics","132","524994","0.0-132.0","5f765a3c8a6ec010370c9cc1","6213d12a808bd3dd07be6e12","4","","","","","1","6"
"null","","","null","","","","html-keyboard-response","133","525495","0.0-133.0","5f765a3c8a6ec010370c9cc1","6213d12a808bd3dd07be6e12","","","","","<p style=""color:darkgreen;font-size:24px;"">Correct :)</p>","",""
"2580","key","v","v","6.948924731182796","500","250","psychophysics","134","528078","0.0-134.0","5f765a3c8a6ec010370c9cc1","6213d12a808bd3dd07be6e12","4","","","","","1","2"
"null","","","null","","","","html-keyboard-response","135","528579","0.0-135.0","5f765a3c8a6ec010370c9cc1","6213d12a808bd3dd07be6e12","","","","","<p style=""color:darkgreen;font-size:24px;"">Correct :)</p>","",""
"2570","key","v","v","6.948954054054087","500","250","psychophysics","136","531152","0.0-136.0","5f765a3c8a6ec010370c9cc1","6213d12a808bd3dd07be6e12","4","","","","","1","3"
"null","","","null","","","","html-keyboard-response","137","531653","0.0-137.0","5f765a3c8a6ec010370c9cc1","6213d12a808bd3dd07be6e12","","","","","<p style=""color:darkgreen;font-size:24px;"">Correct :)</p>","",""
"2449","key","n","n","6.94893201133144","500","250","psychophysics","138","534105","0.0-138.0","5f765a3c8a6ec010370c9cc1","6213d12a808bd3dd07be6e12","4","","","","","1","6"
"null","","","null","","","","html-keyboard-response","139","534606","0.0-139.0","5f765a3c8a6ec010370c9cc1","6213d12a808bd3dd07be6e12","","","","","<p style=""color:darkgreen;font-size:24px;"">Correct :)</p>","",""
"2781","key","n","n","6.948822942643399","500","250","psychophysics","140","537391","0.0-140.0","5f765a3c8a6ec010370c9cc1","6213d12a808bd3dd07be6e12","4","","","","","1","7"
"null","","","null","","","","html-keyboard-response","141","537892","0.0-141.0","5f765a3c8a6ec010370c9cc1","6213d12a808bd3dd07be6e12","","","","","<p style=""color:darkgreen;font-size:24px;"">Correct :)</p>","",""
"2576","key","v","v","6.948838274932537","500","250","psychophysics","142","540471","0.0-142.0","5f765a3c8a6ec010370c9cc1","6213d12a808bd3dd07be6e12","4","","","","","1","3"
"null","","","null","","","","html-keyboard-response","143","540972","0.0-143.0","5f765a3c8a6ec010370c9cc1","6213d12a808bd3dd07be6e12","","","","","<p style=""color:darkgreen;font-size:24px;"">Correct :)</p>","",""
"2865","key","n","n","6.948878934624668","500","250","psychophysics","144","543841","0.0-144.0","5f765a3c8a6ec010370c9cc1","6213d12a808bd3dd07be6e12","4","","","","","1","9"
"null","","","null","","","","html-keyboard-response","145","544341","0.0-145.0","5f765a3c8a6ec010370c9cc1","6213d12a808bd3dd07be6e12","","","","","<p style=""color:darkgreen;font-size:24px;"">Correct :)</p>","",""
"2871","key","n","n","6.948867149758468","500","250","psychophysics","146","547215","0.0-146.0","5f765a3c8a6ec010370c9cc1","6213d12a808bd3dd07be6e12","4","","","","","1","8"
"null","","","null","","","","html-keyboard-response","147","547716","0.0-147.0","5f765a3c8a6ec010370c9cc1","6213d12a808bd3dd07be6e12","","","","","<p style=""color:darkgreen;font-size:24px;"">Correct :)</p>","",""
"2670","key","v","v","6.948851948051846","500","250","psychophysics","148","550390","0.0-148.0","5f765a3c8a6ec010370c9cc1","6213d12a808bd3dd07be6e12","4","","","","","1","2"
"null","","","null","","","","html-keyboard-response","149","550892","0.0-149.0","5f765a3c8a6ec010370c9cc1","6213d12a808bd3dd07be6e12","","","","","<p style=""color:darkgreen;font-size:24px;"">Correct :)</p>","",""
"3047","key","v","v","6.948756264236804","500","250","psychophysics","150","553942","0.0-150.0","5f765a3c8a6ec010370c9cc1","6213d12a808bd3dd07be6e12","4","","","","","1","1"
"null","","","null","","","","html-keyboard-response","151","554442","0.0-151.0","5f765a3c8a6ec010370c9cc1","6213d12a808bd3dd07be6e12","","","","","<p style=""color:darkgreen;font-size:24px;"">Correct :)</p>","",""
"3046","key","n","n","6.948801822323407","500","250","psychophysics","152","557492","0.0-152.0","5f765a3c8a6ec010370c9cc1","6213d12a808bd3dd07be6e12","4","","","","","1","9"
"null","","","null","","","","html-keyboard-response","153","557993","0.0-153.0","5f765a3c8a6ec010370c9cc1","6213d12a808bd3dd07be6e12","","","","","<p style=""color:darkgreen;font-size:24px;"">Correct :)</p>","",""
"2691","key","v","v","6.949023255813946","500","250","psychophysics","154","560687","0.0-154.0","5f765a3c8a6ec010370c9cc1","6213d12a808bd3dd07be6e12","4","","","","","1","1"
"null","","","null","","","","html-keyboard-response","155","561195","0.0-155.0","5f765a3c8a6ec010370c9cc1","6213d12a808bd3dd07be6e12","","","","","<p style=""color:darkgreen;font-size:24px;"">Correct :)</p>","",""
"2449","key","n","n","6.948721590908959","500","250","psychophysics","156","563647","0.0-156.0","5f765a3c8a6ec010370c9cc1","6213d12a808bd3dd07be6e12","4","","","","","1","9"
"null","","","null","","","","html-keyboard-response","157","564147","0.0-157.0","5f765a3c8a6ec010370c9cc1","6213d12a808bd3dd07be6e12","","","","","<p style=""color:darkgreen;font-size:24px;"">Correct :)</p>","",""
"2809","key","v","v","6.9488564356435365","500","250","psychophysics","158","566960","0.0-158.0","5f765a3c8a6ec010370c9cc1","6213d12a808bd3dd07be6e12","4","","","","","1","3"
"null","","","null","","","","html-keyboard-response","159","567460","0.0-159.0","5f765a3c8a6ec010370c9cc1","6213d12a808bd3dd07be6e12","","","","","<p style=""color:darkgreen;font-size:24px;"">Correct :)</p>","",""
"2552","key","v","v","6.948866847825981","500","250","psychophysics","160","570016","0.0-160.0","5f765a3c8a6ec010370c9cc1","6213d12a808bd3dd07be6e12","4","","","","","1","2"
"null","","","null","","","","html-keyboard-response","161","570516","0.0-161.0","5f765a3c8a6ec010370c9cc1","6213d12a808bd3dd07be6e12","","","","","<p style=""color:darkgreen;font-size:24px;"">Correct :)</p>","",""
"3486","key","v","v","6.948884462151561","500","250","psychophysics","162","574006","0.0-162.0","5f765a3c8a6ec010370c9cc1","6213d12a808bd3dd07be6e12","4","","","","","1","2"
"null","","","null","","","","html-keyboard-response","163","574507","0.0-163.0","5f765a3c8a6ec010370c9cc1","6213d12a808bd3dd07be6e12","","","","","<p style=""color:darkgreen;font-size:24px;"">Correct :)</p>","",""
"3258","key","v","v","6.948795309168414","500","250","psychophysics","164","577768","0.0-164.0","5f765a3c8a6ec010370c9cc1","6213d12a808bd3dd07be6e12","4","","","","","1","4"
"null","","","null","","","","html-keyboard-response","165","578270","0.0-165.0","5f765a3c8a6ec010370c9cc1","6213d12a808bd3dd07be6e12","","","","","<p style=""color:darkgreen;font-size:24px;"">Correct :)</p>","",""
"16334","key","n","n","6.951700851063818","500","250","psychophysics","166","594609","0.0-166.0","5f765a3c8a6ec010370c9cc1","6213d12a808bd3dd07be6e12","4","","","","","1","6"
"null","","","null","","","","html-keyboard-response","167","595112","0.0-167.0","5f765a3c8a6ec010370c9cc1","6213d12a808bd3dd07be6e12","","","","","<p style=""color:darkgreen;font-size:24px;"">Correct :)</p>","",""
"2919","key","n","n","6.9488404761905604","500","250","psychophysics","168","598035","0.0-168.0","5f765a3c8a6ec010370c9cc1","6213d12a808bd3dd07be6e12","4","","","","","1","9"
"null","","","null","","","","html-keyboard-response","169","598536","0.0-169.0","5f765a3c8a6ec010370c9cc1","6213d12a808bd3dd07be6e12","","","","","<p style=""color:darkgreen;font-size:24px;"">Correct :)</p>","",""
"2532","key","v","v","6.948832417582418","500","250","psychophysics","170","601070","0.0-170.0","5f765a3c8a6ec010370c9cc1","6213d12a808bd3dd07be6e12","4","","","","","1","3"
"null","","","null","","","","html-keyboard-response","171","601573","0.0-171.0","5f765a3c8a6ec010370c9cc1","6213d12a808bd3dd07be6e12","","","","","<p style=""color:darkgreen;font-size:24px;"">Correct :)</p>","",""
"2608","key","v","v","6.948861333333267","500","250","psychophysics","172","604184","0.0-172.0","5f765a3c8a6ec010370c9cc1","6213d12a808bd3dd07be6e12","4","","","","","1","1"
"null","","","null","","","","html-keyboard-response","173","604685","0.0-173.0","5f765a3c8a6ec010370c9cc1","6213d12a808bd3dd07be6e12","","","","","<p style=""color:darkgreen;font-size:24px;"">Correct :)</p>","",""
"3083","key","v","v","6.9487742663657555","500","250","psychophysics","174","607771","0.0-174.0","5f765a3c8a6ec010370c9cc1","6213d12a808bd3dd07be6e12","4","","","","","1","3"
"null","","","null","","","","html-keyboard-response","175","608272","0.0-175.0","5f765a3c8a6ec010370c9cc1","6213d12a808bd3dd07be6e12","","","","","<p style=""color:darkgreen;font-size:24px;"">Correct :)</p>","",""
"2885","key","n","n","6.94878072289144","500","250","psychophysics","176","611160","0.0-176.0","5f765a3c8a6ec010370c9cc1","6213d12a808bd3dd07be6e12","4","","","","","1","7"
"null","","","null","","","","html-keyboard-response","177","611661","0.0-177.0","5f765a3c8a6ec010370c9cc1","6213d12a808bd3dd07be6e12","","","","","<p style=""color:darkgreen;font-size:24px;"">Correct :)</p>","",""
"2531","key","n","n","6.9487506849314915","500","250","psychophysics","178","614196","0.0-178.0","5f765a3c8a6ec010370c9cc1","6213d12a808bd3dd07be6e12","4","","","","","1","7"
"null","","","null","","","","html-keyboard-response","179","614696","0.0-179.0","5f765a3c8a6ec010370c9cc1","6213d12a808bd3dd07be6e12","","","","","<p style=""color:darkgreen;font-size:24px;"">Correct :)</p>","",""
"4298","key","v","v","6.948849757673649","500","250","psychophysics","180","618997","0.0-180.0","5f765a3c8a6ec010370c9cc1","6213d12a808bd3dd07be6e12","4","","","","","1","3"
"null","","","null","","","","html-keyboard-response","181","619498","0.0-181.0","5f765a3c8a6ec010370c9cc1","6213d12a808bd3dd07be6e12","","","","","<p style=""color:darkgreen;font-size:24px;"">Correct :)</p>","",""
"2839","key","n","n","6.948897310513559","500","250","psychophysics","182","622341","0.0-182.0","5f765a3c8a6ec010370c9cc1","6213d12a808bd3dd07be6e12","4","","","","","1","6"
"null","","","null","","","","html-keyboard-response","183","622841","0.0-183.0","5f765a3c8a6ec010370c9cc1","6213d12a808bd3dd07be6e12","","","","","<p style=""color:darkgreen;font-size:24px;"">Correct :)</p>","",""
"2575","key","n","n","6.948851752021498","500","250","psychophysics","184","625420","0.0-184.0","5f765a3c8a6ec010370c9cc1","6213d12a808bd3dd07be6e12","4","","","","","1","6"
"null","","","null","","","","html-keyboard-response","185","625921","0.0-185.0","5f765a3c8a6ec010370c9cc1","6213d12a808bd3dd07be6e12","","","","","<p style=""color:darkgreen;font-size:24px;"">Correct :)</p>","",""
"2634","key","n","n","6.948839050132197","500","250","psychophysics","186","628559","0.0-186.0","5f765a3c8a6ec010370c9cc1","6213d12a808bd3dd07be6e12","4","","","","","1","8"
"null","","","null","","","","html-keyboard-response","187","629060","0.0-187.0","5f765a3c8a6ec010370c9cc1","6213d12a808bd3dd07be6e12","","","","","<p style=""color:darkgreen;font-size:24px;"">Correct :)</p>","",""
"2641","key","n","n","6.948871052631875","500","250","psychophysics","188","631704","0.0-188.0","5f765a3c8a6ec010370c9cc1","6213d12a808bd3dd07be6e12","4","","","","","1","9"
"null","","","null","","","","html-keyboard-response","189","632205","0.0-189.0","5f765a3c8a6ec010370c9cc1","6213d12a808bd3dd07be6e12","","","","","<p style=""color:darkgreen;font-size:24px;"">Correct :)</p>","",""
"2821","key","v","v","6.948815270935775","500","250","psychophysics","190","635029","0.0-190.0","5f765a3c8a6ec010370c9cc1","6213d12a808bd3dd07be6e12","4","","","","","1","4"
"null","","","null","","","","html-keyboard-response","191","635530","0.0-191.0","5f765a3c8a6ec010370c9cc1","6213d12a808bd3dd07be6e12","","","","","<p style=""color:darkgreen;font-size:24px;"">Correct :)</p>","",""
"3181","key","n","n","6.948851528384329","500","250","psychophysics","192","638714","0.0-192.0","5f765a3c8a6ec010370c9cc1","6213d12a808bd3dd07be6e12","4","","","","","1","7"
"null","","","null","","","","html-keyboard-response","193","639215","0.0-193.0","5f765a3c8a6ec010370c9cc1","6213d12a808bd3dd07be6e12","","","","","<p style=""color:darkgreen;font-size:24px;"">Correct :)</p>","",""
"21146","","","n","","","","html-keyboard-response","194","660362","0.0-194.0","5f765a3c8a6ec010370c9cc1","6213d12a808bd3dd07be6e12","","","","","<p> Ok, now we are going present the same digits as before.  Your job is to say whether the digit is even or odd  If the digit is odd, press to v key; if it is even, press the n key. We are going to do 50 of these.  </p>  <br><br>  Ready? (press v or n)","",""
"2763","key","v","v","6.954276381909611","500","250","psychophysics","195","663128","0.0-195.0","5f765a3c8a6ec010370c9cc1","6213d12a808bd3dd07be6e12","5","","","","","0","9"
"null","","","null","","","","html-keyboard-response","196","663629","0.0-196.0","5f765a3c8a6ec010370c9cc1","6213d12a808bd3dd07be6e12","","","","","<p style=""color:darkgreen;font-size:24px;"">Correct :)</p>","",""
"2682","key","n","n","6.948883419689346","500","250","psychophysics","197","666314","0.0-197.0","5f765a3c8a6ec010370c9cc1","6213d12a808bd3dd07be6e12","5","","","","","0","6"
"null","","","null","","","","html-keyboard-response","198","666815","0.0-198.0","5f765a3c8a6ec010370c9cc1","6213d12a808bd3dd07be6e12","","","","","<p style=""color:darkgreen;font-size:24px;"">Correct :)</p>","",""
"2659","key","n","n","6.94884031413596","500","250","psychophysics","199","669476","0.0-199.0","5f765a3c8a6ec010370c9cc1","6213d12a808bd3dd07be6e12","5","","","","","0","2"
"null","","","null","","","","html-keyboard-response","200","669977","0.0-200.0","5f765a3c8a6ec010370c9cc1","6213d12a808bd3dd07be6e12","","","","","<p style=""color:darkgreen;font-size:24px;"">Correct :)</p>","",""
"2617","key","v","v","6.9488143236073725","500","250","psychophysics","201","672598","0.0-201.0","5f765a3c8a6ec010370c9cc1","6213d12a808bd3dd07be6e12","5","","","","","0","7"
"null","","","null","","","","html-keyboard-response","202","673099","0.0-202.0","5f765a3c8a6ec010370c9cc1","6213d12a808bd3dd07be6e12","","","","","<p style=""color:darkgreen;font-size:24px;"">Correct :)</p>","",""
"2734","key","n","n","6.948822335025406","500","250","psychophysics","203","675837","0.0-203.0","5f765a3c8a6ec010370c9cc1","6213d12a808bd3dd07be6e12","5","","","","","0","2"
"null","","","null","","","","html-keyboard-response","204","676350","0.0-204.0","5f765a3c8a6ec010370c9cc1","6213d12a808bd3dd07be6e12","","","","","<p style=""color:darkgreen;font-size:24px;"">Correct :)</p>","",""
"2532","key","n","n","6.948708791208676","500","250","psychophysics","205","678884","0.0-205.0","5f765a3c8a6ec010370c9cc1","6213d12a808bd3dd07be6e12","5","","","","","0","8"
"null","","","null","","","","html-keyboard-response","206","679384","0.0-206.0","5f765a3c8a6ec010370c9cc1","6213d12a808bd3dd07be6e12","","","","","<p style=""color:darkgreen;font-size:24px;"">Correct :)</p>","",""
"2386","key","v","v","6.948912536443358","500","250","psychophysics","207","681774","0.0-207.0","5f765a3c8a6ec010370c9cc1","6213d12a808bd3dd07be6e12","5","","","","","0","3"
"null","","","null","","","","html-keyboard-response","208","682275","0.0-208.0","5f765a3c8a6ec010370c9cc1","6213d12a808bd3dd07be6e12","","","","","<p style=""color:darkgreen;font-size:24px;"">Correct :)</p>","",""
"2531","key","v","v","6.948813186813233","500","250","psychophysics","209","684810","0.0-209.0","5f765a3c8a6ec010370c9cc1","6213d12a808bd3dd07be6e12","5","","","","","0","1"
"null","","","null","","","","html-keyboard-response","210","685311","0.0-210.0","5f765a3c8a6ec010370c9cc1","6213d12a808bd3dd07be6e12","","","","","<p style=""color:darkgreen;font-size:24px;"">Correct :)</p>","",""
"2568","key","v","v","6.94884054054053","500","250","psychophysics","211","687882","0.0-211.0","5f765a3c8a6ec010370c9cc1","6213d12a808bd3dd07be6e12","5","","","","","0","7"
"null","","","null","","","","html-keyboard-response","212","688383","0.0-212.0","5f765a3c8a6ec010370c9cc1","6213d12a808bd3dd07be6e12","","","","","<p style=""color:darkgreen;font-size:24px;"">Correct :)</p>","",""
"2539","key","v","v","6.948906849314816","500","250","psychophysics","213","690926","0.0-213.0","5f765a3c8a6ec010370c9cc1","6213d12a808bd3dd07be6e12","5","","","","","0","9"
"null","","","null","","","","html-keyboard-response","214","691427","0.0-214.0","5f765a3c8a6ec010370c9cc1","6213d12a808bd3dd07be6e12","","","","","<p style=""color:darkgreen;font-size:24px;"">Correct :)</p>","",""
"2822","key","v","v","6.948775862068915","500","250","psychophysics","215","694251","0.0-215.0","5f765a3c8a6ec010370c9cc1","6213d12a808bd3dd07be6e12","5","","","","","0","9"
"null","","","null","","","","html-keyboard-response","216","694752","0.0-216.0","5f765a3c8a6ec010370c9cc1","6213d12a808bd3dd07be6e12","","","","","<p style=""color:darkgreen;font-size:24px;"">Correct :)</p>","",""
"2421","key","n","n","6.948848137535611","500","250","psychophysics","217","697177","0.0-217.0","5f765a3c8a6ec010370c9cc1","6213d12a808bd3dd07be6e12","5","","","","","0","2"
"null","","","null","","","","html-keyboard-response","218","697677","0.0-218.0","5f765a3c8a6ec010370c9cc1","6213d12a808bd3dd07be6e12","","","","","<p style=""color:darkgreen;font-size:24px;"">Correct :)</p>","",""
"2758","key","v","v","6.948879093198887","500","250","psychophysics","219","700438","0.0-219.0","5f765a3c8a6ec010370c9cc1","6213d12a808bd3dd07be6e12","5","","","","","0","1"
"null","","","null","","","","html-keyboard-response","220","700939","0.0-220.0","5f765a3c8a6ec010370c9cc1","6213d12a808bd3dd07be6e12","","","","","<p style=""color:darkgreen;font-size:24px;"">Correct :)</p>","",""
"2855","key","v","v","6.948800486618134","500","250","psychophysics","221","703798","0.0-221.0","5f765a3c8a6ec010370c9cc1","6213d12a808bd3dd07be6e12","5","","","","","0","7"
"null","","","null","","","","html-keyboard-response","222","704299","0.0-222.0","5f765a3c8a6ec010370c9cc1","6213d12a808bd3dd07be6e12","","","","","<p style=""color:darkgreen;font-size:24px;"">Correct :)</p>","",""
"2863","key","n","n","6.948791262135927","500","250","psychophysics","223","707165","0.0-223.0","5f765a3c8a6ec010370c9cc1","6213d12a808bd3dd07be6e12","5","","","","","0","8"
"null","","","null","","","","html-keyboard-response","224","707666","0.0-224.0","5f765a3c8a6ec010370c9cc1","6213d12a808bd3dd07be6e12","","","","","<p style=""color:darkgreen;font-size:24px;"">Correct :)</p>","",""
"3057","key","v","v","6.948856492027224","500","250","psychophysics","225","710725","0.0-225.0","5f765a3c8a6ec010370c9cc1","6213d12a808bd3dd07be6e12","5","","","","","0","2"
"null","","","null","","","","html-keyboard-response","226","711226","0.0-226.0","5f765a3c8a6ec010370c9cc1","6213d12a808bd3dd07be6e12","","","","","<p style=""color:red;font-size:24px;"">Error :(</p>","",""
"136","key","n","n","6.951999999996042","500","250","psychophysics","227","711365","0.0-227.0","5f765a3c8a6ec010370c9cc1","6213d12a808bd3dd07be6e12","5","","","","","0","9"
"null","","","null","","","","html-keyboard-response","228","711866","0.0-228.0","5f765a3c8a6ec010370c9cc1","6213d12a808bd3dd07be6e12","","","","","<p style=""color:red;font-size:24px;"">Error :(</p>","",""
"975","key","n","n","6.948964539007118","500","250","psychophysics","229","712845","0.0-229.0","5f765a3c8a6ec010370c9cc1","6213d12a808bd3dd07be6e12","5","","","","","0","7"
"null","","","null","","","","html-keyboard-response","230","713347","0.0-230.0","5f765a3c8a6ec010370c9cc1","6213d12a808bd3dd07be6e12","","","","","<p style=""color:red;font-size:24px;"">Error :(</p>","",""
"2618","key","v","v","6.948856763925529","500","250","psychophysics","231","715968","0.0-231.0","5f765a3c8a6ec010370c9cc1","6213d12a808bd3dd07be6e12","5","","","","","0","3"
"null","","","null","","","","html-keyboard-response","232","716469","0.0-232.0","5f765a3c8a6ec010370c9cc1","6213d12a808bd3dd07be6e12","","","","","<p style=""color:darkgreen;font-size:24px;"">Correct :)</p>","",""
"3232","key","n","n","6.948864806866895","500","250","psychophysics","233","719704","0.0-233.0","5f765a3c8a6ec010370c9cc1","6213d12a808bd3dd07be6e12","5","","","","","0","8"
"null","","","null","","","","html-keyboard-response","234","720205","0.0-234.0","5f765a3c8a6ec010370c9cc1","6213d12a808bd3dd07be6e12","","","","","<p style=""color:darkgreen;font-size:24px;"">Correct :)</p>","",""
"3026","key","v","v","6.948768348623988","500","250","psychophysics","235","723234","0.0-235.0","5f765a3c8a6ec010370c9cc1","6213d12a808bd3dd07be6e12","5","","","","","0","7"
"null","","","null","","","","html-keyboard-response","236","723734","0.0-236.0","5f765a3c8a6ec010370c9cc1","6213d12a808bd3dd07be6e12","","","","","<p style=""color:darkgreen;font-size:24px;"">Correct :)</p>","",""
"3104","key","v","v","6.94881879194625","500","250","psychophysics","237","726842","0.0-237.0","5f765a3c8a6ec010370c9cc1","6213d12a808bd3dd07be6e12","5","","","","","0","1"
"null","","","null","","","","html-keyboard-response","238","727343","0.0-238.0","5f765a3c8a6ec010370c9cc1","6213d12a808bd3dd07be6e12","","","","","<p style=""color:darkgreen;font-size:24px;"">Correct :)</p>","",""
"2851","key","v","v","6.948863746958655","500","250","psychophysics","239","730197","0.0-239.0","5f765a3c8a6ec010370c9cc1","6213d12a808bd3dd07be6e12","5","","","","","0","3"
"null","","","null","","","","html-keyboard-response","240","730698","0.0-240.0","5f765a3c8a6ec010370c9cc1","6213d12a808bd3dd07be6e12","","","","","<p style=""color:darkgreen;font-size:24px;"">Correct :)</p>","",""
"2897","key","v","v","6.948820143884743","500","250","psychophysics","241","733598","0.0-241.0","5f765a3c8a6ec010370c9cc1","6213d12a808bd3dd07be6e12","5","","","","","0","1"
"null","","","null","","","","html-keyboard-response","242","734099","0.0-242.0","5f765a3c8a6ec010370c9cc1","6213d12a808bd3dd07be6e12","","","","","<p style=""color:darkgreen;font-size:24px;"">Correct :)</p>","",""
"2775","key","v","v","6.948862155388229","500","250","psychophysics","243","736877","0.0-243.0","5f765a3c8a6ec010370c9cc1","6213d12a808bd3dd07be6e12","5","","","","","0","3"
"null","","","null","","","","html-keyboard-response","244","737377","0.0-244.0","5f765a3c8a6ec010370c9cc1","6213d12a808bd3dd07be6e12","","","","","<p style=""color:darkgreen;font-size:24px;"">Correct :)</p>","",""
"2558","key","n","n","6.94893766937684","500","250","psychophysics","245","739939","0.0-245.0","5f765a3c8a6ec010370c9cc1","6213d12a808bd3dd07be6e12","5","","","","","0","9"
"null","","","null","","","","html-keyboard-response","246","740440","0.0-246.0","5f765a3c8a6ec010370c9cc1","6213d12a808bd3dd07be6e12","","","","","<p style=""color:red;font-size:24px;"">Error :(</p>","",""
"2616","key","n","n","6.948806366047622","500","250","psychophysics","247","743059","0.0-247.0","5f765a3c8a6ec010370c9cc1","6213d12a808bd3dd07be6e12","5","","","","","0","8"
"null","","","null","","","","html-keyboard-response","248","743560","0.0-248.0","5f765a3c8a6ec010370c9cc1","6213d12a808bd3dd07be6e12","","","","","<p style=""color:darkgreen;font-size:24px;"">Correct :)</p>","",""
"2757","key","n","n","6.948763224181323","500","250","psychophysics","249","746320","0.0-249.0","5f765a3c8a6ec010370c9cc1","6213d12a808bd3dd07be6e12","5","","","","","0","9"
"null","","","null","","","","html-keyboard-response","250","746832","0.0-250.0","5f765a3c8a6ec010370c9cc1","6213d12a808bd3dd07be6e12","","","","","<p style=""color:red;font-size:24px;"">Error :(</p>","",""
"2532","key","n","n","6.948936986301273","500","250","psychophysics","251","749367","0.0-251.0","5f765a3c8a6ec010370c9cc1","6213d12a808bd3dd07be6e12","5","","","","","0","9"
"null","","","null","","","","html-keyboard-response","252","749868","0.0-252.0","5f765a3c8a6ec010370c9cc1","6213d12a808bd3dd07be6e12","","","","","<p style=""color:red;font-size:24px;"">Error :(</p>","",""
"2758","key","v","v","6.948881612090694","500","250","psychophysics","253","752629","0.0-253.0","5f765a3c8a6ec010370c9cc1","6213d12a808bd3dd07be6e12","5","","","","","0","1"
"null","","","null","","","","html-keyboard-response","254","753130","0.0-254.0","5f765a3c8a6ec010370c9cc1","6213d12a808bd3dd07be6e12","","","","","<p style=""color:darkgreen;font-size:24px;"">Correct :)</p>","",""
"2823","key","n","n","6.948968058968013","500","250","psychophysics","255","755956","0.0-255.0","5f765a3c8a6ec010370c9cc1","6213d12a808bd3dd07be6e12","5","","","","","0","4"
"null","","","null","","","","html-keyboard-response","256","756457","0.0-256.0","5f765a3c8a6ec010370c9cc1","6213d12a808bd3dd07be6e12","","","","","<p style=""color:darkgreen;font-size:24px;"">Correct :)</p>","",""
"4870","key","n","n","6.948854493580595","500","250","psychophysics","257","761330","0.0-257.0","5f765a3c8a6ec010370c9cc1","6213d12a808bd3dd07be6e12","5","","","","","0","4"
"null","","","null","","","","html-keyboard-response","258","761831","0.0-258.0","5f765a3c8a6ec010370c9cc1","6213d12a808bd3dd07be6e12","","","","","<p style=""color:darkgreen;font-size:24px;"">Correct :)</p>","",""
"5181","key","n","n","6.948777479892684","500","250","psychophysics","259","767015","0.0-259.0","5f765a3c8a6ec010370c9cc1","6213d12a808bd3dd07be6e12","5","","","","","0","4"
"null","","","null","","","","html-keyboard-response","260","767515","0.0-260.0","5f765a3c8a6ec010370c9cc1","6213d12a808bd3dd07be6e12","","","","","<p style=""color:darkgreen;font-size:24px;"">Correct :)</p>","",""
"3096","key","v","v","6.948840449438325","500","250","psychophysics","261","770614","0.0-261.0","5f765a3c8a6ec010370c9cc1","6213d12a808bd3dd07be6e12","5","","","","","0","9"
"null","","","null","","","","html-keyboard-response","262","771114","0.0-262.0","5f765a3c8a6ec010370c9cc1","6213d12a808bd3dd07be6e12","","","","","<p style=""color:darkgreen;font-size:24px;"">Correct :)</p>","",""
"2961","key","n","n","6.948899061032658","500","250","psychophysics","263","774078","0.0-263.0","5f765a3c8a6ec010370c9cc1","6213d12a808bd3dd07be6e12","5","","","","","0","8"
"null","","","null","","","","html-keyboard-response","264","774579","0.0-264.0","5f765a3c8a6ec010370c9cc1","6213d12a808bd3dd07be6e12","","","","","<p style=""color:darkgreen;font-size:24px;"">Correct :)</p>","",""
"2765","key","v","v","6.948824120602973","500","250","psychophysics","265","777348","0.0-265.0","5f765a3c8a6ec010370c9cc1","6213d12a808bd3dd07be6e12","5","","","","","0","3"
"null","","","null","","","","html-keyboard-response","266","777849","0.0-266.0","5f765a3c8a6ec010370c9cc1","6213d12a808bd3dd07be6e12","","","","","<p style=""color:darkgreen;font-size:24px;"">Correct :)</p>","",""
"3081","key","n","n","6.948821670428847","500","250","psychophysics","267","780933","0.0-267.0","5f765a3c8a6ec010370c9cc1","6213d12a808bd3dd07be6e12","5","","","","","0","4"
"null","","","null","","","","html-keyboard-response","268","781434","0.0-268.0","5f765a3c8a6ec010370c9cc1","6213d12a808bd3dd07be6e12","","","","","<p style=""color:darkgreen;font-size:24px;"">Correct :)</p>","",""
"2905","key","n","n","6.948854066985748","500","250","psychophysics","269","784342","0.0-269.0","5f765a3c8a6ec010370c9cc1","6213d12a808bd3dd07be6e12","5","","","","","0","6"
"null","","","null","","","","html-keyboard-response","270","784843","0.0-270.0","5f765a3c8a6ec010370c9cc1","6213d12a808bd3dd07be6e12","","","","","<p style=""color:darkgreen;font-size:24px;"">Correct :)</p>","",""
"3421","key","n","n","6.948888438133925","500","250","psychophysics","271","788268","0.0-271.0","5f765a3c8a6ec010370c9cc1","6213d12a808bd3dd07be6e12","5","","","","","0","2"
"null","","","null","","","","html-keyboard-response","272","788769","0.0-272.0","5f765a3c8a6ec010370c9cc1","6213d12a808bd3dd07be6e12","","","","","<p style=""color:darkgreen;font-size:24px;"">Correct :)</p>","",""
"3629","key","v","v","6.948873804971205","500","250","psychophysics","273","792402","0.0-273.0","5f765a3c8a6ec010370c9cc1","6213d12a808bd3dd07be6e12","5","","","","","0","1"
"null","","","null","","","","html-keyboard-response","274","792903","0.0-274.0","5f765a3c8a6ec010370c9cc1","6213d12a808bd3dd07be6e12","","","","","<p style=""color:darkgreen;font-size:24px;"">Correct :)</p>","",""
"2992","key","v","v","6.948890951275987","500","250","psychophysics","275","795899","0.0-275.0","5f765a3c8a6ec010370c9cc1","6213d12a808bd3dd07be6e12","5","","","","","0","3"
"null","","","null","","","","html-keyboard-response","276","796400","0.0-276.0","5f765a3c8a6ec010370c9cc1","6213d12a808bd3dd07be6e12","","","","","<p style=""color:darkgreen;font-size:24px;"">Correct :)</p>","",""
"2549","key","v","v","6.9489073569481","500","250","psychophysics","277","798953","0.0-277.0","5f765a3c8a6ec010370c9cc1","6213d12a808bd3dd07be6e12","5","","","","","0","2"
"null","","","null","","","","html-keyboard-response","278","799453","0.0-278.0","5f765a3c8a6ec010370c9cc1","6213d12a808bd3dd07be6e12","","","","","<p style=""color:red;font-size:24px;"">Error :(</p>","",""
"3069","key","n","n","6.948776018099409","500","250","psychophysics","279","802525","0.0-279.0","5f765a3c8a6ec010370c9cc1","6213d12a808bd3dd07be6e12","5","","","","","0","2"
"null","","","null","","","","html-keyboard-response","280","803026","0.0-280.0","5f765a3c8a6ec010370c9cc1","6213d12a808bd3dd07be6e12","","","","","<p style=""color:darkgreen;font-size:24px;"">Correct :)</p>","",""
"2602","key","n","n","6.948896000000027","500","250","psychophysics","281","805631","0.0-281.0","5f765a3c8a6ec010370c9cc1","6213d12a808bd3dd07be6e12","5","","","","","0","2"
"null","","","null","","","","html-keyboard-response","282","806132","0.0-282.0","5f765a3c8a6ec010370c9cc1","6213d12a808bd3dd07be6e12","","","","","<p style=""color:darkgreen;font-size:24px;"">Correct :)</p>","",""
"2955","key","n","n","6.948934117647107","500","250","psychophysics","283","809089","0.0-283.0","5f765a3c8a6ec010370c9cc1","6213d12a808bd3dd07be6e12","5","","","","","0","6"
"null","","","null","","","","html-keyboard-response","284","809597","0.0-284.0","5f765a3c8a6ec010370c9cc1","6213d12a808bd3dd07be6e12","","","","","<p style=""color:darkgreen;font-size:24px;"">Correct :)</p>","",""
"4361","key","v","v","6.94882961783438","500","250","psychophysics","285","813963","0.0-285.0","5f765a3c8a6ec010370c9cc1","6213d12a808bd3dd07be6e12","5","","","","","0","3"
"null","","","null","","","","html-keyboard-response","286","814463","0.0-286.0","5f765a3c8a6ec010370c9cc1","6213d12a808bd3dd07be6e12","","","","","<p style=""color:darkgreen;font-size:24px;"">Correct :)</p>","",""
"3970","key","v","v","6.948866900175054","500","250","psychophysics","287","818436","0.0-287.0","5f765a3c8a6ec010370c9cc1","6213d12a808bd3dd07be6e12","5","","","","","0","9"
"null","","","null","","","","html-keyboard-response","288","818937","0.0-288.0","5f765a3c8a6ec010370c9cc1","6213d12a808bd3dd07be6e12","","","","","<p style=""color:darkgreen;font-size:24px;"">Correct :)</p>","",""
"2732","key","v","v","6.948842239185798","500","250","psychophysics","289","821672","0.0-289.0","5f765a3c8a6ec010370c9cc1","6213d12a808bd3dd07be6e12","5","","","","","0","3"
"null","","","null","","","","html-keyboard-response","290","822173","0.0-290.0","5f765a3c8a6ec010370c9cc1","6213d12a808bd3dd07be6e12","","","","","<p style=""color:darkgreen;font-size:24px;"">Correct :)</p>","",""
"2944","key","n","n","6.948870588235338","500","250","psychophysics","291","825122","0.0-291.0","5f765a3c8a6ec010370c9cc1","6213d12a808bd3dd07be6e12","5","","","","","0","8"
"null","","","null","","","","html-keyboard-response","292","825624","0.0-292.0","5f765a3c8a6ec010370c9cc1","6213d12a808bd3dd07be6e12","","","","","<p style=""color:darkgreen;font-size:24px;"">Correct :)</p>","",""
"3804","key","v","v","6.948833941605858","500","250","psychophysics","293","829431","0.0-293.0","5f765a3c8a6ec010370c9cc1","6213d12a808bd3dd07be6e12","5","","","","","0","7"
"null","","","null","","","","html-keyboard-response","294","829932","0.0-294.0","5f765a3c8a6ec010370c9cc1","6213d12a808bd3dd07be6e12","","","","","<p style=""color:darkgreen;font-size:24px;"">Correct :)</p>","",""
"12210","","","n","","","","html-keyboard-response","295","842143","0.0-295.0","5f765a3c8a6ec010370c9cc1","6213d12a808bd3dd07be6e12","","","","","<p> Here, the tasks are going to switch.  For some trials, your job is to decide if the digit is less than or greater than 5.  For others, it is to decide if the digit is even or odd.  You will be told which type of trial the current one is.  But, pay attention, the type of trial changes too.  We are going to do 50 of these.  </p>  <br><br>  Ready? (press v or n)","",""
"3547","key","v","v","6.94996673189839","500","250","psychophysics","296","845693","0.0-296.0","5f765a3c8a6ec010370c9cc1","6213d12a808bd3dd07be6e12","6","","","","","1","2"
"null","","","null","","","","html-keyboard-response","297","846194","0.0-297.0","5f765a3c8a6ec010370c9cc1","6213d12a808bd3dd07be6e12","","","","","<p style=""color:darkgreen;font-size:24px;"">Correct :)</p>","",""
"2670","key","v","v","6.948885714285705","500","250","psychophysics","298","848867","0.0-298.0","5f765a3c8a6ec010370c9cc1","6213d12a808bd3dd07be6e12","6","","","","","1","1"
"null","","","null","","","","html-keyboard-response","299","849368","0.0-299.0","5f765a3c8a6ec010370c9cc1","6213d12a808bd3dd07be6e12","","","","","<p style=""color:darkgreen;font-size:24px;"">Correct :)</p>","",""
"2456","key","n","n","6.948813559322047","500","250","psychophysics","300","851828","0.0-300.0","5f765a3c8a6ec010370c9cc1","6213d12a808bd3dd07be6e12","6","","","","","1","6"
"null","","","null","","","","html-keyboard-response","301","852329","0.0-301.0","5f765a3c8a6ec010370c9cc1","6213d12a808bd3dd07be6e12","","","","","<p style=""color:darkgreen;font-size:24px;"">Correct :)</p>","",""
"2526","key","n","n","6.94874175824161","500","250","psychophysics","302","854858","0.0-302.0","5f765a3c8a6ec010370c9cc1","6213d12a808bd3dd07be6e12","6","","","","","0","8"
"null","","","null","","","","html-keyboard-response","303","855359","0.0-303.0","5f765a3c8a6ec010370c9cc1","6213d12a808bd3dd07be6e12","","","","","<p style=""color:darkgreen;font-size:24px;"">Correct :)</p>","",""
"2740","key","v","v","6.948906329113848","500","250","psychophysics","304","858103","0.0-304.0","5f765a3c8a6ec010370c9cc1","6213d12a808bd3dd07be6e12","6","","","","","0","9"
"null","","","null","","","","html-keyboard-response","305","858604","0.0-305.0","5f765a3c8a6ec010370c9cc1","6213d12a808bd3dd07be6e12","","","","","<p style=""color:darkgreen;font-size:24px;"">Correct :)</p>","",""
"2652","key","v","v","6.948829842931883","500","250","psychophysics","306","861258","0.0-306.0","5f765a3c8a6ec010370c9cc1","6213d12a808bd3dd07be6e12","6","","","","","0","3"
"null","","","null","","","","html-keyboard-response","307","861760","0.0-307.0","5f765a3c8a6ec010370c9cc1","6213d12a808bd3dd07be6e12","","","","","<p style=""color:darkgreen;font-size:24px;"">Correct :)</p>","",""
"2391","key","v","v","6.968997101449286","500","250","psychophysics","308","864161","0.0-308.0","5f765a3c8a6ec010370c9cc1","6213d12a808bd3dd07be6e12","6","","","","","1","2"
"null","","","null","","","","html-keyboard-response","309","864664","0.0-309.0","5f765a3c8a6ec010370c9cc1","6213d12a808bd3dd07be6e12","","","","","<p style=""color:darkgreen;font-size:24px;"">Correct :)</p>","",""
"2499","key","v","v","6.948783333333429","500","250","psychophysics","310","867166","0.0-310.0","5f765a3c8a6ec010370c9cc1","6213d12a808bd3dd07be6e12","6","","","","","0","1"
"null","","","null","","","","html-keyboard-response","311","867666","0.0-311.0","5f765a3c8a6ec010370c9cc1","6213d12a808bd3dd07be6e12","","","","","<p style=""color:darkgreen;font-size:24px;"">Correct :)</p>","",""
"2930","key","n","n","6.948857819905087","500","250","psychophysics","312","870600","0.0-312.0","5f765a3c8a6ec010370c9cc1","6213d12a808bd3dd07be6e12","6","","","","","0","2"
"null","","","null","","","","html-keyboard-response","313","871101","0.0-313.0","5f765a3c8a6ec010370c9cc1","6213d12a808bd3dd07be6e12","","","","","<p style=""color:darkgreen;font-size:24px;"">Correct :)</p>","",""
"3030","key","v","v","6.948873853211082","500","250","psychophysics","314","874135","0.0-314.0","5f765a3c8a6ec010370c9cc1","6213d12a808bd3dd07be6e12","6","","","","","1","3"
"null","","","null","","","","html-keyboard-response","315","874635","0.0-315.0","5f765a3c8a6ec010370c9cc1","6213d12a808bd3dd07be6e12","","","","","<p style=""color:darkgreen;font-size:24px;"">Correct :)</p>","",""
"2901","key","n","n","6.948796650717585","500","250","psychophysics","316","877539","0.0-316.0","5f765a3c8a6ec010370c9cc1","6213d12a808bd3dd07be6e12","6","","","","","0","6"
"null","","","null","","","","html-keyboard-response","317","878040","0.0-317.0","5f765a3c8a6ec010370c9cc1","6213d12a808bd3dd07be6e12","","","","","<p style=""color:darkgreen;font-size:24px;"">Correct :)</p>","",""
"2799","key","v","v","6.9489330024814935","500","250","psychophysics","318","880842","0.0-318.0","5f765a3c8a6ec010370c9cc1","6213d12a808bd3dd07be6e12","6","","","","","0","1"
"null","","","null","","","","html-keyboard-response","319","881343","0.0-319.0","5f765a3c8a6ec010370c9cc1","6213d12a808bd3dd07be6e12","","","","","<p style=""color:darkgreen;font-size:24px;"">Correct :)</p>","",""
"2460","key","n","n","6.948918079095761","500","250","psychophysics","320","883806","0.0-320.0","5f765a3c8a6ec010370c9cc1","6213d12a808bd3dd07be6e12","6","","","","","0","9"
"null","","","null","","","","html-keyboard-response","321","884308","0.0-321.0","5f765a3c8a6ec010370c9cc1","6213d12a808bd3dd07be6e12","","","","","<p style=""color:red;font-size:24px;"">Error :(</p>","",""
"3160","key","v","v","6.948793406593409","500","250","psychophysics","322","887471","0.0-322.0","5f765a3c8a6ec010370c9cc1","6213d12a808bd3dd07be6e12","6","","","","","1","2"
"null","","","null","","","","html-keyboard-response","323","887972","0.0-323.0","5f765a3c8a6ec010370c9cc1","6213d12a808bd3dd07be6e12","","","","","<p style=""color:darkgreen;font-size:24px;"">Correct :)</p>","",""
"2765","key","n","n","6.948743718592906","500","250","psychophysics","324","890741","0.0-324.0","5f765a3c8a6ec010370c9cc1","6213d12a808bd3dd07be6e12","6","","","","","0","4"
"null","","","null","","","","html-keyboard-response","325","891242","0.0-325.0","5f765a3c8a6ec010370c9cc1","6213d12a808bd3dd07be6e12","","","","","<p style=""color:darkgreen;font-size:24px;"">Correct :)</p>","",""
"3193","key","v","v","6.948780434782637","500","250","psychophysics","326","894438","0.0-326.0","5f765a3c8a6ec010370c9cc1","6213d12a808bd3dd07be6e12","6","","","","","0","9"
"null","","","null","","","","html-keyboard-response","327","894938","0.0-327.0","5f765a3c8a6ec010370c9cc1","6213d12a808bd3dd07be6e12","","","","","<p style=""color:darkgreen;font-size:24px;"">Correct :)</p>","",""
"3133","key","v","v","6.94893569844809","500","250","psychophysics","328","898074","0.0-328.0","5f765a3c8a6ec010370c9cc1","6213d12a808bd3dd07be6e12","6","","","","","1","1"
"null","","","null","","","","html-keyboard-response","329","898575","0.0-329.0","5f765a3c8a6ec010370c9cc1","6213d12a808bd3dd07be6e12","","","","","<p style=""color:darkgreen;font-size:24px;"">Correct :)</p>","",""
"3136","key","v","v","6.948860619469047","500","250","psychophysics","330","901714","0.0-330.0","5f765a3c8a6ec010370c9cc1","6213d12a808bd3dd07be6e12","6","","","","","1","4"
"null","","","null","","","","html-keyboard-response","331","902214","0.0-331.0","5f765a3c8a6ec010370c9cc1","6213d12a808bd3dd07be6e12","","","","","<p style=""color:darkgreen;font-size:24px;"">Correct :)</p>","",""
"2938","key","n","n","6.948938534279127","500","250","psychophysics","332","905155","0.0-332.0","5f765a3c8a6ec010370c9cc1","6213d12a808bd3dd07be6e12","6","","","","","0","8"
"null","","","null","","","","html-keyboard-response","333","905657","0.0-333.0","5f765a3c8a6ec010370c9cc1","6213d12a808bd3dd07be6e12","","","","","<p style=""color:darkgreen;font-size:24px;"">Correct :)</p>","",""
"3048","key","v","v","6.94886788154914","500","250","psychophysics","334","908709","0.0-334.0","5f765a3c8a6ec010370c9cc1","6213d12a808bd3dd07be6e12","6","","","","","1","2"
"null","","","null","","","","html-keyboard-response","335","909211","0.0-335.0","5f765a3c8a6ec010370c9cc1","6213d12a808bd3dd07be6e12","","","","","<p style=""color:darkgreen;font-size:24px;"">Correct :)</p>","",""
"3527","key","v","v","6.948740157480241","500","250","psychophysics","336","912741","0.0-336.0","5f765a3c8a6ec010370c9cc1","6213d12a808bd3dd07be6e12","6","","","","","0","7"
"null","","","null","","","","html-keyboard-response","337","913243","0.0-337.0","5f765a3c8a6ec010370c9cc1","6213d12a808bd3dd07be6e12","","","","","<p style=""color:darkgreen;font-size:24px;"">Correct :)</p>","",""
"2861","key","v","v","6.94882038834949","500","250","psychophysics","338","916107","0.0-338.0","5f765a3c8a6ec010370c9cc1","6213d12a808bd3dd07be6e12","6","","","","","1","1"
"null","","","null","","","","html-keyboard-response","339","916609","0.0-339.0","5f765a3c8a6ec010370c9cc1","6213d12a808bd3dd07be6e12","","","","","<p style=""color:darkgreen;font-size:24px;"">Correct :)</p>","",""
"3300","key","v","v","6.9488042105263785","500","250","psychophysics","340","919912","0.0-340.0","5f765a3c8a6ec010370c9cc1","6213d12a808bd3dd07be6e12","6","","","","","0","7"
"null","","","null","","","","html-keyboard-response","341","920413","0.0-341.0","5f765a3c8a6ec010370c9cc1","6213d12a808bd3dd07be6e12","","","","","<p style=""color:darkgreen;font-size:24px;"">Correct :)</p>","",""
"3715","key","n","n","6.948792523364363","500","250","psychophysics","342","924131","0.0-342.0","5f765a3c8a6ec010370c9cc1","6213d12a808bd3dd07be6e12","6","","","","","1","7"
"null","","","null","","","","html-keyboard-response","343","924632","0.0-343.0","5f765a3c8a6ec010370c9cc1","6213d12a808bd3dd07be6e12","","","","","<p style=""color:darkgreen;font-size:24px;"">Correct :)</p>","",""
"2667","key","n","n","6.948869791666463","500","250","psychophysics","344","927301","0.0-344.0","5f765a3c8a6ec010370c9cc1","6213d12a808bd3dd07be6e12","6","","","","","0","2"
"null","","","null","","","","html-keyboard-response","345","927803","0.0-345.0","5f765a3c8a6ec010370c9cc1","6213d12a808bd3dd07be6e12","","","","","<p style=""color:darkgreen;font-size:24px;"">Correct :)</p>","",""
"2568","key","n","n","6.948875338753413","500","250","psychophysics","346","930373","0.0-346.0","5f765a3c8a6ec010370c9cc1","6213d12a808bd3dd07be6e12","6","","","","","0","6"
"null","","","null","","","","html-keyboard-response","347","930874","0.0-347.0","5f765a3c8a6ec010370c9cc1","6213d12a808bd3dd07be6e12","","","","","<p style=""color:darkgreen;font-size:24px;"">Correct :)</p>","",""
"2453","key","n","n","6.948898016997196","500","250","psychophysics","348","933330","0.0-348.0","5f765a3c8a6ec010370c9cc1","6213d12a808bd3dd07be6e12","6","","","","","0","8"
"null","","","null","","","","html-keyboard-response","349","933832","0.0-349.0","5f765a3c8a6ec010370c9cc1","6213d12a808bd3dd07be6e12","","","","","<p style=""color:darkgreen;font-size:24px;"">Correct :)</p>","",""
"2463","key","n","n","6.94888732394361","500","250","psychophysics","350","936298","0.0-350.0","5f765a3c8a6ec010370c9cc1","6213d12a808bd3dd07be6e12","6","","","","","1","6"
"null","","","null","","","","html-keyboard-response","351","936799","0.0-351.0","5f765a3c8a6ec010370c9cc1","6213d12a808bd3dd07be6e12","","","","","<p style=""color:darkgreen;font-size:24px;"">Correct :)</p>","",""
"2728","key","v","v","6.948928753180671","500","250","psychophysics","352","939530","0.0-352.0","5f765a3c8a6ec010370c9cc1","6213d12a808bd3dd07be6e12","6","","","","","1","2"
"null","","","null","","","","html-keyboard-response","353","940031","0.0-353.0","5f765a3c8a6ec010370c9cc1","6213d12a808bd3dd07be6e12","","","","","<p style=""color:darkgreen;font-size:24px;"">Correct :)</p>","",""
"2649","key","v","v","6.948842931937131","500","250","psychophysics","354","942682","0.0-354.0","5f765a3c8a6ec010370c9cc1","6213d12a808bd3dd07be6e12","6","","","","","0","3"
"null","","","null","","","","html-keyboard-response","355","943184","0.0-355.0","5f765a3c8a6ec010370c9cc1","6213d12a808bd3dd07be6e12","","","","","<p style=""color:darkgreen;font-size:24px;"">Correct :)</p>","",""
"2457","key","v","v","6.94878531073445","500","250","psychophysics","356","945644","0.0-356.0","5f765a3c8a6ec010370c9cc1","6213d12a808bd3dd07be6e12","6","","","","","0","2"
"null","","","null","","","","html-keyboard-response","357","946153","0.0-357.0","5f765a3c8a6ec010370c9cc1","6213d12a808bd3dd07be6e12","","","","","<p style=""color:red;font-size:24px;"">Error :(</p>","",""
"2816","key","v","v","6.948827586206722","500","250","psychophysics","358","948971","0.0-358.0","5f765a3c8a6ec010370c9cc1","6213d12a808bd3dd07be6e12","6","","","","","0","7"
"null","","","null","","","","html-keyboard-response","359","949472","0.0-359.0","5f765a3c8a6ec010370c9cc1","6213d12a808bd3dd07be6e12","","","","","<p style=""color:darkgreen;font-size:24px;"">Correct :)</p>","",""
"3163","key","n","n","6.948815384615151","500","250","psychophysics","360","952638","0.0-360.0","5f765a3c8a6ec010370c9cc1","6213d12a808bd3dd07be6e12","6","","","","","0","2"
"null","","","null","","","","html-keyboard-response","361","953139","0.0-361.0","5f765a3c8a6ec010370c9cc1","6213d12a808bd3dd07be6e12","","","","","<p style=""color:darkgreen;font-size:24px;"">Correct :)</p>","",""
"2667","key","v","v","6.948864583333186","500","250","psychophysics","362","955810","0.0-362.0","5f765a3c8a6ec010370c9cc1","6213d12a808bd3dd07be6e12","6","","","","","1","2"
"null","","","null","","","","html-keyboard-response","363","956319","0.0-363.0","5f765a3c8a6ec010370c9cc1","6213d12a808bd3dd07be6e12","","","","","<p style=""color:darkgreen;font-size:24px;"">Correct :)</p>","",""
"2476","key","v","v","6.94874229691877","500","250","psychophysics","364","958798","0.0-364.0","5f765a3c8a6ec010370c9cc1","6213d12a808bd3dd07be6e12","6","","","","","1","2"
"null","","","null","","","","html-keyboard-response","365","959300","0.0-365.0","5f765a3c8a6ec010370c9cc1","6213d12a808bd3dd07be6e12","","","","","<p style=""color:darkgreen;font-size:24px;"">Correct :)</p>","",""
"3548","key","v","v","6.948904109589068","500","250","psychophysics","366","962850","0.0-366.0","5f765a3c8a6ec010370c9cc1","6213d12a808bd3dd07be6e12","6","","","","","1","1"
"null","","","null","","","","html-keyboard-response","367","963351","0.0-367.0","5f765a3c8a6ec010370c9cc1","6213d12a808bd3dd07be6e12","","","","","<p style=""color:darkgreen;font-size:24px;"">Correct :)</p>","",""
"2538","key","v","v","6.948832876712071","500","250","psychophysics","368","965893","0.0-368.0","5f765a3c8a6ec010370c9cc1","6213d12a808bd3dd07be6e12","6","","","","","1","3"
"null","","","null","","","","html-keyboard-response","369","966394","0.0-369.0","5f765a3c8a6ec010370c9cc1","6213d12a808bd3dd07be6e12","","","","","<p style=""color:darkgreen;font-size:24px;"">Correct :)</p>","",""
"2905","key","v","v","6.948883054892728","500","250","psychophysics","370","969302","0.0-370.0","5f765a3c8a6ec010370c9cc1","6213d12a808bd3dd07be6e12","6","","","","","0","3"
"null","","","null","","","","html-keyboard-response","371","969804","0.0-371.0","5f765a3c8a6ec010370c9cc1","6213d12a808bd3dd07be6e12","","","","","<p style=""color:darkgreen;font-size:24px;"">Correct :)</p>","",""
"2878","key","n","n","6.948831325301239","500","250","psychophysics","372","972686","0.0-372.0","5f765a3c8a6ec010370c9cc1","6213d12a808bd3dd07be6e12","6","","","","","0","6"
"null","","","null","","","","html-keyboard-response","373","973187","0.0-373.0","5f765a3c8a6ec010370c9cc1","6213d12a808bd3dd07be6e12","","","","","<p style=""color:darkgreen;font-size:24px;"">Correct :)</p>","",""
"3006","key","v","v","6.948870669746036","500","250","psychophysics","374","976196","0.0-374.0","5f765a3c8a6ec010370c9cc1","6213d12a808bd3dd07be6e12","6","","","","","1","3"
"null","","","null","","","","html-keyboard-response","375","976697","0.0-375.0","5f765a3c8a6ec010370c9cc1","6213d12a808bd3dd07be6e12","","","","","<p style=""color:darkgreen;font-size:24px;"">Correct :)</p>","",""
"3098","key","n","n","6.948854260089715","500","250","psychophysics","376","979798","0.0-376.0","5f765a3c8a6ec010370c9cc1","6213d12a808bd3dd07be6e12","6","","","","","1","7"
"null","","","null","","","","html-keyboard-response","377","980299","0.0-377.0","5f765a3c8a6ec010370c9cc1","6213d12a808bd3dd07be6e12","","","","","<p style=""color:darkgreen;font-size:24px;"">Correct :)</p>","",""
"3406","key","n","n","6.948830612244949","500","250","psychophysics","378","983708","0.0-378.0","5f765a3c8a6ec010370c9cc1","6213d12a808bd3dd07be6e12","6","","","","","1","6"
"null","","","null","","","","html-keyboard-response","379","984210","0.0-379.0","5f765a3c8a6ec010370c9cc1","6213d12a808bd3dd07be6e12","","","","","<p style=""color:darkgreen;font-size:24px;"">Correct :)</p>","",""
"3197","key","n","n","6.948843817787453","500","250","psychophysics","380","987410","0.0-380.0","5f765a3c8a6ec010370c9cc1","6213d12a808bd3dd07be6e12","6","","","","","0","2"
"null","","","null","","","","html-keyboard-response","381","987921","0.0-381.0","5f765a3c8a6ec010370c9cc1","6213d12a808bd3dd07be6e12","","","","","<p style=""color:darkgreen;font-size:24px;"">Correct :)</p>","",""
"2730","key","n","n","6.948855329949059","500","250","psychophysics","382","990655","0.0-382.0","5f765a3c8a6ec010370c9cc1","6213d12a808bd3dd07be6e12","6","","","","","0","8"
"null","","","null","","","","html-keyboard-response","383","991156","0.0-383.0","5f765a3c8a6ec010370c9cc1","6213d12a808bd3dd07be6e12","","","","","<p style=""color:darkgreen;font-size:24px;"">Correct :)</p>","",""
"3130","key","n","n","6.948796008869194","500","250","psychophysics","384","994289","0.0-384.0","5f765a3c8a6ec010370c9cc1","6213d12a808bd3dd07be6e12","6","","","","","1","6"
"null","","","null","","","","html-keyboard-response","385","994799","0.0-385.0","5f765a3c8a6ec010370c9cc1","6213d12a808bd3dd07be6e12","","","","","<p style=""color:darkgreen;font-size:24px;"">Correct :)</p>","",""
"2942","key","v","v","6.9489150943395455","500","250","psychophysics","386","997744","0.0-386.0","5f765a3c8a6ec010370c9cc1","6213d12a808bd3dd07be6e12","6","","","","","1","4"
"null","","","null","","","","html-keyboard-response","387","998245","0.0-387.0","5f765a3c8a6ec010370c9cc1","6213d12a808bd3dd07be6e12","","","","","<p style=""color:darkgreen;font-size:24px;"">Correct :)</p>","",""
"2498","key","v","v","6.948899999999816","500","250","psychophysics","388","1000747","0.0-388.0","5f765a3c8a6ec010370c9cc1","6213d12a808bd3dd07be6e12","6","","","","","1","2"
"null","","","null","","","","html-keyboard-response","389","1001248","0.0-389.0","5f765a3c8a6ec010370c9cc1","6213d12a808bd3dd07be6e12","","","","","<p style=""color:darkgreen;font-size:24px;"">Correct :)</p>","",""
"3289","key","n","n","6.948831223628536","500","250","psychophysics","390","1004540","0.0-390.0","5f765a3c8a6ec010370c9cc1","6213d12a808bd3dd07be6e12","6","","","","","0","2"
"null","","","null","","","","html-keyboard-response","391","1005042","0.0-391.0","5f765a3c8a6ec010370c9cc1","6213d12a808bd3dd07be6e12","","","","","<p style=""color:darkgreen;font-size:24px;"">Correct :)</p>","",""
"3853","key","n","n","6.9488270270268995","500","250","psychophysics","392","1008898","0.0-392.0","5f765a3c8a6ec010370c9cc1","6213d12a808bd3dd07be6e12","6","","","","","0","8"
"null","","","null","","","","html-keyboard-response","393","1009399","0.0-393.0","5f765a3c8a6ec010370c9cc1","6213d12a808bd3dd07be6e12","","","","","<p style=""color:darkgreen;font-size:24px;"">Correct :)</p>","",""
"3665","key","n","n","6.94890151515155","500","250","psychophysics","394","1013067","0.0-394.0","5f765a3c8a6ec010370c9cc1","6213d12a808bd3dd07be6e12","6","","","","","0","8"
"null","","","null","","","","html-keyboard-response","395","1013568","0.0-395.0","5f765a3c8a6ec010370c9cc1","6213d12a808bd3dd07be6e12","","","","","<p style=""color:darkgreen;font-size:24px;"">Correct :)</p>","",""
"5833","","","n","","","","html-keyboard-response","396","1019402","0.0-396.0","5f765a3c8a6ec010370c9cc1","6213d12a808bd3dd07be6e12","","","","","<p> Last set of trials.  Here, the tasks are going to switch once again.  We are going to do 50 of these.  And then you are done with the experiment.  </p>  <br><br>  Ready? (press v or n)","",""
"3129","key","v","v","6.950082222222247","500","250","psychophysics","397","1022534","0.0-397.0","5f765a3c8a6ec010370c9cc1","6213d12a808bd3dd07be6e12","7","","","","","1","1"
"null","","","null","","","","html-keyboard-response","398","1023035","0.0-398.0","5f765a3c8a6ec010370c9cc1","6213d12a808bd3dd07be6e12","","","","","<p style=""color:darkgreen;font-size:24px;"">Correct :)</p>","",""
"2986","key","v","v","6.9488767441860295","500","250","psychophysics","399","1026024","0.0-399.0","5f765a3c8a6ec010370c9cc1","6213d12a808bd3dd07be6e12","7","","","","","1","4"
"null","","","null","","","","html-keyboard-response","400","1026526","0.0-400.0","5f765a3c8a6ec010370c9cc1","6213d12a808bd3dd07be6e12","","","","","<p style=""color:darkgreen;font-size:24px;"">Correct :)</p>","",""
"3150","key","n","n","6.948814977973542","500","250","psychophysics","401","1029679","0.0-401.0","5f765a3c8a6ec010370c9cc1","6213d12a808bd3dd07be6e12","7","","","","","1","6"
"null","","","null","","","","html-keyboard-response","402","1030189","0.0-402.0","5f765a3c8a6ec010370c9cc1","6213d12a808bd3dd07be6e12","","","","","<p style=""color:darkgreen;font-size:24px;"">Correct :)</p>","",""
"2704","key","v","v","6.94895897435908","500","250","psychophysics","403","1032897","0.0-403.0","5f765a3c8a6ec010370c9cc1","6213d12a808bd3dd07be6e12","7","","","","","0","3"
"null","","","null","","","","html-keyboard-response","404","1033397","0.0-404.0","5f765a3c8a6ec010370c9cc1","6213d12a808bd3dd07be6e12","","","","","<p style=""color:darkgreen;font-size:24px;"">Correct :)</p>","",""
"3296","key","n","n","6.948829473684248","500","250","psychophysics","405","1036697","0.0-405.0","5f765a3c8a6ec010370c9cc1","6213d12a808bd3dd07be6e12","7","","","","","0","6"
"null","","","null","","","","html-keyboard-response","406","1037198","0.0-406.0","5f765a3c8a6ec010370c9cc1","6213d12a808bd3dd07be6e12","","","","","<p style=""color:darkgreen;font-size:24px;"">Correct :)</p>","",""
"3278","key","v","v","6.948766949152479","500","250","psychophysics","407","1040479","0.0-407.0","5f765a3c8a6ec010370c9cc1","6213d12a808bd3dd07be6e12","7","","","","","1","7"
"null","","","null","","","","html-keyboard-response","408","1040995","0.0-408.0","5f765a3c8a6ec010370c9cc1","6213d12a808bd3dd07be6e12","","","","","<p style=""color:red;font-size:24px;"">Error :(</p>","",""
"3138","key","n","n","6.948827433628308","500","250","psychophysics","409","1044136","0.0-409.0","5f765a3c8a6ec010370c9cc1","6213d12a808bd3dd07be6e12","7","","","","","0","2"
"null","","","null","","","","html-keyboard-response","410","1044646","0.0-410.0","5f765a3c8a6ec010370c9cc1","6213d12a808bd3dd07be6e12","","","","","<p style=""color:darkgreen;font-size:24px;"">Correct :)</p>","",""
"3621","key","n","n","6.948896353166763","500","250","psychophysics","411","1048270","0.0-411.0","5f765a3c8a6ec010370c9cc1","6213d12a808bd3dd07be6e12","7","","","","","0","2"
"null","","","null","","","","html-keyboard-response","412","1048771","0.0-412.0","5f765a3c8a6ec010370c9cc1","6213d12a808bd3dd07be6e12","","","","","<p style=""color:darkgreen;font-size:24px;"">Correct :)</p>","",""
"2976","key","v","v","6.948859813084029","500","250","psychophysics","413","1051751","0.0-413.0","5f765a3c8a6ec010370c9cc1","6213d12a808bd3dd07be6e12","7","","","","","1","3"
"null","","","null","","","","html-keyboard-response","414","1052252","0.0-414.0","5f765a3c8a6ec010370c9cc1","6213d12a808bd3dd07be6e12","","","","","<p style=""color:darkgreen;font-size:24px;"">Correct :)</p>","",""
"3465","key","v","v","6.948829659318667","500","250","psychophysics","415","1055720","0.0-415.0","5f765a3c8a6ec010370c9cc1","6213d12a808bd3dd07be6e12","7","","","","","0","7"
"null","","","null","","","","html-keyboard-response","416","1056223","0.0-416.0","5f765a3c8a6ec010370c9cc1","6213d12a808bd3dd07be6e12","","","","","<p style=""color:darkgreen;font-size:24px;"">Correct :)</p>","",""
"3743","key","v","v","6.948879406307971","500","250","psychophysics","417","1059969","0.0-417.0","5f765a3c8a6ec010370c9cc1","6213d12a808bd3dd07be6e12","7","","","","","1","2"
"null","","","null","","","","html-keyboard-response","418","1060470","0.0-418.0","5f765a3c8a6ec010370c9cc1","6213d12a808bd3dd07be6e12","","","","","<p style=""color:darkgreen;font-size:24px;"">Correct :)</p>","",""
"2541","key","n","n","6.948887978141613","500","250","psychophysics","419","1063015","0.0-419.0","5f765a3c8a6ec010370c9cc1","6213d12a808bd3dd07be6e12","7","","","","","1","6"
"null","","","null","","","","html-keyboard-response","420","1063520","0.0-420.0","5f765a3c8a6ec010370c9cc1","6213d12a808bd3dd07be6e12","","","","","<p style=""color:darkgreen;font-size:24px;"">Correct :)</p>","",""
"3374","key","v","v","6.948858024690917","500","250","psychophysics","421","1066897","0.0-421.0","5f765a3c8a6ec010370c9cc1","6213d12a808bd3dd07be6e12","7","","","","","0","3"
"null","","","null","","","","html-keyboard-response","422","1067398","0.0-422.0","5f765a3c8a6ec010370c9cc1","6213d12a808bd3dd07be6e12","","","","","<p style=""color:darkgreen;font-size:24px;"">Correct :)</p>","",""
"2636","key","v","v","6.948828947368249","500","250","psychophysics","423","1070037","0.0-423.0","5f765a3c8a6ec010370c9cc1","6213d12a808bd3dd07be6e12","7","","","","","1","1"
"null","","","null","","","","html-keyboard-response","424","1070553","0.0-424.0","5f765a3c8a6ec010370c9cc1","6213d12a808bd3dd07be6e12","","","","","<p style=""color:darkgreen;font-size:24px;"">Correct :)</p>","",""
"2589","key","v","v","6.948852546916945","500","250","psychophysics","425","1073146","0.0-425.0","5f765a3c8a6ec010370c9cc1","6213d12a808bd3dd07be6e12","7","","","","","1","2"
"null","","","null","","","","html-keyboard-response","426","1073647","0.0-426.0","5f765a3c8a6ec010370c9cc1","6213d12a808bd3dd07be6e12","","","","","<p style=""color:darkgreen;font-size:24px;"">Correct :)</p>","",""
"2665","key","v","v","6.948757812500237","500","250","psychophysics","427","1076316","0.0-427.0","5f765a3c8a6ec010370c9cc1","6213d12a808bd3dd07be6e12","7","","","","","1","4"
"null","","","null","","","","html-keyboard-response","428","1076817","0.0-428.0","5f765a3c8a6ec010370c9cc1","6213d12a808bd3dd07be6e12","","","","","<p style=""color:darkgreen;font-size:24px;"">Correct :)</p>","",""
"2438","key","v","v","6.94890883190828","500","250","psychophysics","429","1079258","0.0-429.0","5f765a3c8a6ec010370c9cc1","6213d12a808bd3dd07be6e12","7","","","","","1","3"
"null","","","null","","","","html-keyboard-response","430","1079759","0.0-430.0","5f765a3c8a6ec010370c9cc1","6213d12a808bd3dd07be6e12","","","","","<p style=""color:darkgreen;font-size:24px;"">Correct :)</p>","",""
"3389","key","v","v","6.948842213114582","500","250","psychophysics","431","1083151","0.0-431.0","5f765a3c8a6ec010370c9cc1","6213d12a808bd3dd07be6e12","7","","","","","0","1"
"null","","","null","","","","html-keyboard-response","432","1083658","0.0-432.0","5f765a3c8a6ec010370c9cc1","6213d12a808bd3dd07be6e12","","","","","<p style=""color:darkgreen;font-size:24px;"">Correct :)</p>","",""
"4047","key","n","n","6.948768439108033","500","250","psychophysics","433","1087709","0.0-433.0","5f765a3c8a6ec010370c9cc1","6213d12a808bd3dd07be6e12","7","","","","","1","7"
"null","","","null","","","","html-keyboard-response","434","1088210","0.0-434.0","5f765a3c8a6ec010370c9cc1","6213d12a808bd3dd07be6e12","","","","","<p style=""color:darkgreen;font-size:24px;"">Correct :)</p>","",""
"3223","key","v","v","6.948905172413577","500","250","psychophysics","435","1091437","0.0-435.0","5f765a3c8a6ec010370c9cc1","6213d12a808bd3dd07be6e12","7","","","","","0","7"
"null","","","null","","","","html-keyboard-response","436","1091938","0.0-436.0","5f765a3c8a6ec010370c9cc1","6213d12a808bd3dd07be6e12","","","","","<p style=""color:darkgreen;font-size:24px;"">Correct :)</p>","",""
"3414","key","v","v","6.948800407332044","500","250","psychophysics","437","1095355","0.0-437.0","5f765a3c8a6ec010370c9cc1","6213d12a808bd3dd07be6e12","7","","","","","0","3"
"null","","","null","","","","html-keyboard-response","438","1095863","0.0-438.0","5f765a3c8a6ec010370c9cc1","6213d12a808bd3dd07be6e12","","","","","<p style=""color:darkgreen;font-size:24px;"">Correct :)</p>","",""
"3107","key","n","n","6.948872767857081","500","250","psychophysics","439","1098973","0.0-439.0","5f765a3c8a6ec010370c9cc1","6213d12a808bd3dd07be6e12","7","","","","","0","2"
"null","","","null","","","","html-keyboard-response","440","1099474","0.0-440.0","5f765a3c8a6ec010370c9cc1","6213d12a808bd3dd07be6e12","","","","","<p style=""color:darkgreen;font-size:24px;"">Correct :)</p>","",""
"4741","key","v","v","6.948797950219761","500","250","psychophysics","441","1104218","0.0-441.0","5f765a3c8a6ec010370c9cc1","6213d12a808bd3dd07be6e12","7","","","","","0","3"
"null","","","null","","","","html-keyboard-response","442","1104720","0.0-442.0","5f765a3c8a6ec010370c9cc1","6213d12a808bd3dd07be6e12","","","","","<p style=""color:darkgreen;font-size:24px;"">Correct :)</p>","",""
"3883","key","v","v","6.948822898032187","500","250","psychophysics","443","1108607","0.0-443.0","5f765a3c8a6ec010370c9cc1","6213d12a808bd3dd07be6e12","7","","","","","1","1"
"null","","","null","","","","html-keyboard-response","444","1109108","0.0-444.0","5f765a3c8a6ec010370c9cc1","6213d12a808bd3dd07be6e12","","","","","<p style=""color:darkgreen;font-size:24px;"">Correct :)</p>","",""
"3516","key","n","n","6.9488537549404725","500","250","psychophysics","445","1112626","0.0-445.0","5f765a3c8a6ec010370c9cc1","6213d12a808bd3dd07be6e12","7","","","","","1","7"
"null","","","null","","","","html-keyboard-response","446","1113127","0.0-446.0","5f765a3c8a6ec010370c9cc1","6213d12a808bd3dd07be6e12","","","","","<p style=""color:darkgreen;font-size:24px;"">Correct :)</p>","",""
"3297","key","n","n","6.948825263157977","500","250","psychophysics","447","1116427","0.0-447.0","5f765a3c8a6ec010370c9cc1","6213d12a808bd3dd07be6e12","7","","","","","0","6"
"null","","","null","","","","html-keyboard-response","448","1116928","0.0-448.0","5f765a3c8a6ec010370c9cc1","6213d12a808bd3dd07be6e12","","","","","<p style=""color:darkgreen;font-size:24px;"">Correct :)</p>","",""
"26397","key","v","v","27.905152219873123","500","250","psychophysics","449","1143328","0.0-449.0","5f765a3c8a6ec010370c9cc1","6213d12a808bd3dd07be6e12","7","","","","","1","2"
"null","","","null","","","","html-keyboard-response","450","1143828","0.0-450.0","5f765a3c8a6ec010370c9cc1","6213d12a808bd3dd07be6e12","","","","","<p style=""color:darkgreen;font-size:24px;"">Correct :)</p>","",""
"5071","key","v","v","6.948786301369944","500","250","psychophysics","451","1148903","0.0-451.0","5f765a3c8a6ec010370c9cc1","6213d12a808bd3dd07be6e12","7","","","","","0","7"
"null","","","null","","","","html-keyboard-response","452","1149404","0.0-452.0","5f765a3c8a6ec010370c9cc1","6213d12a808bd3dd07be6e12","","","","","<p style=""color:darkgreen;font-size:24px;"">Correct :)</p>","",""
"3854","key","v","v","6.948765765765665","500","250","psychophysics","453","1153262","0.0-453.0","5f765a3c8a6ec010370c9cc1","6213d12a808bd3dd07be6e12","7","","","","","0","7"
"null","","","null","","","","html-keyboard-response","454","1153763","0.0-454.0","5f765a3c8a6ec010370c9cc1","6213d12a808bd3dd07be6e12","","","","","<p style=""color:darkgreen;font-size:24px;"">Correct :)</p>","",""
"2625","key","n","n","6.948798941798809","500","250","psychophysics","455","1156392","0.0-455.0","5f765a3c8a6ec010370c9cc1","6213d12a808bd3dd07be6e12","7","","","","","0","4"
"null","","","null","","","","html-keyboard-response","456","1156892","0.0-456.0","5f765a3c8a6ec010370c9cc1","6213d12a808bd3dd07be6e12","","","","","<p style=""color:darkgreen;font-size:24px;"">Correct :)</p>","",""
"3114","key","n","n","6.948839643652777","500","250","psychophysics","457","1160009","0.0-457.0","5f765a3c8a6ec010370c9cc1","6213d12a808bd3dd07be6e12","7","","","","","0","6"
"null","","","null","","","","html-keyboard-response","458","1160512","0.0-458.0","5f765a3c8a6ec010370c9cc1","6213d12a808bd3dd07be6e12","","","","","<p style=""color:darkgreen;font-size:24px;"">Correct :)</p>","",""
"3615","key","v","v","6.94875623800411","500","250","psychophysics","459","1164131","0.0-459.0","5f765a3c8a6ec010370c9cc1","6213d12a808bd3dd07be6e12","7","","","","","0","3"
"null","","","null","","","","html-keyboard-response","460","1164632","0.0-460.0","5f765a3c8a6ec010370c9cc1","6213d12a808bd3dd07be6e12","","","","","<p style=""color:darkgreen;font-size:24px;"">Correct :)</p>","",""
"3553","key","v","v","6.948921874999996","500","250","psychophysics","461","1168188","0.0-461.0","5f765a3c8a6ec010370c9cc1","6213d12a808bd3dd07be6e12","7","","","","","1","2"
"null","","","null","","","","html-keyboard-response","462","1168689","0.0-462.0","5f765a3c8a6ec010370c9cc1","6213d12a808bd3dd07be6e12","","","","","<p style=""color:darkgreen;font-size:24px;"">Correct :)</p>","",""
"5362","key","v","v","6.948792746114132","500","250","psychophysics","463","1174054","0.0-463.0","5f765a3c8a6ec010370c9cc1","6213d12a808bd3dd07be6e12","7","","","","","0","3"
"null","","","null","","","","html-keyboard-response","464","1174555","0.0-464.0","5f765a3c8a6ec010370c9cc1","6213d12a808bd3dd07be6e12","","","","","<p style=""color:darkgreen;font-size:24px;"">Correct :)</p>","",""
"4143","key","v","v","6.948770519262928","500","250","psychophysics","465","1178702","0.0-465.0","5f765a3c8a6ec010370c9cc1","6213d12a808bd3dd07be6e12","7","","","","","0","3"
"null","","","null","","","","html-keyboard-response","466","1179203","0.0-466.0","5f765a3c8a6ec010370c9cc1","6213d12a808bd3dd07be6e12","","","","","<p style=""color:darkgreen;font-size:24px;"">Correct :)</p>","",""
"3916","key","n","n","6.948804964538885","500","250","psychophysics","467","1183122","0.0-467.0","5f765a3c8a6ec010370c9cc1","6213d12a808bd3dd07be6e12","7","","","","","1","6"
"null","","","null","","","","html-keyboard-response","468","1183623","0.0-468.0","5f765a3c8a6ec010370c9cc1","6213d12a808bd3dd07be6e12","","","","","<p style=""color:darkgreen;font-size:24px;"">Correct :)</p>","",""
"3242","key","v","v","6.948867237687458","500","250","psychophysics","469","1186867","0.0-469.0","5f765a3c8a6ec010370c9cc1","6213d12a808bd3dd07be6e12","7","","","","","0","3"
"null","","","null","","","","html-keyboard-response","470","1187368","0.0-470.0","5f765a3c8a6ec010370c9cc1","6213d12a808bd3dd07be6e12","","","","","<p style=""color:darkgreen;font-size:24px;"">Correct :)</p>","",""
"3658","key","n","n","6.948851992409725","500","250","psychophysics","471","1191029","0.0-471.0","5f765a3c8a6ec010370c9cc1","6213d12a808bd3dd07be6e12","7","","","","","0","6"
"null","","","null","","","","html-keyboard-response","472","1191530","0.0-472.0","5f765a3c8a6ec010370c9cc1","6213d12a808bd3dd07be6e12","","","","","<p style=""color:darkgreen;font-size:24px;"">Correct :)</p>","",""
"2896","key","v","v","6.948880095923168","500","250","psychophysics","473","1194429","0.0-473.0","5f765a3c8a6ec010370c9cc1","6213d12a808bd3dd07be6e12","7","","","","","1","3"
"null","","","null","","","","html-keyboard-response","474","1194929","0.0-474.0","5f765a3c8a6ec010370c9cc1","6213d12a808bd3dd07be6e12","","","","","<p style=""color:darkgreen;font-size:24px;"">Correct :)</p>","",""
"3199","key","n","n","6.948741865509499","500","250","psychophysics","475","1198132","0.0-475.0","5f765a3c8a6ec010370c9cc1","6213d12a808bd3dd07be6e12","7","","","","","1","6"
"null","","","null","","","","html-keyboard-response","476","1198633","0.0-476.0","5f765a3c8a6ec010370c9cc1","6213d12a808bd3dd07be6e12","","","","","<p style=""color:darkgreen;font-size:24px;"">Correct :)</p>","",""
"3819","key","v","v","6.948832727272741","500","250","psychophysics","477","1202455","0.0-477.0","5f765a3c8a6ec010370c9cc1","6213d12a808bd3dd07be6e12","7","","","","","1","3"
"null","","","null","","","","html-keyboard-response","478","1202957","0.0-478.0","5f765a3c8a6ec010370c9cc1","6213d12a808bd3dd07be6e12","","","","","<p style=""color:darkgreen;font-size:24px;"">Correct :)</p>","",""
"3513","key","n","n","6.948784584980164","500","250","psychophysics","479","1206474","0.0-479.0","5f765a3c8a6ec010370c9cc1","6213d12a808bd3dd07be6e12","7","","","","","1","7"
"null","","","null","","","","html-keyboard-response","480","1206975","0.0-480.0","5f765a3c8a6ec010370c9cc1","6213d12a808bd3dd07be6e12","","","","","<p style=""color:darkgreen;font-size:24px;"">Correct :)</p>","",""
"3397","key","v","v","6.948809815951145","500","250","psychophysics","481","1210377","0.0-481.0","5f765a3c8a6ec010370c9cc1","6213d12a808bd3dd07be6e12","7","","","","","1","7"
"null","","","null","","","","html-keyboard-response","482","1210878","0.0-482.0","5f765a3c8a6ec010370c9cc1","6213d12a808bd3dd07be6e12","","","","","<p style=""color:red;font-size:24px;"">Error :(</p>","",""
"3063","key","n","n","6.948866213151822","500","250","psychophysics","483","1213944","0.0-483.0","5f765a3c8a6ec010370c9cc1","6213d12a808bd3dd07be6e12","7","","","","","1","6"
"null","","","null","","","","html-keyboard-response","484","1214446","0.0-484.0","5f765a3c8a6ec010370c9cc1","6213d12a808bd3dd07be6e12","","","","","<p style=""color:darkgreen;font-size:24px;"">Correct :)</p>","",""
"3627","key","n","n","6.948773946360171","500","250","psychophysics","485","1218076","0.0-485.0","5f765a3c8a6ec010370c9cc1","6213d12a808bd3dd07be6e12","7","","","","","1","6"
"null","","","null","","","","html-keyboard-response","486","1218578","0.0-486.0","5f765a3c8a6ec010370c9cc1","6213d12a808bd3dd07be6e12","","","","","<p style=""color:darkgreen;font-size:24px;"">Correct :)</p>","",""
"3121","key","v","v","6.948886666666819","500","250","psychophysics","487","1221702","0.0-487.0","5f765a3c8a6ec010370c9cc1","6213d12a808bd3dd07be6e12","7","","","","","1","1"
"null","","","null","","","","html-keyboard-response","488","1222203","0.0-488.0","5f765a3c8a6ec010370c9cc1","6213d12a808bd3dd07be6e12","","","","","<p style=""color:darkgreen;font-size:24px;"">Correct :)</p>","",""
"4708","key","v","v","6.9488008849557685","500","250","psychophysics","489","1226913","0.0-489.0","5f765a3c8a6ec010370c9cc1","6213d12a808bd3dd07be6e12","7","","","","","0","7"
"null","","","null","","","","html-keyboard-response","490","1227414","0.0-490.0","5f765a3c8a6ec010370c9cc1","6213d12a808bd3dd07be6e12","","","","","<p style=""color:darkgreen;font-size:24px;"">Correct :)</p>","",""
"3603","key","v","v","6.948830443159865","500","250","psychophysics","491","1231020","0.0-491.0","5f765a3c8a6ec010370c9cc1","6213d12a808bd3dd07be6e12","7","","","","","0","1"
"null","","","null","","","","html-keyboard-response","492","1231521","0.0-492.0","5f765a3c8a6ec010370c9cc1","6213d12a808bd3dd07be6e12","","","","","<p style=""color:darkgreen;font-size:24px;"">Correct :)</p>","",""
"4445","key","n","n","6.94881562499977","500","250","psychophysics","493","1235969","0.0-493.0","5f765a3c8a6ec010370c9cc1","6213d12a808bd3dd07be6e12","7","","","","","1","6"
"null","","","null","","","","html-keyboard-response","494","1236470","0.0-494.0","5f765a3c8a6ec010370c9cc1","6213d12a808bd3dd07be6e12","","","","","<p style=""color:darkgreen;font-size:24px;"">Correct :)</p>","",""
"3526","key","n","n","6.948812992125933","500","250","psychophysics","495","1239999","0.0-495.0","5f765a3c8a6ec010370c9cc1","6213d12a808bd3dd07be6e12","7","","","","","0","6"
"null","","","null","","","","html-keyboard-response","496","1240500","0.0-496.0","5f765a3c8a6ec010370c9cc1","6213d12a808bd3dd07be6e12","","","","","<p style=""color:darkgreen;font-size:24px;"">Correct :)</p>","",""
