"rt","response_type","key_press","response","avg_frame_time","center_x","center_y","trial_type","trial_index","time_elapsed","internal_node_id","pid","sid","phase","guide","targ","resp","stimulus","is5","stim"
"3847","key"," "," ","16.674847161572057","500","250","psychophysics","0","3851","0.0-0.0","6100c28ed43a1dea00f08633","6213c41f3954c8a6ca889b3c","","","","","","",""
"3231","key"," "," ","16.666735751295327","500","250","psychophysics","1","7082","0.0-1.0","6100c28ed43a1dea00f08633","6213c41f3954c8a6ca889b3c","","","","","","",""
"2344","key"," "," ","16.67999999999999","500","250","psychophysics","2","9428","0.0-2.0","6100c28ed43a1dea00f08633","6213c41f3954c8a6ca889b3c","","","","","","",""
"1827","key"," "," ","16.821111111111115","500","250","psychophysics","3","11261","0.0-3.0","6100c28ed43a1dea00f08633","6213c41f3954c8a6ca889b3c","","","","","","",""
"2546","key"," "," ","16.67934210526316","500","250","psychophysics","4","13813","0.0-4.0","6100c28ed43a1dea00f08633","6213c41f3954c8a6ca889b3c","","","","","","",""
"6705","key"," "," ","16.671194029850746","500","250","psychophysics","5","20525","0.0-5.0","6100c28ed43a1dea00f08633","6213c41f3954c8a6ca889b3c","","","","","","",""
"5092","key"," "," ","16.672786885245905","500","250","psychophysics","6","25620","0.0-6.0","6100c28ed43a1dea00f08633","6213c41f3954c8a6ca889b3c","","","","","","",""
"2597","key"," "," ","16.666709677419355","500","250","psychophysics","7","28220","0.0-7.0","6100c28ed43a1dea00f08633","6213c41f3954c8a6ca889b3c","","","","","","",""
"17782","key"," "," ","16.671906103286382","500","250","psychophysics","8","46004","0.0-8.0","6100c28ed43a1dea00f08633","6213c41f3954c8a6ca889b3c","0","0","46","42","","",""
"3598","key"," "," ","16.675069767441858","500","250","psychophysics","9","49603","0.0-9.0","6100c28ed43a1dea00f08633","6213c41f3954c8a6ca889b3c","","","","","","",""
"4500","key"," "," ","16.728805970149253","500","250","psychophysics","10","54107","0.0-10.0","6100c28ed43a1dea00f08633","6213c41f3954c8a6ca889b3c","","","","","","",""
"4139","key"," "," ","16.674274193548392","500","250","psychophysics","11","58252","0.0-11.0","6100c28ed43a1dea00f08633","6213c41f3954c8a6ca889b3c","","","","","","",""
"3333","key"," "," ","16.666733668341745","500","250","psychophysics","12","61587","0.0-12.0","6100c28ed43a1dea00f08633","6213c41f3954c8a6ca889b3c","","","","","","",""
"2832","key"," "," ","16.677869822485192","500","250","psychophysics","13","64421","0.0-13.0","6100c28ed43a1dea00f08633","6213c41f3954c8a6ca889b3c","","","","","","",""
"3474","key"," "," ","16.67548076923077","500","250","psychophysics","14","67908","0.0-14.0","6100c28ed43a1dea00f08633","6213c41f3954c8a6ca889b3c","","","","","","",""
"6391","key"," "," ","16.67148825065272","500","250","psychophysics","15","74308","0.0-15.0","6100c28ed43a1dea00f08633","6213c41f3954c8a6ca889b3c","","","","","","",""
"4077","key"," "," ","16.66672131147538","500","250","psychophysics","16","78388","0.0-16.0","6100c28ed43a1dea00f08633","6213c41f3954c8a6ca889b3c","","","","","","",""
"8741","key"," "," ","16.673804971319328","500","250","psychophysics","17","87132","0.0-17.0","6100c28ed43a1dea00f08633","6213c41f3954c8a6ca889b3c","1","0","42","49","","",""
"8614","key"," "," ","16.67027131782946","500","250","psychophysics","18","95755","0.0-18.0","6100c28ed43a1dea00f08633","6213c41f3954c8a6ca889b3c","1","5","54","54","","",""
"10269","key"," "," ","16.672792207792213","500","250","psychophysics","19","106027","0.0-19.0","6100c28ed43a1dea00f08633","6213c41f3954c8a6ca889b3c","1","0","44","55","","",""
"7245","key"," "," ","16.671131639722844","500","250","psychophysics","20","113276","0.0-20.0","6100c28ed43a1dea00f08633","6213c41f3954c8a6ca889b3c","1","5","60","58","","",""
"6025","key"," "," ","16.672022160664834","500","250","psychophysics","21","119307","0.0-21.0","6100c28ed43a1dea00f08633","6213c41f3954c8a6ca889b3c","1","0","38","54","","",""
"8391","key"," "," ","16.670337972166983","500","250","psychophysics","22","127700","0.0-22.0","6100c28ed43a1dea00f08633","6213c41f3954c8a6ca889b3c","1","5","38","38","","",""
"11618","key"," "," ","16.672068965517255","500","250","psychophysics","23","139321","0.0-23.0","6100c28ed43a1dea00f08633","6213c41f3954c8a6ca889b3c","1","0","52","70","","",""
"7302","key"," "," ","16.675011441647623","500","250","psychophysics","24","146626","0.0-24.0","6100c28ed43a1dea00f08633","6213c41f3954c8a6ca889b3c","1","5","24","30","","",""
"5807","key"," "," ","16.66662824207495","500","250","psychophysics","25","152435","0.0-25.0","6100c28ed43a1dea00f08633","6213c41f3954c8a6ca889b3c","1","0","21","37","","",""
"5413","key"," "," ","16.672469135802483","500","250","psychophysics","26","157851","0.0-26.0","6100c28ed43a1dea00f08633","6213c41f3954c8a6ca889b3c","1","5","59","60","","",""
"5725","key"," "," ","16.671953352769624","500","250","psychophysics","27","163578","0.0-27.0","6100c28ed43a1dea00f08633","6213c41f3954c8a6ca889b3c","1","0","53","62","","",""
"4112","key"," "," ","16.67436734693878","500","250","psychophysics","28","167691","0.0-28.0","6100c28ed43a1dea00f08633","6213c41f3954c8a6ca889b3c","1","5","40","47","","",""
"4618","key"," "," ","16.67509025270758","500","250","psychophysics","29","172316","0.0-29.0","6100c28ed43a1dea00f08633","6213c41f3954c8a6ca889b3c","1","0","31","46","","",""
"7051","key"," "," ","16.67104265402849","500","250","psychophysics","30","179371","0.0-30.0","6100c28ed43a1dea00f08633","6213c41f3954c8a6ca889b3c","1","5","54","64","","",""
"8206","key"," "," ","16.670590631364522","500","250","psychophysics","31","187579","0.0-31.0","6100c28ed43a1dea00f08633","6213c41f3954c8a6ca889b3c","1","0","55","66","","",""
"6718","key"," "," ","16.671364764267985","500","250","psychophysics","32","194315","0.0-32.0","6100c28ed43a1dea00f08633","6213c41f3954c8a6ca889b3c","1","5","20","25","","",""
"10582","key"," "," ","16.66958990536276","500","250","psychophysics","33","204899","0.0-33.0","6100c28ed43a1dea00f08633","6213c41f3954c8a6ca889b3c","1","0","36","58","","",""
"6126","key"," "," ","16.67188010899179","500","250","psychophysics","34","211027","0.0-34.0","6100c28ed43a1dea00f08633","6213c41f3954c8a6ca889b3c","1","5","31","34","","",""
"8758","key"," "," ","16.673969465648863","500","250","psychophysics","35","219787","0.0-35.0","6100c28ed43a1dea00f08633","6213c41f3954c8a6ca889b3c","1","0","44","59","","",""
"6173","key"," "," ","16.67172972972975","500","250","psychophysics","36","225963","0.0-36.0","6100c28ed43a1dea00f08633","6213c41f3954c8a6ca889b3c","1","5","60","67","","",""
"3830","key"," "," ","16.666666666666668","500","250","psychophysics","37","229795","0.0-37.0","6100c28ed43a1dea00f08633","6213c41f3954c8a6ca889b3c","","","","","","",""
"4771","key"," "," ","16.673146853146818","500","250","psychophysics","38","234571","0.0-38.0","6100c28ed43a1dea00f08633","6213c41f3954c8a6ca889b3c","","","","","","",""
"2107","key"," "," ","16.681746031745984","500","250","psychophysics","39","236683","0.0-39.0","6100c28ed43a1dea00f08633","6213c41f3954c8a6ca889b3c","","","","","","",""
"7332","key"," "," ","16.670933940774507","500","250","psychophysics","40","244019","0.0-40.0","6100c28ed43a1dea00f08633","6213c41f3954c8a6ca889b3c","2","0","59","71","","",""
"7356","key"," "," ","16.67095454545455","500","250","psychophysics","41","251379","0.0-41.0","6100c28ed43a1dea00f08633","6213c41f3954c8a6ca889b3c","","","","","","",""
"4886","key"," "," ","16.672876712328804","500","250","psychophysics","42","256268","0.0-42.0","6100c28ed43a1dea00f08633","6213c41f3954c8a6ca889b3c","2","0","25","31","","",""
"3524","key"," "," ","16.6666350710902","500","250","psychophysics","43","259803","0.0-43.0","6100c28ed43a1dea00f08633","6213c41f3954c8a6ca889b3c","","","","","","",""
"5872","key"," "," ","16.67210227272732","500","250","psychophysics","44","265682","0.0-44.0","6100c28ed43a1dea00f08633","6213c41f3954c8a6ca889b3c","2","0","48","58","","",""
"3566","key"," "," ","16.675680751173633","500","250","psychophysics","45","269251","0.0-45.0","6100c28ed43a1dea00f08633","6213c41f3954c8a6ca889b3c","","","","","","",""
"6229","key"," "," ","16.671689008042996","500","250","psychophysics","46","275482","0.0-46.0","6100c28ed43a1dea00f08633","6213c41f3954c8a6ca889b3c","2","0","47","54","","",""
"2702","key"," "," ","16.66670807453432","500","250","psychophysics","47","278187","0.0-47.0","6100c28ed43a1dea00f08633","6213c41f3954c8a6ca889b3c","","","","","","",""
"5893","key"," "," ","16.67206798866853","500","250","psychophysics","48","284083","0.0-48.0","6100c28ed43a1dea00f08633","6213c41f3954c8a6ca889b3c","2","0","39","46","","",""
"3859","key"," "," ","16.67478260869545","500","250","psychophysics","49","287945","0.0-49.0","6100c28ed43a1dea00f08633","6213c41f3954c8a6ca889b3c","","","","","","",""
"4032","key"," "," ","16.674854771784048","500","250","psychophysics","50","291977","0.0-50.0","6100c28ed43a1dea00f08633","6213c41f3954c8a6ca889b3c","2","0","33","29","","",""
"1862","key"," "," ","16.666666666666668","500","250","psychophysics","51","293841","0.0-51.0","6100c28ed43a1dea00f08633","6213c41f3954c8a6ca889b3c","","","","","","",""
"5776","key"," "," ","16.672254335260217","500","250","psychophysics","52","299621","0.0-52.0","6100c28ed43a1dea00f08633","6213c41f3954c8a6ca889b3c","2","0","53","60","","",""
"2482","key"," "," ","16.66675675675671","500","250","psychophysics","53","302106","0.0-53.0","6100c28ed43a1dea00f08633","6213c41f3954c8a6ca889b3c","","","","","","",""
"8030","key"," "," ","16.674386694386705","500","250","psychophysics","54","310139","0.0-54.0","6100c28ed43a1dea00f08633","6213c41f3954c8a6ca889b3c","2","0","26","35","","",""
"1852","key"," "," ","16.666727272727506","500","250","psychophysics","55","311994","0.0-55.0","6100c28ed43a1dea00f08633","6213c41f3954c8a6ca889b3c","","","","","","",""
"7633","key"," "," ","16.670678336980306","500","250","psychophysics","56","319633","0.0-56.0","6100c28ed43a1dea00f08633","6213c41f3954c8a6ca889b3c","2","0","43","45","","",""
"1943","key"," "," ","16.666551724137992","500","250","psychophysics","57","321579","0.0-57.0","6100c28ed43a1dea00f08633","6213c41f3954c8a6ca889b3c","","","","","","",""
"4812","key"," "," ","16.673263888888968","500","250","psychophysics","58","326395","0.0-58.0","6100c28ed43a1dea00f08633","6213c41f3954c8a6ca889b3c","2","0","38","34","","",""
"1883","key"," "," ","16.68339285714267","500","250","psychophysics","59","328281","0.0-59.0","6100c28ed43a1dea00f08633","6213c41f3954c8a6ca889b3c","","","","","","",""
"6601","key"," "," ","16.671544303797344","500","250","psychophysics","60","334883","0.0-60.0","6100c28ed43a1dea00f08633","6213c41f3954c8a6ca889b3c","2","0","28","40","","",""
"1932","key"," "," ","16.666608695651952","500","250","psychophysics","61","336818","0.0-61.0","6100c28ed43a1dea00f08633","6213c41f3954c8a6ca889b3c","","","","","","",""
"4703","key"," "," ","16.673238434163885","500","250","psychophysics","62","341523","0.0-62.0","6100c28ed43a1dea00f08633","6213c41f3954c8a6ca889b3c","2","0","26","24","","",""
"1981","key"," "," ","16.66677966101689","500","250","psychophysics","63","343506","0.0-63.0","6100c28ed43a1dea00f08633","6213c41f3954c8a6ca889b3c","","","","","","",""
"6438","key"," "," ","16.67168831168825","500","250","psychophysics","64","349946","0.0-64.0","6100c28ed43a1dea00f08633","6213c41f3954c8a6ca889b3c","2","0","31","33","","",""
"1525","key"," "," ","16.666593406593766","500","250","psychophysics","65","351475","0.0-65.0","6100c28ed43a1dea00f08633","6213c41f3954c8a6ca889b3c","","","","","","",""
"3902","key"," "," ","16.67459227467808","500","250","psychophysics","66","355379","0.0-66.0","6100c28ed43a1dea00f08633","6213c41f3954c8a6ca889b3c","2","0","55","57","","",""
"1582","key"," "," ","16.6665957446812","500","250","psychophysics","67","356963","0.0-67.0","6100c28ed43a1dea00f08633","6213c41f3954c8a6ca889b3c","","","","","","",""
"5244","key"," "," ","16.672547770700614","500","250","psychophysics","68","362210","0.0-68.0","6100c28ed43a1dea00f08633","6213c41f3954c8a6ca889b3c","2","0","27","34","","",""
"1622","key"," "," ","16.666666666666668","500","250","psychophysics","69","363834","0.0-69.0","6100c28ed43a1dea00f08633","6213c41f3954c8a6ca889b3c","","","","","","",""
"3087","key"," "," ","16.676972972972923","500","250","psychophysics","70","366929","0.0-70.0","6100c28ed43a1dea00f08633","6213c41f3954c8a6ca889b3c","","","","","","",""
"2023","key"," "," ","16.666666666666668","500","250","psychophysics","71","368954","0.0-71.0","6100c28ed43a1dea00f08633","6213c41f3954c8a6ca889b3c","","","","","","",""
"4986","key"," "," ","16.67277591973255","500","250","psychophysics","72","373946","0.0-72.0","6100c28ed43a1dea00f08633","6213c41f3954c8a6ca889b3c","3","5","25","19","","",""
"5550","key"," "," ","16.6724698795181","500","250","psychophysics","73","379498","0.0-73.0","6100c28ed43a1dea00f08633","6213c41f3954c8a6ca889b3c","3","0","45","43","","",""
"5439","key"," "," ","16.672492307692302","500","250","psychophysics","74","384939","0.0-74.0","6100c28ed43a1dea00f08633","6213c41f3954c8a6ca889b3c","3","5","40","25","","",""
"5965","key"," "," ","16.672044817927127","500","250","psychophysics","75","390906","0.0-75.0","6100c28ed43a1dea00f08633","6213c41f3954c8a6ca889b3c","3","0","36","35","","",""
"5319","key"," "," ","16.672515723270397","500","250","psychophysics","76","396226","0.0-76.0","6100c28ed43a1dea00f08633","6213c41f3954c8a6ca889b3c","3","5","29","20","","",""
"4525","key"," "," ","16.666642066420785","500","250","psychophysics","77","400754","0.0-77.0","6100c28ed43a1dea00f08633","6213c41f3954c8a6ca889b3c","3","0","49","51","","",""
"4584","key"," "," ","16.673357664233578","500","250","psychophysics","78","405338","0.0-78.0","6100c28ed43a1dea00f08633","6213c41f3954c8a6ca889b3c","3","5","25","16","","",""
"4397","key"," "," ","16.673840304182626","500","250","psychophysics","79","409738","0.0-79.0","6100c28ed43a1dea00f08633","6213c41f3954c8a6ca889b3c","3","0","59","56","","",""
"4781","key"," "," ","16.67321678321671","500","250","psychophysics","80","414523","0.0-80.0","6100c28ed43a1dea00f08633","6213c41f3954c8a6ca889b3c","3","5","59","35","","",""
"5835","key"," "," ","16.672034383954262","500","250","psychophysics","81","420362","0.0-81.0","6100c28ed43a1dea00f08633","6213c41f3954c8a6ca889b3c","3","0","59","60","","",""
"7430","key"," "," ","16.670876404494336","500","250","psychophysics","82","427795","0.0-82.0","6100c28ed43a1dea00f08633","6213c41f3954c8a6ca889b3c","3","5","60","33","","",""
"6415","key"," "," ","16.671666666666624","500","250","psychophysics","83","434211","0.0-83.0","6100c28ed43a1dea00f08633","6213c41f3954c8a6ca889b3c","3","0","39","48","","",""
"4035","key"," "," ","16.74416666666657","500","250","psychophysics","84","438250","0.0-84.0","6100c28ed43a1dea00f08633","6213c41f3954c8a6ca889b3c","3","5","56","35","","",""
"3610","key"," "," ","16.666666666666668","500","250","psychophysics","85","441867","0.0-85.0","6100c28ed43a1dea00f08633","6213c41f3954c8a6ca889b3c","3","0","25","28","","",""
"8434","key"," "," ","16.67413861386139","500","250","psychophysics","86","450307","0.0-86.0","6100c28ed43a1dea00f08633","6213c41f3954c8a6ca889b3c","3","5","50","28","","",""
"5595","key"," "," ","16.666686567164255","500","250","psychophysics","87","455907","0.0-87.0","6100c28ed43a1dea00f08633","6213c41f3954c8a6ca889b3c","3","0","45","44","","",""
"4155","key"," "," ","16.67411290322578","500","250","psychophysics","88","460067","0.0-88.0","6100c28ed43a1dea00f08633","6213c41f3954c8a6ca889b3c","3","5","30","23","","",""
"7183","key"," "," ","16.671044083526617","500","250","psychophysics","89","467256","0.0-89.0","6100c28ed43a1dea00f08633","6213c41f3954c8a6ca889b3c","3","0","34","34","","",""
"5383","key"," "," ","16.672608695652226","500","250","psychophysics","90","472643","0.0-90.0","6100c28ed43a1dea00f08633","6213c41f3954c8a6ca889b3c","3","5","43","30","","",""
"4861","key"," "," ","16.673264604810942","500","250","psychophysics","91","477506","0.0-91.0","6100c28ed43a1dea00f08633","6213c41f3954c8a6ca889b3c","3","0","21","25","","",""
"3469","key"," "," ","16.67584541062813","500","250","psychophysics","92","480977","0.0-92.0","6100c28ed43a1dea00f08633","6213c41f3954c8a6ca889b3c","","","","","","",""
"33320","","","v","","","","html-keyboard-response","93","514302","0.0-93.0","6100c28ed43a1dea00f08633","6213c41f3954c8a6ca889b3c","","","","","<p> In this part of the experiment, we are going present digits 1, 2, 3, 4, 6, 7, 8, and 9.  Notice that 5 is missing.  Your job is to say whether the presented digit is less than or greater than 5.  For example, 3 is less than 5 and 7 is greater than 5.  If the digit is less than 5, press the v key; if it is greater than 5, press the n key. We are going to do 200 of these in total, but only 50 righ now. They go real fast.</p>  <br><br>  Ready? (press v or n)","",""
"2702","key","v","v","16.666993865030502","500","250","psychophysics","94","517021","0.0-94.0","6100c28ed43a1dea00f08633","6213c41f3954c8a6ca889b3c","4","","","","","1","1"
"null","","","null","","","","html-keyboard-response","95","517536","0.0-95.0","6100c28ed43a1dea00f08633","6213c41f3954c8a6ca889b3c","","","","","<p style=""color:darkgreen;font-size:24px;"">Correct :)</p>","",""
"2621","key","v","v","16.547848101265807","500","250","psychophysics","96","520163","0.0-96.0","6100c28ed43a1dea00f08633","6213c41f3954c8a6ca889b3c","4","","","","","1","1"
"null","","","null","","","","html-keyboard-response","97","520679","0.0-97.0","6100c28ed43a1dea00f08633","6213c41f3954c8a6ca889b3c","","","","","<p style=""color:darkgreen;font-size:24px;"">Correct :)</p>","",""
"2607","key","v","v","16.59783439490437","500","250","psychophysics","98","523299","0.0-98.0","6100c28ed43a1dea00f08633","6213c41f3954c8a6ca889b3c","4","","","","","1","4"
"null","","","null","","","","html-keyboard-response","99","523801","0.0-99.0","6100c28ed43a1dea00f08633","6213c41f3954c8a6ca889b3c","","","","","<p style=""color:darkgreen;font-size:24px;"">Correct :)</p>","",""
"2638","key","v","v","16.57446540880556","500","250","psychophysics","100","526441","0.0-100.0","6100c28ed43a1dea00f08633","6213c41f3954c8a6ca889b3c","4","","","","","1","1"
"null","","","null","","","","html-keyboard-response","101","526942","0.0-101.0","6100c28ed43a1dea00f08633","6213c41f3954c8a6ca889b3c","","","","","<p style=""color:darkgreen;font-size:24px;"">Correct :)</p>","",""
"2911","key","v","v","16.543068181818605","500","250","psychophysics","102","529857","0.0-102.0","6100c28ed43a1dea00f08633","6213c41f3954c8a6ca889b3c","4","","","","","1","2"
"null","","","null","","","","html-keyboard-response","103","530369","0.0-103.0","6100c28ed43a1dea00f08633","6213c41f3954c8a6ca889b3c","","","","","<p style=""color:darkgreen;font-size:24px;"">Correct :)</p>","",""
"2590","key","v","v","16.572307692307124","500","250","psychophysics","104","532962","0.0-104.0","6100c28ed43a1dea00f08633","6213c41f3954c8a6ca889b3c","4","","","","","1","1"
"null","","","null","","","","html-keyboard-response","105","533470","0.0-105.0","6100c28ed43a1dea00f08633","6213c41f3954c8a6ca889b3c","","","","","<p style=""color:darkgreen;font-size:24px;"">Correct :)</p>","",""
"2597","key","v","v","16.577564102563954","500","250","psychophysics","106","536074","0.0-106.0","6100c28ed43a1dea00f08633","6213c41f3954c8a6ca889b3c","4","","","","","1","4"
"null","","","null","","","","html-keyboard-response","107","536575","0.0-107.0","6100c28ed43a1dea00f08633","6213c41f3954c8a6ca889b3c","","","","","<p style=""color:darkgreen;font-size:24px;"">Correct :)</p>","",""
"2534","key","v","v","16.54470588235349","500","250","psychophysics","108","539112","0.0-108.0","6100c28ed43a1dea00f08633","6213c41f3954c8a6ca889b3c","4","","","","","1","3"
"null","","","null","","","","html-keyboard-response","109","539620","0.0-109.0","6100c28ed43a1dea00f08633","6213c41f3954c8a6ca889b3c","","","","","<p style=""color:darkgreen;font-size:24px;"">Correct :)</p>","",""
"2462","key","v","v","16.582162162162383","500","250","psychophysics","110","542088","0.0-110.0","6100c28ed43a1dea00f08633","6213c41f3954c8a6ca889b3c","4","","","","","1","4"
"null","","","null","","","","html-keyboard-response","111","542604","0.0-111.0","6100c28ed43a1dea00f08633","6213c41f3954c8a6ca889b3c","","","","","<p style=""color:darkgreen;font-size:24px;"">Correct :)</p>","",""
"2564","key","v","v","16.58753246753235","500","250","psychophysics","112","545171","0.0-112.0","6100c28ed43a1dea00f08633","6213c41f3954c8a6ca889b3c","4","","","","","1","4"
"null","","","null","","","","html-keyboard-response","113","545679","0.0-113.0","6100c28ed43a1dea00f08633","6213c41f3954c8a6ca889b3c","","","","","<p style=""color:darkgreen;font-size:24px;"">Correct :)</p>","",""
"2404","key","v","v","16.53117241379243","500","250","psychophysics","114","548090","0.0-114.0","6100c28ed43a1dea00f08633","6213c41f3954c8a6ca889b3c","4","","","","","1","2"
"null","","","null","","","","html-keyboard-response","115","548604","0.0-115.0","6100c28ed43a1dea00f08633","6213c41f3954c8a6ca889b3c","","","","","<p style=""color:darkgreen;font-size:24px;"">Correct :)</p>","",""
"2664","key","n","n","16.60237500000003","500","250","psychophysics","116","551273","0.0-116.0","6100c28ed43a1dea00f08633","6213c41f3954c8a6ca889b3c","4","","","","","1","9"
"null","","","null","","","","html-keyboard-response","117","551774","0.0-117.0","6100c28ed43a1dea00f08633","6213c41f3954c8a6ca889b3c","","","","","<p style=""color:darkgreen;font-size:24px;"">Correct :)</p>","",""
"2455","key","v","v","16.581621621621338","500","250","psychophysics","118","554234","0.0-118.0","6100c28ed43a1dea00f08633","6213c41f3954c8a6ca889b3c","4","","","","","1","2"
"null","","","null","","","","html-keyboard-response","119","554740","0.0-119.0","6100c28ed43a1dea00f08633","6213c41f3954c8a6ca889b3c","","","","","<p style=""color:darkgreen;font-size:24px;"">Correct :)</p>","",""
"2528","key","n","n","16.593815789473744","500","250","psychophysics","120","557273","0.0-120.0","6100c28ed43a1dea00f08633","6213c41f3954c8a6ca889b3c","4","","","","","1","9"
"null","","","null","","","","html-keyboard-response","121","557774","0.0-121.0","6100c28ed43a1dea00f08633","6213c41f3954c8a6ca889b3c","","","","","<p style=""color:darkgreen;font-size:24px;"">Correct :)</p>","",""
"2566","key","n","n","16.597012987012626","500","250","psychophysics","122","560346","0.0-122.0","6100c28ed43a1dea00f08633","6213c41f3954c8a6ca889b3c","4","","","","","1","7"
"null","","","null","","","","html-keyboard-response","123","560848","0.0-123.0","6100c28ed43a1dea00f08633","6213c41f3954c8a6ca889b3c","","","","","<p style=""color:darkgreen;font-size:24px;"">Correct :)</p>","",""
"2441","key","v","v","16.54367346938804","500","250","psychophysics","124","563296","0.0-124.0","6100c28ed43a1dea00f08633","6213c41f3954c8a6ca889b3c","4","","","","","1","3"
"null","","","null","","","","html-keyboard-response","125","563805","0.0-125.0","6100c28ed43a1dea00f08633","6213c41f3954c8a6ca889b3c","","","","","<p style=""color:darkgreen;font-size:24px;"">Correct :)</p>","",""
"2495","key","n","n","16.62373333333293","500","250","psychophysics","126","566306","0.0-126.0","6100c28ed43a1dea00f08633","6213c41f3954c8a6ca889b3c","4","","","","","1","8"
"null","","","null","","","","html-keyboard-response","127","566815","0.0-127.0","6100c28ed43a1dea00f08633","6213c41f3954c8a6ca889b3c","","","","","<p style=""color:darkgreen;font-size:24px;"">Correct :)</p>","",""
"2478","key","n","n","16.562550335570908","500","250","psychophysics","128","569298","0.0-128.0","6100c28ed43a1dea00f08633","6213c41f3954c8a6ca889b3c","4","","","","","1","8"
"null","","","null","","","","html-keyboard-response","129","569803","0.0-129.0","6100c28ed43a1dea00f08633","6213c41f3954c8a6ca889b3c","","","","","<p style=""color:darkgreen;font-size:24px;"">Correct :)</p>","",""
"2472","key","n","n","16.64283783783793","500","250","psychophysics","130","572281","0.0-130.0","6100c28ed43a1dea00f08633","6213c41f3954c8a6ca889b3c","4","","","","","1","9"
"null","","","null","","","","html-keyboard-response","131","572789","0.0-131.0","6100c28ed43a1dea00f08633","6213c41f3954c8a6ca889b3c","","","","","<p style=""color:darkgreen;font-size:24px;"">Correct :)</p>","",""
"2582","key","v","v","16.638064516129184","500","250","psychophysics","132","575379","0.0-132.0","6100c28ed43a1dea00f08633","6213c41f3954c8a6ca889b3c","4","","","","","1","3"
"null","","","null","","","","html-keyboard-response","133","575885","0.0-133.0","6100c28ed43a1dea00f08633","6213c41f3954c8a6ca889b3c","","","","","<p style=""color:darkgreen;font-size:24px;"">Correct :)</p>","",""
"2542","key","v","v","16.563006535947803","500","250","psychophysics","134","578433","0.0-134.0","6100c28ed43a1dea00f08633","6213c41f3954c8a6ca889b3c","4","","","","","1","2"
"null","","","null","","","","html-keyboard-response","135","578939","0.0-135.0","6100c28ed43a1dea00f08633","6213c41f3954c8a6ca889b3c","","","","","<p style=""color:darkgreen;font-size:24px;"">Correct :)</p>","",""
"2465","key","v","v","16.649594594593903","500","250","psychophysics","136","581410","0.0-136.0","6100c28ed43a1dea00f08633","6213c41f3954c8a6ca889b3c","4","","","","","1","2"
"null","","","null","","","","html-keyboard-response","137","581914","0.0-137.0","6100c28ed43a1dea00f08633","6213c41f3954c8a6ca889b3c","","","","","<p style=""color:darkgreen;font-size:24px;"">Correct :)</p>","",""
"2466","key","n","n","16.600135135135577","500","250","psychophysics","138","584386","0.0-138.0","6100c28ed43a1dea00f08633","6213c41f3954c8a6ca889b3c","4","","","","","1","6"
"null","","","null","","","","html-keyboard-response","139","584899","0.0-139.0","6100c28ed43a1dea00f08633","6213c41f3954c8a6ca889b3c","","","","","<p style=""color:darkgreen;font-size:24px;"">Correct :)</p>","",""
"2523","key","n","n","16.598157894737117","500","250","psychophysics","140","587425","0.0-140.0","6100c28ed43a1dea00f08633","6213c41f3954c8a6ca889b3c","4","","","","","1","9"
"null","","","null","","","","html-keyboard-response","141","587930","0.0-141.0","6100c28ed43a1dea00f08633","6213c41f3954c8a6ca889b3c","","","","","<p style=""color:darkgreen;font-size:24px;"">Correct :)</p>","",""
"2482","key","n","n","16.611006711408866","500","250","psychophysics","142","590416","0.0-142.0","6100c28ed43a1dea00f08633","6213c41f3954c8a6ca889b3c","4","","","","","1","9"
"null","","","null","","","","html-keyboard-response","143","590925","0.0-143.0","6100c28ed43a1dea00f08633","6213c41f3954c8a6ca889b3c","","","","","<p style=""color:darkgreen;font-size:24px;"">Correct :)</p>","",""
"2491","key","v","v","16.546399999999753","500","250","psychophysics","144","593417","0.0-144.0","6100c28ed43a1dea00f08633","6213c41f3954c8a6ca889b3c","4","","","","","1","1"
"null","","","null","","","","html-keyboard-response","145","593930","0.0-145.0","6100c28ed43a1dea00f08633","6213c41f3954c8a6ca889b3c","","","","","<p style=""color:darkgreen;font-size:24px;"">Correct :)</p>","",""
"2476","key","n","n","16.51731543624211","500","250","psychophysics","146","596409","0.0-146.0","6100c28ed43a1dea00f08633","6213c41f3954c8a6ca889b3c","4","","","","","1","7"
"null","","","null","","","","html-keyboard-response","147","596910","0.0-147.0","6100c28ed43a1dea00f08633","6213c41f3954c8a6ca889b3c","","","","","<p style=""color:darkgreen;font-size:24px;"">Correct :)</p>","",""
"2432","key","v","v","16.543673469387247","500","250","psychophysics","148","599344","0.0-148.0","6100c28ed43a1dea00f08633","6213c41f3954c8a6ca889b3c","4","","","","","1","3"
"null","","","null","","","","html-keyboard-response","149","599854","0.0-149.0","6100c28ed43a1dea00f08633","6213c41f3954c8a6ca889b3c","","","","","<p style=""color:darkgreen;font-size:24px;"">Correct :)</p>","",""
"2520","key","v","v","16.58900662251696","500","250","psychophysics","150","602376","0.0-150.0","6100c28ed43a1dea00f08633","6213c41f3954c8a6ca889b3c","4","","","","","1","4"
"null","","","null","","","","html-keyboard-response","151","602889","0.0-151.0","6100c28ed43a1dea00f08633","6213c41f3954c8a6ca889b3c","","","","","<p style=""color:darkgreen;font-size:24px;"">Correct :)</p>","",""
"2452","key","v","v","16.580680272108747","500","250","psychophysics","152","605345","0.0-152.0","6100c28ed43a1dea00f08633","6213c41f3954c8a6ca889b3c","4","","","","","1","1"
"null","","","null","","","","html-keyboard-response","153","605858","0.0-153.0","6100c28ed43a1dea00f08633","6213c41f3954c8a6ca889b3c","","","","","<p style=""color:darkgreen;font-size:24px;"">Correct :)</p>","",""
"2539","key","n","n","16.58052287581666","500","250","psychophysics","154","608400","0.0-154.0","6100c28ed43a1dea00f08633","6213c41f3954c8a6ca889b3c","4","","","","","1","6"
"null","","","null","","","","html-keyboard-response","155","608912","0.0-155.0","6100c28ed43a1dea00f08633","6213c41f3954c8a6ca889b3c","","","","","<p style=""color:darkgreen;font-size:24px;"">Correct :)</p>","",""
"2588","key","n","n","16.56423076923089","500","250","psychophysics","156","611504","0.0-156.0","6100c28ed43a1dea00f08633","6213c41f3954c8a6ca889b3c","4","","","","","1","7"
"null","","","null","","","","html-keyboard-response","157","612009","0.0-157.0","6100c28ed43a1dea00f08633","6213c41f3954c8a6ca889b3c","","","","","<p style=""color:darkgreen;font-size:24px;"">Correct :)</p>","",""
"2455","key","n","n","16.580675675676083","500","250","psychophysics","158","614467","0.0-158.0","6100c28ed43a1dea00f08633","6213c41f3954c8a6ca889b3c","4","","","","","1","6"
"null","","","null","","","","html-keyboard-response","159","614978","0.0-159.0","6100c28ed43a1dea00f08633","6213c41f3954c8a6ca889b3c","","","","","<p style=""color:darkgreen;font-size:24px;"">Correct :)</p>","",""
"2512","key","v","v","16.575629139073126","500","250","psychophysics","160","617498","0.0-160.0","6100c28ed43a1dea00f08633","6213c41f3954c8a6ca889b3c","4","","","","","1","1"
"null","","","null","","","","html-keyboard-response","161","618008","0.0-161.0","6100c28ed43a1dea00f08633","6213c41f3954c8a6ca889b3c","","","","","<p style=""color:darkgreen;font-size:24px;"">Correct :)</p>","",""
"2727","key","v","v","16.611341463413982","500","250","psychophysics","162","620745","0.0-162.0","6100c28ed43a1dea00f08633","6213c41f3954c8a6ca889b3c","4","","","","","1","3"
"null","","","null","","","","html-keyboard-response","163","621255","0.0-163.0","6100c28ed43a1dea00f08633","6213c41f3954c8a6ca889b3c","","","","","<p style=""color:darkgreen;font-size:24px;"">Correct :)</p>","",""
"2481","key","n","n","16.629932885905948","500","250","psychophysics","164","623746","0.0-164.0","6100c28ed43a1dea00f08633","6213c41f3954c8a6ca889b3c","4","","","","","1","6"
"null","","","null","","","","html-keyboard-response","165","624256","0.0-165.0","6100c28ed43a1dea00f08633","6213c41f3954c8a6ca889b3c","","","","","<p style=""color:darkgreen;font-size:24px;"">Correct :)</p>","",""
"2581","key","v","v","16.630451612903045","500","250","psychophysics","166","626842","0.0-166.0","6100c28ed43a1dea00f08633","6213c41f3954c8a6ca889b3c","4","","","","","1","4"
"null","","","null","","","","html-keyboard-response","167","627349","0.0-167.0","6100c28ed43a1dea00f08633","6213c41f3954c8a6ca889b3c","","","","","<p style=""color:darkgreen;font-size:24px;"">Correct :)</p>","",""
"2490","key","n","n","16.573866666666387","500","250","psychophysics","168","629842","0.0-168.0","6100c28ed43a1dea00f08633","6213c41f3954c8a6ca889b3c","4","","","","","1","8"
"null","","","null","","","","html-keyboard-response","169","630345","0.0-169.0","6100c28ed43a1dea00f08633","6213c41f3954c8a6ca889b3c","","","","","<p style=""color:darkgreen;font-size:24px;"">Correct :)</p>","",""
"2445","key","v","v","16.491081081081425","500","250","psychophysics","170","632793","0.0-170.0","6100c28ed43a1dea00f08633","6213c41f3954c8a6ca889b3c","4","","","","","1","3"
"null","","","null","","","","html-keyboard-response","171","633298","0.0-171.0","6100c28ed43a1dea00f08633","6213c41f3954c8a6ca889b3c","","","","","<p style=""color:darkgreen;font-size:24px;"">Correct :)</p>","",""
"2474","key","n","n","16.591006711409772","500","250","psychophysics","172","635779","0.0-172.0","6100c28ed43a1dea00f08633","6213c41f3954c8a6ca889b3c","4","","","","","1","7"
"null","","","null","","","","html-keyboard-response","173","636284","0.0-173.0","6100c28ed43a1dea00f08633","6213c41f3954c8a6ca889b3c","","","","","<p style=""color:darkgreen;font-size:24px;"">Correct :)</p>","",""
"2553","key","v","v","16.582207792208003","500","250","psychophysics","174","638844","0.0-174.0","6100c28ed43a1dea00f08633","6213c41f3954c8a6ca889b3c","4","","","","","1","3"
"null","","","null","","","","html-keyboard-response","175","639356","0.0-175.0","6100c28ed43a1dea00f08633","6213c41f3954c8a6ca889b3c","","","","","<p style=""color:darkgreen;font-size:24px;"">Correct :)</p>","",""
"2775","key","v","v","16.556646706586605","500","250","psychophysics","176","642137","0.0-176.0","6100c28ed43a1dea00f08633","6213c41f3954c8a6ca889b3c","4","","","","","1","4"
"null","","","null","","","","html-keyboard-response","177","642642","0.0-177.0","6100c28ed43a1dea00f08633","6213c41f3954c8a6ca889b3c","","","","","<p style=""color:darkgreen;font-size:24px;"">Correct :)</p>","",""
"2515","key","v","v","16.544473684210587","500","250","psychophysics","178","645162","0.0-178.0","6100c28ed43a1dea00f08633","6213c41f3954c8a6ca889b3c","4","","","","","1","2"
"null","","","null","","","","html-keyboard-response","179","645664","0.0-179.0","6100c28ed43a1dea00f08633","6213c41f3954c8a6ca889b3c","","","","","<p style=""color:darkgreen;font-size:24px;"">Correct :)</p>","",""
"2483","key","n","n","16.622953020134666","500","250","psychophysics","180","648152","0.0-180.0","6100c28ed43a1dea00f08633","6213c41f3954c8a6ca889b3c","4","","","","","1","6"
"null","","","null","","","","html-keyboard-response","181","648663","0.0-181.0","6100c28ed43a1dea00f08633","6213c41f3954c8a6ca889b3c","","","","","<p style=""color:darkgreen;font-size:24px;"">Correct :)</p>","",""
"2477","key","n","n","16.628590604027064","500","250","psychophysics","182","651146","0.0-182.0","6100c28ed43a1dea00f08633","6213c41f3954c8a6ca889b3c","4","","","","","1","8"
"null","","","null","","","","html-keyboard-response","183","651659","0.0-183.0","6100c28ed43a1dea00f08633","6213c41f3954c8a6ca889b3c","","","","","<p style=""color:darkgreen;font-size:24px;"">Correct :)</p>","",""
"2435","key","n","n","16.55510204081617","500","250","psychophysics","184","654098","0.0-184.0","6100c28ed43a1dea00f08633","6213c41f3954c8a6ca889b3c","4","","","","","1","6"
"null","","","null","","","","html-keyboard-response","185","654607","0.0-185.0","6100c28ed43a1dea00f08633","6213c41f3954c8a6ca889b3c","","","","","<p style=""color:darkgreen;font-size:24px;"">Correct :)</p>","",""
"2579","key","n","n","16.680909090909758","500","250","psychophysics","186","657194","0.0-186.0","6100c28ed43a1dea00f08633","6213c41f3954c8a6ca889b3c","4","","","","","1","9"
"null","","","null","","","","html-keyboard-response","187","657699","0.0-187.0","6100c28ed43a1dea00f08633","6213c41f3954c8a6ca889b3c","","","","","<p style=""color:darkgreen;font-size:24px;"">Correct :)</p>","",""
"2536","key","v","v","16.636447368421756","500","250","psychophysics","188","660241","0.0-188.0","6100c28ed43a1dea00f08633","6213c41f3954c8a6ca889b3c","4","","","","","1","1"
"null","","","null","","","","html-keyboard-response","189","660745","0.0-189.0","6100c28ed43a1dea00f08633","6213c41f3954c8a6ca889b3c","","","","","<p style=""color:darkgreen;font-size:24px;"">Correct :)</p>","",""
"2733","key","v","v","16.67060975609745","500","250","psychophysics","190","663484","0.0-190.0","6100c28ed43a1dea00f08633","6213c41f3954c8a6ca889b3c","4","","","","","1","3"
"null","","","null","","","","html-keyboard-response","191","663995","0.0-191.0","6100c28ed43a1dea00f08633","6213c41f3954c8a6ca889b3c","","","","","<p style=""color:darkgreen;font-size:24px;"">Correct :)</p>","",""
"2642","key","n","n","16.572874999999478","500","250","psychophysics","192","666650","0.0-192.0","6100c28ed43a1dea00f08633","6213c41f3954c8a6ca889b3c","4","","","","","1","6"
"null","","","null","","","","html-keyboard-response","193","667159","0.0-193.0","6100c28ed43a1dea00f08633","6213c41f3954c8a6ca889b3c","","","","","<p style=""color:darkgreen;font-size:24px;"">Correct :)</p>","",""
"6281","","","v","","","","html-keyboard-response","194","673442","0.0-194.0","6100c28ed43a1dea00f08633","6213c41f3954c8a6ca889b3c","","","","","<p> Ok, now we are going present the same digits as before.  Your job is to say whether the digit is even or odd  If the digit is odd, press to v key; if it is even, press the n key. We are going to do 50 of these.  </p>  <br><br>  Ready? (press v or n)","",""
"2495","key","n","n","16.602533333333366","500","250","psychophysics","195","675947","0.0-195.0","6100c28ed43a1dea00f08633","6213c41f3954c8a6ca889b3c","5","","","","","0","8"
"null","","","null","","","","html-keyboard-response","196","676464","0.0-196.0","6100c28ed43a1dea00f08633","6213c41f3954c8a6ca889b3c","","","","","<p style=""color:darkgreen;font-size:24px;"">Correct :)</p>","",""
"2441","key","v","v","16.573877551021106","500","250","psychophysics","197","678914","0.0-197.0","6100c28ed43a1dea00f08633","6213c41f3954c8a6ca889b3c","5","","","","","0","2"
"null","","","null","","","","html-keyboard-response","198","679423","0.0-198.0","6100c28ed43a1dea00f08633","6213c41f3954c8a6ca889b3c","","","","","<p style=""color:red;font-size:24px;"">Error :(</p>","",""
"2967","key","v","v","16.540782122905288","500","250","psychophysics","199","682393","0.0-199.0","6100c28ed43a1dea00f08633","6213c41f3954c8a6ca889b3c","5","","","","","0","7"
"null","","","null","","","","html-keyboard-response","200","682899","0.0-200.0","6100c28ed43a1dea00f08633","6213c41f3954c8a6ca889b3c","","","","","<p style=""color:darkgreen;font-size:24px;"">Correct :)</p>","",""
"2512","key","v","v","16.579735099337995","500","250","psychophysics","201","685417","0.0-201.0","6100c28ed43a1dea00f08633","6213c41f3954c8a6ca889b3c","5","","","","","0","3"
"null","","","null","","","","html-keyboard-response","202","685930","0.0-202.0","6100c28ed43a1dea00f08633","6213c41f3954c8a6ca889b3c","","","","","<p style=""color:darkgreen;font-size:24px;"">Correct :)</p>","",""
"2650","key","v","v","16.60352201257838","500","250","psychophysics","203","688585","0.0-203.0","6100c28ed43a1dea00f08633","6213c41f3954c8a6ca889b3c","5","","","","","0","2"
"null","","","null","","","","html-keyboard-response","204","689088","0.0-204.0","6100c28ed43a1dea00f08633","6213c41f3954c8a6ca889b3c","","","","","<p style=""color:red;font-size:24px;"">Error :(</p>","",""
"3181","key","v","v","16.569424083769682","500","250","psychophysics","205","692273","0.0-205.0","6100c28ed43a1dea00f08633","6213c41f3954c8a6ca889b3c","5","","","","","0","1"
"null","","","null","","","","html-keyboard-response","206","692773","0.0-206.0","6100c28ed43a1dea00f08633","6213c41f3954c8a6ca889b3c","","","","","<p style=""color:darkgreen;font-size:24px;"">Correct :)</p>","",""
"2928","key","v","v","16.561704545454464","500","250","psychophysics","207","695705","0.0-207.0","6100c28ed43a1dea00f08633","6213c41f3954c8a6ca889b3c","5","","","","","0","9"
"null","","","null","","","","html-keyboard-response","208","696210","0.0-208.0","6100c28ed43a1dea00f08633","6213c41f3954c8a6ca889b3c","","","","","<p style=""color:darkgreen;font-size:24px;"">Correct :)</p>","",""
"2539","key","v","v","16.535686274509562","500","250","psychophysics","209","698754","0.0-209.0","6100c28ed43a1dea00f08633","6213c41f3954c8a6ca889b3c","5","","","","","0","3"
"null","","","null","","","","html-keyboard-response","210","699264","0.0-210.0","6100c28ed43a1dea00f08633","6213c41f3954c8a6ca889b3c","","","","","<p style=""color:darkgreen;font-size:24px;"">Correct :)</p>","",""
"2477","key","n","n","16.622684563758575","500","250","psychophysics","211","701746","0.0-211.0","6100c28ed43a1dea00f08633","6213c41f3954c8a6ca889b3c","5","","","","","0","4"
"null","","","null","","","","html-keyboard-response","212","702248","0.0-212.0","6100c28ed43a1dea00f08633","6213c41f3954c8a6ca889b3c","","","","","<p style=""color:darkgreen;font-size:24px;"">Correct :)</p>","",""
"2491","key","n","n","16.61799999999969","500","250","psychophysics","213","704745","0.0-213.0","6100c28ed43a1dea00f08633","6213c41f3954c8a6ca889b3c","5","","","","","0","4"
"null","","","null","","","","html-keyboard-response","214","705248","0.0-214.0","6100c28ed43a1dea00f08633","6213c41f3954c8a6ca889b3c","","","","","<p style=""color:darkgreen;font-size:24px;"">Correct :)</p>","",""
"2533","key","v","v","16.625","500","250","psychophysics","215","707785","0.0-215.0","6100c28ed43a1dea00f08633","6213c41f3954c8a6ca889b3c","5","","","","","0","9"
"null","","","null","","","","html-keyboard-response","216","708301","0.0-216.0","6100c28ed43a1dea00f08633","6213c41f3954c8a6ca889b3c","","","","","<p style=""color:darkgreen;font-size:24px;"">Correct :)</p>","",""
"2585","key","v","v","16.826405228757803","500","250","psychophysics","217","710890","0.0-217.0","6100c28ed43a1dea00f08633","6213c41f3954c8a6ca889b3c","5","","","","","0","9"
"null","","","null","","","","html-keyboard-response","218","711398","0.0-218.0","6100c28ed43a1dea00f08633","6213c41f3954c8a6ca889b3c","","","","","<p style=""color:darkgreen;font-size:24px;"">Correct :)</p>","",""
"2604","key","v","v","16.63999999999979","500","250","psychophysics","219","714009","0.0-219.0","6100c28ed43a1dea00f08633","6213c41f3954c8a6ca889b3c","5","","","","","0","3"
"null","","","null","","","","html-keyboard-response","220","714513","0.0-220.0","6100c28ed43a1dea00f08633","6213c41f3954c8a6ca889b3c","","","","","<p style=""color:darkgreen;font-size:24px;"">Correct :)</p>","",""
"2483","key","n","n","16.544133333333303","500","250","psychophysics","221","717001","0.0-221.0","6100c28ed43a1dea00f08633","6213c41f3954c8a6ca889b3c","5","","","","","0","4"
"null","","","null","","","","html-keyboard-response","222","717513","0.0-222.0","6100c28ed43a1dea00f08633","6213c41f3954c8a6ca889b3c","","","","","<p style=""color:darkgreen;font-size:24px;"">Correct :)</p>","",""
"2663","key","v","v","16.558012422360047","500","250","psychophysics","223","720183","0.0-223.0","6100c28ed43a1dea00f08633","6213c41f3954c8a6ca889b3c","5","","","","","0","7"
"null","","","null","","","","html-keyboard-response","224","720694","0.0-224.0","6100c28ed43a1dea00f08633","6213c41f3954c8a6ca889b3c","","","","","<p style=""color:darkgreen;font-size:24px;"">Correct :)</p>","",""
"2543","key","v","v","16.58065359477103","500","250","psychophysics","225","723242","0.0-225.0","6100c28ed43a1dea00f08633","6213c41f3954c8a6ca889b3c","5","","","","","0","7"
"null","","","null","","","","html-keyboard-response","226","723747","0.0-226.0","6100c28ed43a1dea00f08633","6213c41f3954c8a6ca889b3c","","","","","<p style=""color:darkgreen;font-size:24px;"">Correct :)</p>","",""
"2497","key","v","v","16.558807947019897","500","250","psychophysics","227","726252","0.0-227.0","6100c28ed43a1dea00f08633","6213c41f3954c8a6ca889b3c","5","","","","","0","1"
"null","","","null","","","","html-keyboard-response","228","726764","0.0-228.0","6100c28ed43a1dea00f08633","6213c41f3954c8a6ca889b3c","","","","","<p style=""color:darkgreen;font-size:24px;"">Correct :)</p>","",""
"2448","key","v","v","16.567432432433094","500","250","psychophysics","229","729219","0.0-229.0","6100c28ed43a1dea00f08633","6213c41f3954c8a6ca889b3c","5","","","","","0","1"
"null","","","null","","","","html-keyboard-response","230","729727","0.0-230.0","6100c28ed43a1dea00f08633","6213c41f3954c8a6ca889b3c","","","","","<p style=""color:darkgreen;font-size:24px;"">Correct :)</p>","",""
"2523","key","v","v","16.593947368421237","500","250","psychophysics","231","732256","0.0-231.0","6100c28ed43a1dea00f08633","6213c41f3954c8a6ca889b3c","5","","","","","0","2"
"null","","","null","","","","html-keyboard-response","232","732766","0.0-232.0","6100c28ed43a1dea00f08633","6213c41f3954c8a6ca889b3c","","","","","<p style=""color:red;font-size:24px;"">Error :(</p>","",""
"2676","key","v","v","16.57267080745385","500","250","psychophysics","233","735449","0.0-233.0","6100c28ed43a1dea00f08633","6213c41f3954c8a6ca889b3c","5","","","","","0","7"
"null","","","null","","","","html-keyboard-response","234","735953","0.0-234.0","6100c28ed43a1dea00f08633","6213c41f3954c8a6ca889b3c","","","","","<p style=""color:darkgreen;font-size:24px;"">Correct :)</p>","",""
"2705","key","n","n","16.560490797545928","500","250","psychophysics","235","738665","0.0-235.0","6100c28ed43a1dea00f08633","6213c41f3954c8a6ca889b3c","5","","","","","0","6"
"null","","","null","","","","html-keyboard-response","236","739173","0.0-236.0","6100c28ed43a1dea00f08633","6213c41f3954c8a6ca889b3c","","","","","<p style=""color:darkgreen;font-size:24px;"">Correct :)</p>","",""
"2500","key","n","n","16.638133333333148","500","250","psychophysics","237","741679","0.0-237.0","6100c28ed43a1dea00f08633","6213c41f3954c8a6ca889b3c","5","","","","","0","6"
"null","","","null","","","","html-keyboard-response","238","742186","0.0-238.0","6100c28ed43a1dea00f08633","6213c41f3954c8a6ca889b3c","","","","","<p style=""color:darkgreen;font-size:24px;"">Correct :)</p>","",""
"2595","key","n","n","16.563589743589265","500","250","psychophysics","239","744785","0.0-239.0","6100c28ed43a1dea00f08633","6213c41f3954c8a6ca889b3c","5","","","","","0","8"
"null","","","null","","","","html-keyboard-response","240","745291","0.0-240.0","6100c28ed43a1dea00f08633","6213c41f3954c8a6ca889b3c","","","","","<p style=""color:darkgreen;font-size:24px;"">Correct :)</p>","",""
"2490","key","n","n","16.6499328859066","500","250","psychophysics","241","747786","0.0-241.0","6100c28ed43a1dea00f08633","6213c41f3954c8a6ca889b3c","5","","","","","0","8"
"null","","","null","","","","html-keyboard-response","242","748294","0.0-242.0","6100c28ed43a1dea00f08633","6213c41f3954c8a6ca889b3c","","","","","<p style=""color:darkgreen;font-size:24px;"">Correct :)</p>","",""
"2782","key","v","v","16.639880239520874","500","250","psychophysics","243","751081","0.0-243.0","6100c28ed43a1dea00f08633","6213c41f3954c8a6ca889b3c","5","","","","","0","9"
"null","","","null","","","","html-keyboard-response","244","751588","0.0-244.0","6100c28ed43a1dea00f08633","6213c41f3954c8a6ca889b3c","","","","","<p style=""color:darkgreen;font-size:24px;"">Correct :)</p>","",""
"2742","key","n","n","16.57624242424217","500","250","psychophysics","245","754338","0.0-245.0","6100c28ed43a1dea00f08633","6213c41f3954c8a6ca889b3c","5","","","","","0","2"
"null","","","null","","","","html-keyboard-response","246","754853","0.0-246.0","6100c28ed43a1dea00f08633","6213c41f3954c8a6ca889b3c","","","","","<p style=""color:darkgreen;font-size:24px;"">Correct :)</p>","",""
"2566","key","v","v","16.585454545454756","500","250","psychophysics","247","757425","0.0-247.0","6100c28ed43a1dea00f08633","6213c41f3954c8a6ca889b3c","5","","","","","0","7"
"null","","","null","","","","html-keyboard-response","248","757927","0.0-248.0","6100c28ed43a1dea00f08633","6213c41f3954c8a6ca889b3c","","","","","<p style=""color:darkgreen;font-size:24px;"">Correct :)</p>","",""
"2470","key","n","n","16.655270270270144","500","250","psychophysics","249","760403","0.0-249.0","6100c28ed43a1dea00f08633","6213c41f3954c8a6ca889b3c","5","","","","","0","6"
"null","","","null","","","","html-keyboard-response","250","760920","0.0-250.0","6100c28ed43a1dea00f08633","6213c41f3954c8a6ca889b3c","","","","","<p style=""color:darkgreen;font-size:24px;"">Correct :)</p>","",""
"2597","key","v","v","16.709615384615088","500","250","psychophysics","251","763530","0.0-251.0","6100c28ed43a1dea00f08633","6213c41f3954c8a6ca889b3c","5","","","","","0","3"
"null","","","null","","","","html-keyboard-response","252","764039","0.0-252.0","6100c28ed43a1dea00f08633","6213c41f3954c8a6ca889b3c","","","","","<p style=""color:darkgreen;font-size:24px;"">Correct :)</p>","",""
"2591","key","n","n","16.593076923076296","500","250","psychophysics","253","766641","0.0-253.0","6100c28ed43a1dea00f08633","6213c41f3954c8a6ca889b3c","5","","","","","0","4"
"null","","","null","","","","html-keyboard-response","254","767154","0.0-254.0","6100c28ed43a1dea00f08633","6213c41f3954c8a6ca889b3c","","","","","<p style=""color:darkgreen;font-size:24px;"">Correct :)</p>","",""
"2888","key","v","v","16.610689655172468","500","250","psychophysics","255","770050","0.0-255.0","6100c28ed43a1dea00f08633","6213c41f3954c8a6ca889b3c","5","","","","","0","9"
"null","","","null","","","","html-keyboard-response","256","770554","0.0-256.0","6100c28ed43a1dea00f08633","6213c41f3954c8a6ca889b3c","","","","","<p style=""color:darkgreen;font-size:24px;"">Correct :)</p>","",""
"2690","key","n","n","16.614074074073958","500","250","psychophysics","257","773250","0.0-257.0","6100c28ed43a1dea00f08633","6213c41f3954c8a6ca889b3c","5","","","","","0","8"
"null","","","null","","","","html-keyboard-response","258","773759","0.0-258.0","6100c28ed43a1dea00f08633","6213c41f3954c8a6ca889b3c","","","","","<p style=""color:darkgreen;font-size:24px;"">Correct :)</p>","",""
"2812","key","n","n","16.592189349112868","500","250","psychophysics","259","776578","0.0-259.0","6100c28ed43a1dea00f08633","6213c41f3954c8a6ca889b3c","5","","","","","0","4"
"null","","","null","","","","html-keyboard-response","260","777081","0.0-260.0","6100c28ed43a1dea00f08633","6213c41f3954c8a6ca889b3c","","","","","<p style=""color:darkgreen;font-size:24px;"">Correct :)</p>","",""
"2603","key","v","v","16.558980891719806","500","250","psychophysics","261","779689","0.0-261.0","6100c28ed43a1dea00f08633","6213c41f3954c8a6ca889b3c","5","","","","","0","7"
"null","","","null","","","","html-keyboard-response","262","780203","0.0-262.0","6100c28ed43a1dea00f08633","6213c41f3954c8a6ca889b3c","","","","","<p style=""color:darkgreen;font-size:24px;"">Correct :)</p>","",""
"2545","key","n","n","16.635686274509865","500","250","psychophysics","263","782753","0.0-263.0","6100c28ed43a1dea00f08633","6213c41f3954c8a6ca889b3c","5","","","","","0","4"
"null","","","null","","","","html-keyboard-response","264","783268","0.0-264.0","6100c28ed43a1dea00f08633","6213c41f3954c8a6ca889b3c","","","","","<p style=""color:darkgreen;font-size:24px;"">Correct :)</p>","",""
"2509","key","n","n","16.542913907284646","500","250","psychophysics","265","785783","0.0-265.0","6100c28ed43a1dea00f08633","6213c41f3954c8a6ca889b3c","5","","","","","0","4"
"null","","","null","","","","html-keyboard-response","266","786298","0.0-266.0","6100c28ed43a1dea00f08633","6213c41f3954c8a6ca889b3c","","","","","<p style=""color:darkgreen;font-size:24px;"">Correct :)</p>","",""
"2778","key","n","n","16.58011976047907","500","250","psychophysics","267","789081","0.0-267.0","6100c28ed43a1dea00f08633","6213c41f3954c8a6ca889b3c","5","","","","","0","2"
"null","","","null","","","","html-keyboard-response","268","789594","0.0-268.0","6100c28ed43a1dea00f08633","6213c41f3954c8a6ca889b3c","","","","","<p style=""color:darkgreen;font-size:24px;"">Correct :)</p>","",""
"2747","key","v","v","16.611151515151317","500","250","psychophysics","269","792344","0.0-269.0","6100c28ed43a1dea00f08633","6213c41f3954c8a6ca889b3c","5","","","","","0","9"
"null","","","null","","","","html-keyboard-response","270","792849","0.0-270.0","6100c28ed43a1dea00f08633","6213c41f3954c8a6ca889b3c","","","","","<p style=""color:darkgreen;font-size:24px;"">Correct :)</p>","",""
"2713","key","v","v","16.58441717791417","500","250","psychophysics","271","795569","0.0-271.0","6100c28ed43a1dea00f08633","6213c41f3954c8a6ca889b3c","5","","","","","0","7"
"null","","","null","","","","html-keyboard-response","272","796073","0.0-272.0","6100c28ed43a1dea00f08633","6213c41f3954c8a6ca889b3c","","","","","<p style=""color:darkgreen;font-size:24px;"">Correct :)</p>","",""
"2576","key","v","v","16.540897435897467","500","250","psychophysics","273","798656","0.0-273.0","6100c28ed43a1dea00f08633","6213c41f3954c8a6ca889b3c","5","","","","","0","3"
"null","","","null","","","","html-keyboard-response","274","799164","0.0-274.0","6100c28ed43a1dea00f08633","6213c41f3954c8a6ca889b3c","","","","","<p style=""color:darkgreen;font-size:24px;"">Correct :)</p>","",""
"2559","key","n","n","16.603766233766112","500","250","psychophysics","275","801729","0.0-275.0","6100c28ed43a1dea00f08633","6213c41f3954c8a6ca889b3c","5","","","","","0","6"
"null","","","null","","","","html-keyboard-response","276","802233","0.0-276.0","6100c28ed43a1dea00f08633","6213c41f3954c8a6ca889b3c","","","","","<p style=""color:darkgreen;font-size:24px;"">Correct :)</p>","",""
"2778","key","v","v","16.600718562873944","500","250","psychophysics","277","805018","0.0-277.0","6100c28ed43a1dea00f08633","6213c41f3954c8a6ca889b3c","5","","","","","0","9"
"null","","","null","","","","html-keyboard-response","278","805525","0.0-278.0","6100c28ed43a1dea00f08633","6213c41f3954c8a6ca889b3c","","","","","<p style=""color:darkgreen;font-size:24px;"">Correct :)</p>","",""
"2670","key","v","v","16.65199999999968","500","250","psychophysics","279","808201","0.0-279.0","6100c28ed43a1dea00f08633","6213c41f3954c8a6ca889b3c","5","","","","","0","9"
"null","","","null","","","","html-keyboard-response","280","808714","0.0-280.0","6100c28ed43a1dea00f08633","6213c41f3954c8a6ca889b3c","","","","","<p style=""color:darkgreen;font-size:24px;"">Correct :)</p>","",""
"2545","key","v","v","16.624313725490317","500","250","psychophysics","281","811265","0.0-281.0","6100c28ed43a1dea00f08633","6213c41f3954c8a6ca889b3c","5","","","","","0","1"
"null","","","null","","","","html-keyboard-response","282","811778","0.0-282.0","6100c28ed43a1dea00f08633","6213c41f3954c8a6ca889b3c","","","","","<p style=""color:darkgreen;font-size:24px;"">Correct :)</p>","",""
"2506","key","v","v","16.64426666666676","500","250","psychophysics","283","814289","0.0-283.0","6100c28ed43a1dea00f08633","6213c41f3954c8a6ca889b3c","5","","","","","0","1"
"null","","","null","","","","html-keyboard-response","284","814799","0.0-284.0","6100c28ed43a1dea00f08633","6213c41f3954c8a6ca889b3c","","","","","<p style=""color:darkgreen;font-size:24px;"">Correct :)</p>","",""
"2608","key","v","v","16.519617834394637","500","250","psychophysics","285","817409","0.0-285.0","6100c28ed43a1dea00f08633","6213c41f3954c8a6ca889b3c","5","","","","","0","9"
"null","","","null","","","","html-keyboard-response","286","817913","0.0-286.0","6100c28ed43a1dea00f08633","6213c41f3954c8a6ca889b3c","","","","","<p style=""color:darkgreen;font-size:24px;"">Correct :)</p>","",""
"2492","key","n","n","16.647919463087497","500","250","psychophysics","287","820410","0.0-287.0","6100c28ed43a1dea00f08633","6213c41f3954c8a6ca889b3c","5","","","","","0","6"
"null","","","null","","","","html-keyboard-response","288","820929","0.0-288.0","6100c28ed43a1dea00f08633","6213c41f3954c8a6ca889b3c","","","","","<p style=""color:darkgreen;font-size:24px;"">Correct :)</p>","",""
"2500","key","n","n","16.666533333333984","500","250","psychophysics","289","823439","0.0-289.0","6100c28ed43a1dea00f08633","6213c41f3954c8a6ca889b3c","5","","","","","0","2"
"null","","","null","","","","html-keyboard-response","290","823956","0.0-290.0","6100c28ed43a1dea00f08633","6213c41f3954c8a6ca889b3c","","","","","<p style=""color:darkgreen;font-size:24px;"">Correct :)</p>","",""
"2565","key","v","v","16.599090909090968","500","250","psychophysics","291","826529","0.0-291.0","6100c28ed43a1dea00f08633","6213c41f3954c8a6ca889b3c","5","","","","","0","1"
"null","","","null","","","","html-keyboard-response","292","827041","0.0-292.0","6100c28ed43a1dea00f08633","6213c41f3954c8a6ca889b3c","","","","","<p style=""color:darkgreen;font-size:24px;"">Correct :)</p>","",""
"2463","key","n","n","16.59175675675726","500","250","psychophysics","293","829514","0.0-293.0","6100c28ed43a1dea00f08633","6213c41f3954c8a6ca889b3c","5","","","","","0","8"
"null","","","null","","","","html-keyboard-response","294","830028","0.0-294.0","6100c28ed43a1dea00f08633","6213c41f3954c8a6ca889b3c","","","","","<p style=""color:darkgreen;font-size:24px;"">Correct :)</p>","",""
"8781","","","v","","","","html-keyboard-response","295","838810","0.0-295.0","6100c28ed43a1dea00f08633","6213c41f3954c8a6ca889b3c","","","","","<p> Here, the tasks are going to switch.  For some trials, your job is to decide if the digit is less than or greater than 5.  For others, it is to decide if the digit is even or odd.  You will be told which type of trial the current one is.  But, pay attention, the type of trial changes too.  We are going to do 50 of these.  </p>  <br><br>  Ready? (press v or n)","",""
"3153","key","v","v","16.615157894736868","500","250","psychophysics","296","841970","0.0-296.0","6100c28ed43a1dea00f08633","6213c41f3954c8a6ca889b3c","6","","","","","1","4"
"null","","","null","","","","html-keyboard-response","297","842473","0.0-297.0","6100c28ed43a1dea00f08633","6213c41f3954c8a6ca889b3c","","","","","<p style=""color:darkgreen;font-size:24px;"">Correct :)</p>","",""
"2472","key","n","n","16.632297297297015","500","250","psychophysics","298","844952","0.0-298.0","6100c28ed43a1dea00f08633","6213c41f3954c8a6ca889b3c","6","","","","","1","6"
"null","","","null","","","","html-keyboard-response","299","845463","0.0-299.0","6100c28ed43a1dea00f08633","6213c41f3954c8a6ca889b3c","","","","","<p style=""color:darkgreen;font-size:24px;"">Correct :)</p>","",""
"2580","key","v","v","16.596258064516398","500","250","psychophysics","300","848048","0.0-300.0","6100c28ed43a1dea00f08633","6213c41f3954c8a6ca889b3c","6","","","","","0","1"
"null","","","null","","","","html-keyboard-response","301","848557","0.0-301.0","6100c28ed43a1dea00f08633","6213c41f3954c8a6ca889b3c","","","","","<p style=""color:darkgreen;font-size:24px;"">Correct :)</p>","",""
"2898","key","v","v","16.54537142857111","500","250","psychophysics","302","851457","0.0-302.0","6100c28ed43a1dea00f08633","6213c41f3954c8a6ca889b3c","6","","","","","1","2"
"null","","","null","","","","html-keyboard-response","303","851971","0.0-303.0","6100c28ed43a1dea00f08633","6213c41f3954c8a6ca889b3c","","","","","<p style=""color:darkgreen;font-size:24px;"">Correct :)</p>","",""
"2520","key","v","v","16.55526315789489","500","250","psychophysics","304","854496","0.0-304.0","6100c28ed43a1dea00f08633","6213c41f3954c8a6ca889b3c","6","","","","","1","2"
"null","","","null","","","","html-keyboard-response","305","855008","0.0-305.0","6100c28ed43a1dea00f08633","6213c41f3954c8a6ca889b3c","","","","","<p style=""color:darkgreen;font-size:24px;"">Correct :)</p>","",""
"2539","key","v","v","16.647500000000274","500","250","psychophysics","306","857554","0.0-306.0","6100c28ed43a1dea00f08633","6213c41f3954c8a6ca889b3c","6","","","","","0","1"
"null","","","null","","","","html-keyboard-response","307","858063","0.0-307.0","6100c28ed43a1dea00f08633","6213c41f3954c8a6ca889b3c","","","","","<p style=""color:darkgreen;font-size:24px;"">Correct :)</p>","",""
"3116","key","v","v","16.62919786096274","500","250","psychophysics","308","861185","0.0-308.0","6100c28ed43a1dea00f08633","6213c41f3954c8a6ca889b3c","6","","","","","0","9"
"null","","","null","","","","html-keyboard-response","309","861693","0.0-309.0","6100c28ed43a1dea00f08633","6213c41f3954c8a6ca889b3c","","","","","<p style=""color:darkgreen;font-size:24px;"">Correct :)</p>","",""
"2527","key","n","n","16.541052631578886","500","250","psychophysics","310","864224","0.0-310.0","6100c28ed43a1dea00f08633","6213c41f3954c8a6ca889b3c","6","","","","","0","2"
"null","","","null","","","","html-keyboard-response","311","864729","0.0-311.0","6100c28ed43a1dea00f08633","6213c41f3954c8a6ca889b3c","","","","","<p style=""color:darkgreen;font-size:24px;"">Correct :)</p>","",""
"3034","key","n","n","16.644285714285765","500","250","psychophysics","312","867769","0.0-312.0","6100c28ed43a1dea00f08633","6213c41f3954c8a6ca889b3c","6","","","","","1","7"
"null","","","null","","","","html-keyboard-response","313","868283","0.0-313.0","6100c28ed43a1dea00f08633","6213c41f3954c8a6ca889b3c","","","","","<p style=""color:darkgreen;font-size:24px;"">Correct :)</p>","",""
"4044","key","v","v","16.568360655737916","500","250","psychophysics","314","872329","0.0-314.0","6100c28ed43a1dea00f08633","6213c41f3954c8a6ca889b3c","6","","","","","1","8"
"null","","","null","","","","html-keyboard-response","315","872833","0.0-315.0","6100c28ed43a1dea00f08633","6213c41f3954c8a6ca889b3c","","","","","<p style=""color:red;font-size:24px;"">Error :(</p>","",""
"2822","key","n","n","16.63329411764725","500","250","psychophysics","316","875663","0.0-316.0","6100c28ed43a1dea00f08633","6213c41f3954c8a6ca889b3c","6","","","","","0","8"
"null","","","null","","","","html-keyboard-response","317","876173","0.0-317.0","6100c28ed43a1dea00f08633","6213c41f3954c8a6ca889b3c","","","","","<p style=""color:darkgreen;font-size:24px;"">Correct :)</p>","",""
"2492","key","n","n","16.482516556291298","500","250","psychophysics","318","878666","0.0-318.0","6100c28ed43a1dea00f08633","6213c41f3954c8a6ca889b3c","6","","","","","0","6"
"null","","","null","","","","html-keyboard-response","319","879172","0.0-319.0","6100c28ed43a1dea00f08633","6213c41f3954c8a6ca889b3c","","","","","<p style=""color:darkgreen;font-size:24px;"">Correct :)</p>","",""
"3431","key","n","n","16.61621359223274","500","250","psychophysics","320","882608","0.0-320.0","6100c28ed43a1dea00f08633","6213c41f3954c8a6ca889b3c","6","","","","","1","9"
"null","","","null","","","","html-keyboard-response","321","883125","0.0-321.0","6100c28ed43a1dea00f08633","6213c41f3954c8a6ca889b3c","","","","","<p style=""color:darkgreen;font-size:24px;"">Correct :)</p>","",""
"3704","key","v","v","16.61774774774781","500","250","psychophysics","322","886832","0.0-322.0","6100c28ed43a1dea00f08633","6213c41f3954c8a6ca889b3c","6","","","","","0","9"
"null","","","null","","","","html-keyboard-response","323","887347","0.0-323.0","6100c28ed43a1dea00f08633","6213c41f3954c8a6ca889b3c","","","","","<p style=""color:darkgreen;font-size:24px;"">Correct :)</p>","",""
"2664","key","n","n","16.567577639751583","500","250","psychophysics","324","890019","0.0-324.0","6100c28ed43a1dea00f08633","6213c41f3954c8a6ca889b3c","6","","","","","1","8"
"null","","","null","","","","html-keyboard-response","325","890522","0.0-325.0","6100c28ed43a1dea00f08633","6213c41f3954c8a6ca889b3c","","","","","<p style=""color:darkgreen;font-size:24px;"">Correct :)</p>","",""
"2496","key","n","n","16.62679999999935","500","250","psychophysics","326","893024","0.0-326.0","6100c28ed43a1dea00f08633","6213c41f3954c8a6ca889b3c","6","","","","","1","9"
"null","","","null","","","","html-keyboard-response","327","893534","0.0-327.0","6100c28ed43a1dea00f08633","6213c41f3954c8a6ca889b3c","","","","","<p style=""color:darkgreen;font-size:24px;"">Correct :)</p>","",""
"3341","key","v","v","16.583880597015437","500","250","psychophysics","328","896881","0.0-328.0","6100c28ed43a1dea00f08633","6213c41f3954c8a6ca889b3c","6","","","","","0","7"
"null","","","null","","","","html-keyboard-response","329","897384","0.0-329.0","6100c28ed43a1dea00f08633","6213c41f3954c8a6ca889b3c","","","","","<p style=""color:darkgreen;font-size:24px;"">Correct :)</p>","",""
"3054","key","n","n","16.581847826086626","500","250","psychophysics","330","900440","0.0-330.0","6100c28ed43a1dea00f08633","6213c41f3954c8a6ca889b3c","6","","","","","0","8"
"null","","","null","","","","html-keyboard-response","331","900956","0.0-331.0","6100c28ed43a1dea00f08633","6213c41f3954c8a6ca889b3c","","","","","<p style=""color:darkgreen;font-size:24px;"">Correct :)</p>","",""
"2680","key","v","v","16.6443478260869","500","250","psychophysics","332","903642","0.0-332.0","6100c28ed43a1dea00f08633","6213c41f3954c8a6ca889b3c","6","","","","","0","7"
"null","","","null","","","","html-keyboard-response","333","904153","0.0-333.0","6100c28ed43a1dea00f08633","6213c41f3954c8a6ca889b3c","","","","","<p style=""color:darkgreen;font-size:24px;"">Correct :)</p>","",""
"2644","key","n","n","16.567044025156704","500","250","psychophysics","334","906800","0.0-334.0","6100c28ed43a1dea00f08633","6213c41f3954c8a6ca889b3c","6","","","","","1","9"
"null","","","null","","","","html-keyboard-response","335","907308","0.0-335.0","6100c28ed43a1dea00f08633","6213c41f3954c8a6ca889b3c","","","","","<p style=""color:darkgreen;font-size:24px;"">Correct :)</p>","",""
"2577","key","v","v","16.53767741935463","500","250","psychophysics","336","909889","0.0-336.0","6100c28ed43a1dea00f08633","6213c41f3954c8a6ca889b3c","6","","","","","1","2"
"null","","","null","","","","html-keyboard-response","337","910392","0.0-337.0","6100c28ed43a1dea00f08633","6213c41f3954c8a6ca889b3c","","","","","<p style=""color:darkgreen;font-size:24px;"">Correct :)</p>","",""
"2644","key","v","v","16.53824999999997","500","250","psychophysics","338","913043","0.0-338.0","6100c28ed43a1dea00f08633","6213c41f3954c8a6ca889b3c","6","","","","","1","1"
"null","","","null","","","","html-keyboard-response","339","913547","0.0-339.0","6100c28ed43a1dea00f08633","6213c41f3954c8a6ca889b3c","","","","","<p style=""color:darkgreen;font-size:24px;"">Correct :)</p>","",""
"3143","key","v","v","16.630264550264524","500","250","psychophysics","340","916696","0.0-340.0","6100c28ed43a1dea00f08633","6213c41f3954c8a6ca889b3c","6","","","","","0","7"
"null","","","null","","","","html-keyboard-response","341","917202","0.0-341.0","6100c28ed43a1dea00f08633","6213c41f3954c8a6ca889b3c","","","","","<p style=""color:darkgreen;font-size:24px;"">Correct :)</p>","",""
"2554","key","n","n","16.594935064935036","500","250","psychophysics","342","919762","0.0-342.0","6100c28ed43a1dea00f08633","6213c41f3954c8a6ca889b3c","6","","","","","0","2"
"null","","","null","","","","html-keyboard-response","343","920272","0.0-343.0","6100c28ed43a1dea00f08633","6213c41f3954c8a6ca889b3c","","","","","<p style=""color:darkgreen;font-size:24px;"">Correct :)</p>","",""
"2619","key","v","v","16.686878980891514","500","250","psychophysics","344","922896","0.0-344.0","6100c28ed43a1dea00f08633","6213c41f3954c8a6ca889b3c","6","","","","","0","3"
"null","","","null","","","","html-keyboard-response","345","923406","0.0-345.0","6100c28ed43a1dea00f08633","6213c41f3954c8a6ca889b3c","","","","","<p style=""color:darkgreen;font-size:24px;"">Correct :)</p>","",""
"2675","key","v","v","16.584844720497095","500","250","psychophysics","346","926088","0.0-346.0","6100c28ed43a1dea00f08633","6213c41f3954c8a6ca889b3c","6","","","","","0","9"
"null","","","null","","","","html-keyboard-response","347","926603","0.0-347.0","6100c28ed43a1dea00f08633","6213c41f3954c8a6ca889b3c","","","","","<p style=""color:darkgreen;font-size:24px;"">Correct :)</p>","",""
"2560","key","v","v","16.504645161290142","500","250","psychophysics","348","929167","0.0-348.0","6100c28ed43a1dea00f08633","6213c41f3954c8a6ca889b3c","6","","","","","1","2"
"null","","","null","","","","html-keyboard-response","349","929670","0.0-349.0","6100c28ed43a1dea00f08633","6213c41f3954c8a6ca889b3c","","","","","<p style=""color:darkgreen;font-size:24px;"">Correct :)</p>","",""
"2685","key","n","n","16.5055555555557","500","250","psychophysics","350","932359","0.0-350.0","6100c28ed43a1dea00f08633","6213c41f3954c8a6ca889b3c","6","","","","","0","4"
"null","","","null","","","","html-keyboard-response","351","932868","0.0-351.0","6100c28ed43a1dea00f08633","6213c41f3954c8a6ca889b3c","","","","","<p style=""color:darkgreen;font-size:24px;"">Correct :)</p>","",""
"2464","key","n","n","16.514362416107478","500","250","psychophysics","352","935335","0.0-352.0","6100c28ed43a1dea00f08633","6213c41f3954c8a6ca889b3c","6","","","","","1","9"
"null","","","null","","","","html-keyboard-response","353","935844","0.0-353.0","6100c28ed43a1dea00f08633","6213c41f3954c8a6ca889b3c","","","","","<p style=""color:darkgreen;font-size:24px;"">Correct :)</p>","",""
"3795","key","v","v","16.602456140351325","500","250","psychophysics","354","939641","0.0-354.0","6100c28ed43a1dea00f08633","6213c41f3954c8a6ca889b3c","6","","","","","1","3"
"null","","","null","","","","html-keyboard-response","355","940149","0.0-355.0","6100c28ed43a1dea00f08633","6213c41f3954c8a6ca889b3c","","","","","<p style=""color:darkgreen;font-size:24px;"">Correct :)</p>","",""
"2660","key","v","v","16.558625000000028","500","250","psychophysics","356","942815","0.0-356.0","6100c28ed43a1dea00f08633","6213c41f3954c8a6ca889b3c","6","","","","","1","1"
"null","","","null","","","","html-keyboard-response","357","943327","0.0-357.0","6100c28ed43a1dea00f08633","6213c41f3954c8a6ca889b3c","","","","","<p style=""color:darkgreen;font-size:24px;"">Correct :)</p>","",""
"2546","key","n","n","16.587973856208908","500","250","psychophysics","358","945881","0.0-358.0","6100c28ed43a1dea00f08633","6213c41f3954c8a6ca889b3c","6","","","","","1","8"
"null","","","null","","","","html-keyboard-response","359","946387","0.0-359.0","6100c28ed43a1dea00f08633","6213c41f3954c8a6ca889b3c","","","","","<p style=""color:darkgreen;font-size:24px;"">Correct :)</p>","",""
"2636","key","v","v","16.64050632911363","500","250","psychophysics","360","949032","0.0-360.0","6100c28ed43a1dea00f08633","6213c41f3954c8a6ca889b3c","6","","","","","0","3"
"null","","","null","","","","html-keyboard-response","361","949533","0.0-361.0","6100c28ed43a1dea00f08633","6213c41f3954c8a6ca889b3c","","","","","<p style=""color:darkgreen;font-size:24px;"">Correct :)</p>","",""
"2685","key","v","v","16.567901234567902","500","250","psychophysics","362","952224","0.0-362.0","6100c28ed43a1dea00f08633","6213c41f3954c8a6ca889b3c","6","","","","","0","3"
"null","","","null","","","","html-keyboard-response","363","952732","0.0-363.0","6100c28ed43a1dea00f08633","6213c41f3954c8a6ca889b3c","","","","","<p style=""color:darkgreen;font-size:24px;"">Correct :)</p>","",""
"2574","key","v","v","16.577032258064907","500","250","psychophysics","364","955312","0.0-364.0","6100c28ed43a1dea00f08633","6213c41f3954c8a6ca889b3c","6","","","","","1","4"
"null","","","null","","","","html-keyboard-response","365","955826","0.0-365.0","6100c28ed43a1dea00f08633","6213c41f3954c8a6ca889b3c","","","","","<p style=""color:darkgreen;font-size:24px;"">Correct :)</p>","",""
"2463","key","n","n","16.616891891892205","500","250","psychophysics","366","958297","0.0-366.0","6100c28ed43a1dea00f08633","6213c41f3954c8a6ca889b3c","6","","","","","1","7"
"null","","","null","","","","html-keyboard-response","367","958814","0.0-367.0","6100c28ed43a1dea00f08633","6213c41f3954c8a6ca889b3c","","","","","<p style=""color:darkgreen;font-size:24px;"">Correct :)</p>","",""
"2605","key","n","n","16.60292993630594","500","250","psychophysics","368","961424","0.0-368.0","6100c28ed43a1dea00f08633","6213c41f3954c8a6ca889b3c","6","","","","","0","6"
"null","","","null","","","","html-keyboard-response","369","961938","0.0-369.0","6100c28ed43a1dea00f08633","6213c41f3954c8a6ca889b3c","","","","","<p style=""color:darkgreen;font-size:24px;"">Correct :)</p>","",""
"2545","key","v","v","16.559477124182855","500","250","psychophysics","370","964488","0.0-370.0","6100c28ed43a1dea00f08633","6213c41f3954c8a6ca889b3c","6","","","","","0","7"
"null","","","null","","","","html-keyboard-response","371","964990","0.0-371.0","6100c28ed43a1dea00f08633","6213c41f3954c8a6ca889b3c","","","","","<p style=""color:darkgreen;font-size:24px;"">Correct :)</p>","",""
"2524","key","v","v","16.54657894736891","500","250","psychophysics","372","967520","0.0-372.0","6100c28ed43a1dea00f08633","6213c41f3954c8a6ca889b3c","6","","","","","0","3"
"null","","","null","","","","html-keyboard-response","373","968036","0.0-373.0","6100c28ed43a1dea00f08633","6213c41f3954c8a6ca889b3c","","","","","<p style=""color:darkgreen;font-size:24px;"">Correct :)</p>","",""
"3103","key","v","v","16.597540106952444","500","250","psychophysics","374","971144","0.0-374.0","6100c28ed43a1dea00f08633","6213c41f3954c8a6ca889b3c","6","","","","","0","7"
"null","","","null","","","","html-keyboard-response","375","971646","0.0-375.0","6100c28ed43a1dea00f08633","6213c41f3954c8a6ca889b3c","","","","","<p style=""color:darkgreen;font-size:24px;"">Correct :)</p>","",""
"2581","key","n","n","16.633290322580855","500","250","psychophysics","376","974232","0.0-376.0","6100c28ed43a1dea00f08633","6213c41f3954c8a6ca889b3c","6","","","","","1","8"
"null","","","null","","","","html-keyboard-response","377","974738","0.0-377.0","6100c28ed43a1dea00f08633","6213c41f3954c8a6ca889b3c","","","","","<p style=""color:darkgreen;font-size:24px;"">Correct :)</p>","",""
"2632","key","v","v","16.59000000000056","500","250","psychophysics","378","977377","0.0-378.0","6100c28ed43a1dea00f08633","6213c41f3954c8a6ca889b3c","6","","","","","0","1"
"null","","","null","","","","html-keyboard-response","379","977883","0.0-379.0","6100c28ed43a1dea00f08633","6213c41f3954c8a6ca889b3c","","","","","<p style=""color:darkgreen;font-size:24px;"">Correct :)</p>","",""
"2648","key","n","n","16.627672955974404","500","250","psychophysics","380","980536","0.0-380.0","6100c28ed43a1dea00f08633","6213c41f3954c8a6ca889b3c","6","","","","","0","4"
"null","","","null","","","","html-keyboard-response","381","981043","0.0-381.0","6100c28ed43a1dea00f08633","6213c41f3954c8a6ca889b3c","","","","","<p style=""color:darkgreen;font-size:24px;"">Correct :)</p>","",""
"2770","key","n","n","16.57101796407177","500","250","psychophysics","382","983817","0.0-382.0","6100c28ed43a1dea00f08633","6213c41f3954c8a6ca889b3c","6","","","","","1","7"
"null","","","null","","","","html-keyboard-response","383","984334","0.0-383.0","6100c28ed43a1dea00f08633","6213c41f3954c8a6ca889b3c","","","","","<p style=""color:darkgreen;font-size:24px;"">Correct :)</p>","",""
"3127","key","v","v","16.639893617021524","500","250","psychophysics","384","987473","0.0-384.0","6100c28ed43a1dea00f08633","6213c41f3954c8a6ca889b3c","6","","","","","0","7"
"null","","","null","","","","html-keyboard-response","385","987990","0.0-385.0","6100c28ed43a1dea00f08633","6213c41f3954c8a6ca889b3c","","","","","<p style=""color:darkgreen;font-size:24px;"">Correct :)</p>","",""
"2582","key","v","v","16.597290322580374","500","250","psychophysics","386","990577","0.0-386.0","6100c28ed43a1dea00f08633","6213c41f3954c8a6ca889b3c","6","","","","","1","3"
"null","","","null","","","","html-keyboard-response","387","991082","0.0-387.0","6100c28ed43a1dea00f08633","6213c41f3954c8a6ca889b3c","","","","","<p style=""color:darkgreen;font-size:24px;"">Correct :)</p>","",""
"2539","key","v","v","16.65342105263124","500","250","psychophysics","388","993632","0.0-388.0","6100c28ed43a1dea00f08633","6213c41f3954c8a6ca889b3c","6","","","","","1","3"
"null","","","null","","","","html-keyboard-response","389","994148","0.0-389.0","6100c28ed43a1dea00f08633","6213c41f3954c8a6ca889b3c","","","","","<p style=""color:darkgreen;font-size:24px;"">Correct :)</p>","",""
"2567","key","n","n","16.56232258064537","500","250","psychophysics","390","996721","0.0-390.0","6100c28ed43a1dea00f08633","6213c41f3954c8a6ca889b3c","6","","","","","0","6"
"null","","","null","","","","html-keyboard-response","391","997238","0.0-391.0","6100c28ed43a1dea00f08633","6213c41f3954c8a6ca889b3c","","","","","<p style=""color:darkgreen;font-size:24px;"">Correct :)</p>","",""
"2587","key","v","v","16.63341935483829","500","250","psychophysics","392","999831","0.0-392.0","6100c28ed43a1dea00f08633","6213c41f3954c8a6ca889b3c","6","","","","","0","1"
"null","","","null","","","","html-keyboard-response","393","1000338","0.0-393.0","6100c28ed43a1dea00f08633","6213c41f3954c8a6ca889b3c","","","","","<p style=""color:darkgreen;font-size:24px;"">Correct :)</p>","",""
"2632","key","v","v","16.634303797468178","500","250","psychophysics","394","1002977","0.0-394.0","6100c28ed43a1dea00f08633","6213c41f3954c8a6ca889b3c","6","","","","","0","3"
"null","","","null","","","","html-keyboard-response","395","1003493","0.0-395.0","6100c28ed43a1dea00f08633","6213c41f3954c8a6ca889b3c","","","","","<p style=""color:darkgreen;font-size:24px;"">Correct :)</p>","",""
"12595","","","v","","","","html-keyboard-response","396","1016089","0.0-396.0","6100c28ed43a1dea00f08633","6213c41f3954c8a6ca889b3c","","","","","<p> Last set of trials.  Here, the tasks are going to switch once again.  We are going to do 50 of these.  And then you are done with the experiment.  </p>  <br><br>  Ready? (press v or n)","",""
"2633","key","v","v","16.55622641509472","500","250","psychophysics","397","1018729","0.0-397.0","6100c28ed43a1dea00f08633","6213c41f3954c8a6ca889b3c","7","","","","","0","1"
"null","","","null","","","","html-keyboard-response","398","1019236","0.0-398.0","6100c28ed43a1dea00f08633","6213c41f3954c8a6ca889b3c","","","","","<p style=""color:darkgreen;font-size:24px;"">Correct :)</p>","",""
"2951","key","n","n","16.682033898305583","500","250","psychophysics","399","1022194","0.0-399.0","6100c28ed43a1dea00f08633","6213c41f3954c8a6ca889b3c","7","","","","","1","6"
"null","","","null","","","","html-keyboard-response","400","1022703","0.0-400.0","6100c28ed43a1dea00f08633","6213c41f3954c8a6ca889b3c","","","","","<p style=""color:darkgreen;font-size:24px;"">Correct :)</p>","",""
"3556","key","n","n","16.60747663551402","500","250","psychophysics","401","1026265","0.0-401.0","6100c28ed43a1dea00f08633","6213c41f3954c8a6ca889b3c","7","","","","","0","4"
"null","","","null","","","","html-keyboard-response","402","1026774","0.0-402.0","6100c28ed43a1dea00f08633","6213c41f3954c8a6ca889b3c","","","","","<p style=""color:darkgreen;font-size:24px;"">Correct :)</p>","",""
"2524","key","v","v","16.672052980132328","500","250","psychophysics","403","1029305","0.0-403.0","6100c28ed43a1dea00f08633","6213c41f3954c8a6ca889b3c","7","","","","","0","3"
"null","","","null","","","","html-keyboard-response","404","1029818","0.0-404.0","6100c28ed43a1dea00f08633","6213c41f3954c8a6ca889b3c","","","","","<p style=""color:darkgreen;font-size:24px;"">Correct :)</p>","",""
"2613","key","v","v","16.60777070063721","500","250","psychophysics","405","1032440","0.0-405.0","6100c28ed43a1dea00f08633","6213c41f3954c8a6ca889b3c","7","","","","","1","3"
"null","","","null","","","","html-keyboard-response","406","1032948","0.0-406.0","6100c28ed43a1dea00f08633","6213c41f3954c8a6ca889b3c","","","","","<p style=""color:darkgreen;font-size:24px;"">Correct :)</p>","",""
"2543","key","n","n","16.640392156862625","500","250","psychophysics","407","1035497","0.0-407.0","6100c28ed43a1dea00f08633","6213c41f3954c8a6ca889b3c","7","","","","","0","4"
"null","","","null","","","","html-keyboard-response","408","1036008","0.0-408.0","6100c28ed43a1dea00f08633","6213c41f3954c8a6ca889b3c","","","","","<p style=""color:darkgreen;font-size:24px;"">Correct :)</p>","",""
"2688","key","n","n","16.58061728395096","500","250","psychophysics","409","1038703","0.0-409.0","6100c28ed43a1dea00f08633","6213c41f3954c8a6ca889b3c","7","","","","","1","6"
"null","","","null","","","","html-keyboard-response","410","1039207","0.0-410.0","6100c28ed43a1dea00f08633","6213c41f3954c8a6ca889b3c","","","","","<p style=""color:darkgreen;font-size:24px;"">Correct :)</p>","",""
"2473","key","n","n","16.585100671141284","500","250","psychophysics","411","1041687","0.0-411.0","6100c28ed43a1dea00f08633","6213c41f3954c8a6ca889b3c","7","","","","","1","6"
"null","","","null","","","","html-keyboard-response","412","1042199","0.0-412.0","6100c28ed43a1dea00f08633","6213c41f3954c8a6ca889b3c","","","","","<p style=""color:darkgreen;font-size:24px;"">Correct :)</p>","",""
"2531","key","n","n","16.651447368421174","500","250","psychophysics","413","1044735","0.0-413.0","6100c28ed43a1dea00f08633","6213c41f3954c8a6ca889b3c","7","","","","","1","6"
"null","","","null","","","","html-keyboard-response","414","1045242","0.0-414.0","6100c28ed43a1dea00f08633","6213c41f3954c8a6ca889b3c","","","","","<p style=""color:darkgreen;font-size:24px;"">Correct :)</p>","",""
"2802","key","v","v","16.597142857143247","500","250","psychophysics","415","1048049","0.0-415.0","6100c28ed43a1dea00f08633","6213c41f3954c8a6ca889b3c","7","","","","","0","1"
"null","","","null","","","","html-keyboard-response","416","1048556","0.0-416.0","6100c28ed43a1dea00f08633","6213c41f3954c8a6ca889b3c","","","","","<p style=""color:darkgreen;font-size:24px;"">Correct :)</p>","",""
"2662","key","n","n","16.615625","500","250","psychophysics","417","1051224","0.0-417.0","6100c28ed43a1dea00f08633","6213c41f3954c8a6ca889b3c","7","","","","","0","2"
"null","","","null","","","","html-keyboard-response","418","1051732","0.0-418.0","6100c28ed43a1dea00f08633","6213c41f3954c8a6ca889b3c","","","","","<p style=""color:darkgreen;font-size:24px;"">Correct :)</p>","",""
"2569","key","v","v","16.669610389611115","500","250","psychophysics","419","1054312","0.0-419.0","6100c28ed43a1dea00f08633","6213c41f3954c8a6ca889b3c","7","","","","","1","3"
"null","","","null","","","","html-keyboard-response","420","1054822","0.0-420.0","6100c28ed43a1dea00f08633","6213c41f3954c8a6ca889b3c","","","","","<p style=""color:darkgreen;font-size:24px;"">Correct :)</p>","",""
"3034","key","v","v","16.636153846154","500","250","psychophysics","421","1057863","0.0-421.0","6100c28ed43a1dea00f08633","6213c41f3954c8a6ca889b3c","7","","","","","0","7"
"null","","","null","","","","html-keyboard-response","422","1058379","0.0-422.0","6100c28ed43a1dea00f08633","6213c41f3954c8a6ca889b3c","","","","","<p style=""color:darkgreen;font-size:24px;"">Correct :)</p>","",""
"3198","key","n","n","16.60760416666623","500","250","psychophysics","423","1061584","0.0-423.0","6100c28ed43a1dea00f08633","6213c41f3954c8a6ca889b3c","7","","","","","1","6"
"null","","","null","","","","html-keyboard-response","424","1062093","0.0-424.0","6100c28ed43a1dea00f08633","6213c41f3954c8a6ca889b3c","","","","","<p style=""color:darkgreen;font-size:24px;"">Correct :)</p>","",""
"2596","key","v","v","16.622179487179846","500","250","psychophysics","425","1064696","0.0-425.0","6100c28ed43a1dea00f08633","6213c41f3954c8a6ca889b3c","7","","","","","0","1"
"null","","","null","","","","html-keyboard-response","426","1065198","0.0-426.0","6100c28ed43a1dea00f08633","6213c41f3954c8a6ca889b3c","","","","","<p style=""color:darkgreen;font-size:24px;"">Correct :)</p>","",""
"3026","key","v","v","16.60373626373693","500","250","psychophysics","427","1068231","0.0-427.0","6100c28ed43a1dea00f08633","6213c41f3954c8a6ca889b3c","7","","","","","0","3"
"null","","","null","","","","html-keyboard-response","428","1068746","0.0-428.0","6100c28ed43a1dea00f08633","6213c41f3954c8a6ca889b3c","","","","","<p style=""color:darkgreen;font-size:24px;"">Correct :)</p>","",""
"2548","key","v","v","16.5027272727283","500","250","psychophysics","429","1071297","0.0-429.0","6100c28ed43a1dea00f08633","6213c41f3954c8a6ca889b3c","7","","","","","0","7"
"null","","","null","","","","html-keyboard-response","430","1071807","0.0-430.0","6100c28ed43a1dea00f08633","6213c41f3954c8a6ca889b3c","","","","","<p style=""color:darkgreen;font-size:24px;"">Correct :)</p>","",""
"2651","key","v","v","16.55274999999965","500","250","psychophysics","431","1074464","0.0-431.0","6100c28ed43a1dea00f08633","6213c41f3954c8a6ca889b3c","7","","","","","1","4"
"null","","","null","","","","html-keyboard-response","432","1074968","0.0-432.0","6100c28ed43a1dea00f08633","6213c41f3954c8a6ca889b3c","","","","","<p style=""color:darkgreen;font-size:24px;"">Correct :)</p>","",""
"2681","key","v","v","16.593291925465955","500","250","psychophysics","433","1077656","0.0-433.0","6100c28ed43a1dea00f08633","6213c41f3954c8a6ca889b3c","7","","","","","1","3"
"null","","","null","","","","html-keyboard-response","434","1078157","0.0-434.0","6100c28ed43a1dea00f08633","6213c41f3954c8a6ca889b3c","","","","","<p style=""color:darkgreen;font-size:24px;"">Correct :)</p>","",""
"2709","key","v","v","16.566012269938707","500","250","psychophysics","435","1080871","0.0-435.0","6100c28ed43a1dea00f08633","6213c41f3954c8a6ca889b3c","7","","","","","0","1"
"null","","","null","","","","html-keyboard-response","436","1081378","0.0-436.0","6100c28ed43a1dea00f08633","6213c41f3954c8a6ca889b3c","","","","","<p style=""color:darkgreen;font-size:24px;"">Correct :)</p>","",""
"2529","key","v","v","16.538039215685178","500","250","psychophysics","437","1083913","0.0-437.0","6100c28ed43a1dea00f08633","6213c41f3954c8a6ca889b3c","7","","","","","1","2"
"null","","","null","","","","html-keyboard-response","438","1084422","0.0-438.0","6100c28ed43a1dea00f08633","6213c41f3954c8a6ca889b3c","","","","","<p style=""color:darkgreen;font-size:24px;"">Correct :)</p>","",""
"2796","key","v","v","16.590119047619822","500","250","psychophysics","439","1087224","0.0-439.0","6100c28ed43a1dea00f08633","6213c41f3954c8a6ca889b3c","7","","","","","1","4"
"null","","","null","","","","html-keyboard-response","440","1087734","0.0-440.0","6100c28ed43a1dea00f08633","6213c41f3954c8a6ca889b3c","","","","","<p style=""color:darkgreen;font-size:24px;"">Correct :)</p>","",""
"2484","key","v","v","16.62281879194662","500","250","psychophysics","441","1090223","0.0-441.0","6100c28ed43a1dea00f08633","6213c41f3954c8a6ca889b3c","7","","","","","1","4"
"null","","","null","","","","html-keyboard-response","442","1090733","0.0-442.0","6100c28ed43a1dea00f08633","6213c41f3954c8a6ca889b3c","","","","","<p style=""color:darkgreen;font-size:24px;"">Correct :)</p>","",""
"2765","key","v","v","16.63638554216946","500","250","psychophysics","443","1093511","0.0-443.0","6100c28ed43a1dea00f08633","6213c41f3954c8a6ca889b3c","7","","","","","0","7"
"null","","","null","","","","html-keyboard-response","444","1094017","0.0-444.0","6100c28ed43a1dea00f08633","6213c41f3954c8a6ca889b3c","","","","","<p style=""color:darkgreen;font-size:24px;"">Correct :)</p>","",""
"2645","key","v","v","16.634842767295247","500","250","psychophysics","445","1096673","0.0-445.0","6100c28ed43a1dea00f08633","6213c41f3954c8a6ca889b3c","7","","","","","1","4"
"null","","","null","","","","html-keyboard-response","446","1097187","0.0-446.0","6100c28ed43a1dea00f08633","6213c41f3954c8a6ca889b3c","","","","","<p style=""color:darkgreen;font-size:24px;"">Correct :)</p>","",""
"2472","key","n","n","16.61744966442953","500","250","psychophysics","447","1099672","0.0-447.0","6100c28ed43a1dea00f08633","6213c41f3954c8a6ca889b3c","7","","","","","1","6"
"null","","","null","","","","html-keyboard-response","448","1100190","0.0-448.0","6100c28ed43a1dea00f08633","6213c41f3954c8a6ca889b3c","","","","","<p style=""color:darkgreen;font-size:24px;"">Correct :)</p>","",""
"2580","key","v","v","16.606451612903225","500","250","psychophysics","449","1102776","0.0-449.0","6100c28ed43a1dea00f08633","6213c41f3954c8a6ca889b3c","7","","","","","0","1"
"null","","","null","","","","html-keyboard-response","450","1103287","0.0-450.0","6100c28ed43a1dea00f08633","6213c41f3954c8a6ca889b3c","","","","","<p style=""color:darkgreen;font-size:24px;"">Correct :)</p>","",""
"2522","key","v","v","16.63205298013208","500","250","psychophysics","451","1105816","0.0-451.0","6100c28ed43a1dea00f08633","6213c41f3954c8a6ca889b3c","7","","","","","1","1"
"null","","","null","","","","html-keyboard-response","452","1106321","0.0-452.0","6100c28ed43a1dea00f08633","6213c41f3954c8a6ca889b3c","","","","","<p style=""color:darkgreen;font-size:24px;"">Correct :)</p>","",""
"2531","key","v","v","16.519084967321294","500","250","psychophysics","453","1108854","0.0-453.0","6100c28ed43a1dea00f08633","6213c41f3954c8a6ca889b3c","7","","","","","0","1"
"null","","","null","","","","html-keyboard-response","454","1109370","0.0-454.0","6100c28ed43a1dea00f08633","6213c41f3954c8a6ca889b3c","","","","","<p style=""color:darkgreen;font-size:24px;"">Correct :)</p>","",""
"2508","key","v","v","16.537615894039302","500","250","psychophysics","455","1111881","0.0-455.0","6100c28ed43a1dea00f08633","6213c41f3954c8a6ca889b3c","7","","","","","1","4"
"null","","","null","","","","html-keyboard-response","456","1112396","0.0-456.0","6100c28ed43a1dea00f08633","6213c41f3954c8a6ca889b3c","","","","","<p style=""color:darkgreen;font-size:24px;"">Correct :)</p>","",""
"2448","key","v","v","16.696462585034837","500","250","psychophysics","457","1114856","0.0-457.0","6100c28ed43a1dea00f08633","6213c41f3954c8a6ca889b3c","7","","","","","1","4"
"null","","","null","","","","html-keyboard-response","458","1115360","0.0-458.0","6100c28ed43a1dea00f08633","6213c41f3954c8a6ca889b3c","","","","","<p style=""color:darkgreen;font-size:24px;"">Correct :)</p>","",""
"2618","key","n","n","16.616815286623254","500","250","psychophysics","459","1117984","0.0-459.0","6100c28ed43a1dea00f08633","6213c41f3954c8a6ca889b3c","7","","","","","0","7"
"null","","","null","","","","html-keyboard-response","460","1118494","0.0-460.0","6100c28ed43a1dea00f08633","6213c41f3954c8a6ca889b3c","","","","","<p style=""color:red;font-size:24px;"">Error :(</p>","",""
"2690","key","v","v","16.620123456789894","500","250","psychophysics","461","1121192","0.0-461.0","6100c28ed43a1dea00f08633","6213c41f3954c8a6ca889b3c","7","","","","","0","1"
"null","","","null","","","","html-keyboard-response","462","1121700","0.0-462.0","6100c28ed43a1dea00f08633","6213c41f3954c8a6ca889b3c","","","","","<p style=""color:darkgreen;font-size:24px;"">Correct :)</p>","",""
"3797","key","v","v","16.60956140350869","500","250","psychophysics","463","1125504","0.0-463.0","6100c28ed43a1dea00f08633","6213c41f3954c8a6ca889b3c","7","","","","","0","7"
"null","","","null","","","","html-keyboard-response","464","1126021","0.0-464.0","6100c28ed43a1dea00f08633","6213c41f3954c8a6ca889b3c","","","","","<p style=""color:darkgreen;font-size:24px;"">Correct :)</p>","",""
"2589","key","v","v","16.56397435897424","500","250","psychophysics","465","1128616","0.0-465.0","6100c28ed43a1dea00f08633","6213c41f3954c8a6ca889b3c","7","","","","","0","1"
"null","","","null","","","","html-keyboard-response","466","1129121","0.0-466.0","6100c28ed43a1dea00f08633","6213c41f3954c8a6ca889b3c","","","","","<p style=""color:darkgreen;font-size:24px;"">Correct :)</p>","",""
"2513","key","v","v","16.56953642384106","500","250","psychophysics","467","1131639","0.0-467.0","6100c28ed43a1dea00f08633","6213c41f3954c8a6ca889b3c","7","","","","","0","3"
"null","","","null","","","","html-keyboard-response","468","1132147","0.0-468.0","6100c28ed43a1dea00f08633","6213c41f3954c8a6ca889b3c","","","","","<p style=""color:darkgreen;font-size:24px;"">Correct :)</p>","",""
"2642","key","v","v","16.523396226414917","500","250","psychophysics","469","1134792","0.0-469.0","6100c28ed43a1dea00f08633","6213c41f3954c8a6ca889b3c","7","","","","","1","2"
"null","","","null","","","","html-keyboard-response","470","1135308","0.0-470.0","6100c28ed43a1dea00f08633","6213c41f3954c8a6ca889b3c","","","","","<p style=""color:darkgreen;font-size:24px;"">Correct :)</p>","",""
"2615","key","n","n","16.668280254776594","500","250","psychophysics","471","1137928","0.0-471.0","6100c28ed43a1dea00f08633","6213c41f3954c8a6ca889b3c","7","","","","","1","6"
"null","","","null","","","","html-keyboard-response","472","1138442","0.0-472.0","6100c28ed43a1dea00f08633","6213c41f3954c8a6ca889b3c","","","","","<p style=""color:darkgreen;font-size:24px;"">Correct :)</p>","",""
"2520","key","n","n","16.561447368421604","500","250","psychophysics","473","1140968","0.0-473.0","6100c28ed43a1dea00f08633","6213c41f3954c8a6ca889b3c","7","","","","","1","6"
"null","","","null","","","","html-keyboard-response","474","1141478","0.0-474.0","6100c28ed43a1dea00f08633","6213c41f3954c8a6ca889b3c","","","","","<p style=""color:darkgreen;font-size:24px;"">Correct :)</p>","",""
"2555","key","v","v","16.550779220778132","500","250","psychophysics","475","1144040","0.0-475.0","6100c28ed43a1dea00f08633","6213c41f3954c8a6ca889b3c","7","","","","","1","2"
"null","","","null","","","","html-keyboard-response","476","1144552","0.0-476.0","6100c28ed43a1dea00f08633","6213c41f3954c8a6ca889b3c","","","","","<p style=""color:darkgreen;font-size:24px;"">Correct :)</p>","",""
"2648","key","v","v","16.620125786164106","500","250","psychophysics","477","1147206","0.0-477.0","6100c28ed43a1dea00f08633","6213c41f3954c8a6ca889b3c","7","","","","","0","3"
"null","","","null","","","","html-keyboard-response","478","1147717","0.0-478.0","6100c28ed43a1dea00f08633","6213c41f3954c8a6ca889b3c","","","","","<p style=""color:darkgreen;font-size:24px;"">Correct :)</p>","",""
"2525","key","v","v","16.635394736842596","500","250","psychophysics","479","1150250","0.0-479.0","6100c28ed43a1dea00f08633","6213c41f3954c8a6ca889b3c","7","","","","","1","2"
"null","","","null","","","","html-keyboard-response","480","1150758","0.0-480.0","6100c28ed43a1dea00f08633","6213c41f3954c8a6ca889b3c","","","","","<p style=""color:darkgreen;font-size:24px;"">Correct :)</p>","",""
"2486","key","v","v","16.596266666666295","500","250","psychophysics","481","1153256","0.0-481.0","6100c28ed43a1dea00f08633","6213c41f3954c8a6ca889b3c","7","","","","","0","1"
"null","","","null","","","","html-keyboard-response","482","1153766","0.0-482.0","6100c28ed43a1dea00f08633","6213c41f3954c8a6ca889b3c","","","","","<p style=""color:darkgreen;font-size:24px;"">Correct :)</p>","",""
"2471","key","n","n","16.653378378378065","500","250","psychophysics","483","1156249","0.0-483.0","6100c28ed43a1dea00f08633","6213c41f3954c8a6ca889b3c","7","","","","","1","6"
"null","","","null","","","","html-keyboard-response","484","1156763","0.0-484.0","6100c28ed43a1dea00f08633","6213c41f3954c8a6ca889b3c","","","","","<p style=""color:darkgreen;font-size:24px;"">Correct :)</p>","",""
"2473","key","v","v","16.68040540540509","500","250","psychophysics","485","1159247","0.0-485.0","6100c28ed43a1dea00f08633","6213c41f3954c8a6ca889b3c","7","","","","","1","2"
"null","","","null","","","","html-keyboard-response","486","1159757","0.0-486.0","6100c28ed43a1dea00f08633","6213c41f3954c8a6ca889b3c","","","","","<p style=""color:darkgreen;font-size:24px;"">Correct :)</p>","",""
"2724","key","v","v","16.619634146342143","500","250","psychophysics","487","1162488","0.0-487.0","6100c28ed43a1dea00f08633","6213c41f3954c8a6ca889b3c","7","","","","","1","2"
"null","","","null","","","","html-keyboard-response","488","1163001","0.0-488.0","6100c28ed43a1dea00f08633","6213c41f3954c8a6ca889b3c","","","","","<p style=""color:darkgreen;font-size:24px;"">Correct :)</p>","",""
"2599","key","v","v","16.66115384615319","500","250","psychophysics","489","1165606","0.0-489.0","6100c28ed43a1dea00f08633","6213c41f3954c8a6ca889b3c","7","","","","","0","4"
"null","","","null","","","","html-keyboard-response","490","1166109","0.0-490.0","6100c28ed43a1dea00f08633","6213c41f3954c8a6ca889b3c","","","","","<p style=""color:red;font-size:24px;"">Error :(</p>","",""
"2610","key","v","v","16.50582278481113","500","250","psychophysics","491","1168721","0.0-491.0","6100c28ed43a1dea00f08633","6213c41f3954c8a6ca889b3c","7","","","","","0","2"
"null","","","null","","","","html-keyboard-response","492","1169225","0.0-492.0","6100c28ed43a1dea00f08633","6213c41f3954c8a6ca889b3c","","","","","<p style=""color:red;font-size:24px;"">Error :(</p>","",""
"3446","key","n","n","16.63536231884067","500","250","psychophysics","493","1172679","0.0-493.0","6100c28ed43a1dea00f08633","6213c41f3954c8a6ca889b3c","7","","","","","1","7"
"null","","","null","","","","html-keyboard-response","494","1173192","0.0-494.0","6100c28ed43a1dea00f08633","6213c41f3954c8a6ca889b3c","","","","","<p style=""color:darkgreen;font-size:24px;"">Correct :)</p>","",""
"2630","key","v","v","16.634303797468178","500","250","psychophysics","495","1175831","0.0-495.0","6100c28ed43a1dea00f08633","6213c41f3954c8a6ca889b3c","7","","","","","0","2"
"null","","","null","","","","html-keyboard-response","496","1176342","0.0-496.0","6100c28ed43a1dea00f08633","6213c41f3954c8a6ca889b3c","","","","","<p style=""color:red;font-size:24px;"">Error :(</p>","",""
