"rt","response_type","key_press","response","avg_frame_time","center_x","center_y","trial_type","trial_index","time_elapsed","internal_node_id","pid","sid","phase","guide","targ","resp","stimulus","is5","stim"
"6253","key"," "," ","16.667","500","250","psychophysics","0","6285","0.0-0.0","5f15e4bc797c740fff2c442c","6213d13355b5256cefd43a07","","","","","","",""
"4896","key"," "," ","16.668673469387752","500","250","psychophysics","1","11189","0.0-1.0","5f15e4bc797c740fff2c442c","6213d13355b5256cefd43a07","","","","","","",""
"5258","key"," "," ","16.667","500","250","psychophysics","2","16451","0.0-2.0","5f15e4bc797c740fff2c442c","6213d13355b5256cefd43a07","","","","","","",""
"2074","key"," "," ","16.671241935483874","500","250","psychophysics","3","18534","0.0-3.0","5f15e4bc797c740fff2c442c","6213d13355b5256cefd43a07","","","","","","",""
"4750","key"," "," ","16.667000000000005","500","250","psychophysics","4","23295","0.0-4.0","5f15e4bc797c740fff2c442c","6213d13355b5256cefd43a07","","","","","","",""
"6518","key"," "," ","16.668333333333337","500","250","psychophysics","5","29820","0.0-5.0","5f15e4bc797c740fff2c442c","6213d13355b5256cefd43a07","","","","","","",""
"5215","key"," "," ","16.666999999999987","500","250","psychophysics","6","35040","0.0-6.0","5f15e4bc797c740fff2c442c","6213d13355b5256cefd43a07","","","","","","",""
"4084","key"," "," ","16.66894285714287","500","250","psychophysics","7","39132","0.0-7.0","5f15e4bc797c740fff2c442c","6213d13355b5256cefd43a07","","","","","","",""
"14208","key"," "," ","16.667468860164508","500","250","psychophysics","8","53346","0.0-8.0","5f15e4bc797c740fff2c442c","6213d13355b5256cefd43a07","0","0","47","108","","",""
"6784","key"," "," ","16.668420147420143","500","250","psychophysics","9","60139","0.0-9.0","5f15e4bc797c740fff2c442c","6213d13355b5256cefd43a07","","","","","","",""
"4118","key"," "," ","16.66700000000001","500","250","psychophysics","10","64261","0.0-10.0","5f15e4bc797c740fff2c442c","6213d13355b5256cefd43a07","","","","","","",""
"3272","key"," "," ","16.66700000000002","500","250","psychophysics","11","67542","0.0-11.0","5f15e4bc797c740fff2c442c","6213d13355b5256cefd43a07","","","","","","",""
"4885","key"," "," ","16.668719178082203","500","250","psychophysics","12","72431","0.0-12.0","5f15e4bc797c740fff2c442c","6213d13355b5256cefd43a07","","","","","","",""
"3756","key"," "," ","16.666999999999987","500","250","psychophysics","13","76196","0.0-13.0","5f15e4bc797c740fff2c442c","6213d13355b5256cefd43a07","","","","","","",""
"7069","key"," "," ","16.66813915094339","500","250","psychophysics","14","83274","0.0-14.0","5f15e4bc797c740fff2c442c","6213d13355b5256cefd43a07","","","","","","",""
"5000","key"," "," ","16.668665551839453","500","250","psychophysics","15","88279","0.0-15.0","5f15e4bc797c740fff2c442c","6213d13355b5256cefd43a07","","","","","","",""
"2012","key"," "," ","16.66699999999995","500","250","psychophysics","16","90296","0.0-16.0","5f15e4bc797c740fff2c442c","6213d13355b5256cefd43a07","","","","","","",""
"16588","key"," "," ","16.66750351758794","500","250","psychophysics","17","106889","0.0-17.0","5f15e4bc797c740fff2c442c","6213d13355b5256cefd43a07","1","0","44","118","","",""
"12949","key"," "," ","16.668273195876292","500","250","psychophysics","18","119842","0.0-18.0","5f15e4bc797c740fff2c442c","6213d13355b5256cefd43a07","1","5","51","-18","","",""
"13896","key"," "," ","16.66745978391357","500","250","psychophysics","19","133743","0.0-19.0","5f15e4bc797c740fff2c442c","6213d13355b5256cefd43a07","1","0","45","118","","",""
"11748","key"," "," ","16.66769886363636","500","250","psychophysics","20","145494","0.0-20.0","5f15e4bc797c740fff2c442c","6213d13355b5256cefd43a07","1","5","32","-22","","",""
"15464","key"," "," ","16.66808953613807","500","250","psychophysics","21","160962","0.0-21.0","5f15e4bc797c740fff2c442c","6213d13355b5256cefd43a07","1","0","24","121","","",""
"7468","key"," "," ","16.668221476510016","500","250","psychophysics","22","168436","0.0-22.0","5f15e4bc797c740fff2c442c","6213d13355b5256cefd43a07","1","5","56","-18","","",""
"15840","key"," "," ","16.667510526315798","500","250","psychophysics","23","184280","0.0-23.0","5f15e4bc797c740fff2c442c","6213d13355b5256cefd43a07","1","0","56","122","","",""
"6853","key"," "," ","16.66824390243905","500","250","psychophysics","24","191138","0.0-24.0","5f15e4bc797c740fff2c442c","6213d13355b5256cefd43a07","1","5","50","-18","","",""
"13106","key"," "," ","16.667638676844778","500","250","psychophysics","25","204249","0.0-25.0","5f15e4bc797c740fff2c442c","6213d13355b5256cefd43a07","1","0","34","117","","",""
"8332","key"," "," ","16.667955911823643","500","250","psychophysics","26","212585","0.0-26.0","5f15e4bc797c740fff2c442c","6213d13355b5256cefd43a07","1","5","29","-22","","",""
"17503","key"," "," ","16.667852240228807","500","250","psychophysics","27","230093","0.0-27.0","5f15e4bc797c740fff2c442c","6213d13355b5256cefd43a07","1","0","39","133","","",""
"6857","key"," "," ","16.66700000000004","500","250","psychophysics","28","236954","0.0-28.0","5f15e4bc797c740fff2c442c","6213d13355b5256cefd43a07","1","5","30","-17","","",""
"16237","key"," "," ","16.66804419321687","500","250","psychophysics","29","253196","0.0-29.0","5f15e4bc797c740fff2c442c","6213d13355b5256cefd43a07","1","0","59","129","","",""
"9605","key"," "," ","16.667937500000033","500","250","psychophysics","30","262806","0.0-30.0","5f15e4bc797c740fff2c442c","6213d13355b5256cefd43a07","1","5","31","-23","","",""
"12916","key"," "," ","16.667671834625388","500","250","psychophysics","31","275726","0.0-31.0","5f15e4bc797c740fff2c442c","6213d13355b5256cefd43a07","1","0","60","123","","",""
"8893","key"," "," ","16.667921200750538","500","250","psychophysics","32","284624","0.0-32.0","5f15e4bc797c740fff2c442c","6213d13355b5256cefd43a07","1","5","20","-21","","",""
"14268","key"," "," ","16.668152046783646","500","250","psychophysics","33","298896","0.0-33.0","5f15e4bc797c740fff2c442c","6213d13355b5256cefd43a07","1","0","20","127","","",""
"6976","key"," "," ","16.66699999999996","500","250","psychophysics","34","305875","0.0-34.0","5f15e4bc797c740fff2c442c","6213d13355b5256cefd43a07","1","5","31","-21","","",""
"12431","key"," "," ","16.667628187919426","500","250","psychophysics","35","318312","0.0-35.0","5f15e4bc797c740fff2c442c","6213d13355b5256cefd43a07","1","0","32","124","","",""
"7370","key"," "," ","16.66815646258505","500","250","psychophysics","36","325685","0.0-36.0","5f15e4bc797c740fff2c442c","6213d13355b5256cefd43a07","1","5","52","-21","","",""
"18900","key"," "," ","16.66785436893204","500","250","psychophysics","37","344589","0.0-37.0","5f15e4bc797c740fff2c442c","6213d13355b5256cefd43a07","","","","","","",""
"6468","key"," "," ","16.668182989690735","500","250","psychophysics","38","351066","0.0-38.0","5f15e4bc797c740fff2c442c","6213d13355b5256cefd43a07","","","","","","",""
"2634","key"," "," ","16.66699999999989","500","250","psychophysics","39","353704","0.0-39.0","5f15e4bc797c740fff2c442c","6213d13355b5256cefd43a07","","","","","","",""
"13241","key"," "," ","16.667671284634753","500","250","psychophysics","40","366950","0.0-40.0","5f15e4bc797c740fff2c442c","6213d13355b5256cefd43a07","2","0","26","122","","",""
"9000","key"," "," ","16.667948051948006","500","250","psychophysics","41","375954","0.0-41.0","5f15e4bc797c740fff2c442c","6213d13355b5256cefd43a07","","","","","","",""
"13394","key"," "," ","16.668227895392278","500","250","psychophysics","42","389352","0.0-42.0","5f15e4bc797c740fff2c442c","6213d13355b5256cefd43a07","2","0","60","123","","",""
"3719","key"," "," ","16.666999999999838","500","250","psychophysics","43","393075","0.0-43.0","5f15e4bc797c740fff2c442c","6213d13355b5256cefd43a07","","","","","","",""
"17101","key"," "," ","16.66795902439024","500","250","psychophysics","44","410180","0.0-44.0","5f15e4bc797c740fff2c442c","6213d13355b5256cefd43a07","2","0","37","134","","",""
"3907","key"," "," ","16.666999999999913","500","250","psychophysics","45","414093","0.0-45.0","5f15e4bc797c740fff2c442c","6213d13355b5256cefd43a07","","","","","","",""
"15631","key"," "," ","16.668027748132317","500","250","psychophysics","46","429729","0.0-46.0","5f15e4bc797c740fff2c442c","6213d13355b5256cefd43a07","2","0","24","123","","",""
"1246","key"," "," ","16.6670000000001","500","250","psychophysics","47","430979","0.0-47.0","5f15e4bc797c740fff2c442c","6213d13355b5256cefd43a07","","","","","","",""
"14407","key"," "," ","16.6675474537037","500","250","psychophysics","48","445390","0.0-48.0","5f15e4bc797c740fff2c442c","6213d13355b5256cefd43a07","2","0","47","130","","",""
"1080","key"," "," ","16.66700000000037","500","250","psychophysics","49","446474","0.0-49.0","5f15e4bc797c740fff2c442c","6213d13355b5256cefd43a07","","","","","","",""
"15580","key"," "," ","16.66807601713063","500","250","psychophysics","50","462058","0.0-50.0","5f15e4bc797c740fff2c442c","6213d13355b5256cefd43a07","2","0","24","121","","",""
"1646","key"," "," ","16.66700000000039","500","250","psychophysics","51","463708","0.0-51.0","5f15e4bc797c740fff2c442c","6213d13355b5256cefd43a07","","","","","","",""
"15088","key"," "," ","16.667553097345124","500","250","psychophysics","52","478800","0.0-52.0","5f15e4bc797c740fff2c442c","6213d13355b5256cefd43a07","2","0","48","131","","",""
"1094","key"," "," ","16.673046153846485","500","250","psychophysics","53","479898","0.0-53.0","5f15e4bc797c740fff2c442c","6213d13355b5256cefd43a07","","","","","","",""
"12493","key"," "," ","16.667771695594077","500","250","psychophysics","54","492395","0.0-54.0","5f15e4bc797c740fff2c442c","6213d13355b5256cefd43a07","2","0","60","132","","",""
"776","key"," "," ","16.666999999999383","500","250","psychophysics","55","493175","0.0-55.0","5f15e4bc797c740fff2c442c","6213d13355b5256cefd43a07","","","","","","",""
"13727","key"," "," ","16.667572992700723","500","250","psychophysics","56","506907","0.0-56.0","5f15e4bc797c740fff2c442c","6213d13355b5256cefd43a07","2","0","43","126","","",""
"1015","key"," "," ","16.66699999999961","500","250","psychophysics","57","507929","0.0-57.0","5f15e4bc797c740fff2c442c","6213d13355b5256cefd43a07","","","","","","",""
"13846","key"," "," ","16.668245783132566","500","250","psychophysics","58","521779","0.0-58.0","5f15e4bc797c740fff2c442c","6213d13355b5256cefd43a07","2","0","36","128","","",""
"852","key"," "," ","16.667000000000698","500","250","psychophysics","59","522635","0.0-59.0","5f15e4bc797c740fff2c442c","6213d13355b5256cefd43a07","","","","","","",""
"13109","key"," "," ","16.667583969465674","500","250","psychophysics","60","535748","0.0-60.0","5f15e4bc797c740fff2c442c","6213d13355b5256cefd43a07","2","0","58","130","","",""
"742","key"," "," ","16.66699999999959","500","250","psychophysics","61","536493","0.0-61.0","5f15e4bc797c740fff2c442c","6213d13355b5256cefd43a07","","","","","","",""
"12459","key"," "," ","16.667686746987936","500","250","psychophysics","62","548959","0.0-62.0","5f15e4bc797c740fff2c442c","6213d13355b5256cefd43a07","2","0","20","120","","",""
"1744","key"," "," ","16.67158653846127","500","250","psychophysics","63","550706","0.0-63.0","5f15e4bc797c740fff2c442c","6213d13355b5256cefd43a07","","","","","","",""
"14150","key"," "," ","16.667576650943374","500","250","psychophysics","64","564860","0.0-64.0","5f15e4bc797c740fff2c442c","6213d13355b5256cefd43a07","2","0","29","129","","",""
"1222","key"," "," ","16.666999999999884","500","250","psychophysics","65","566089","0.0-65.0","5f15e4bc797c740fff2c442c","6213d13355b5256cefd43a07","","","","","","",""
"14762","key"," "," ","16.668099435028292","500","250","psychophysics","66","580855","0.0-66.0","5f15e4bc797c740fff2c442c","6213d13355b5256cefd43a07","2","0","21","126","","",""
"881","key"," "," ","16.66700000000016","500","250","psychophysics","67","581740","0.0-67.0","5f15e4bc797c740fff2c442c","6213d13355b5256cefd43a07","","","","","","",""
"13562","key"," "," ","16.667581795818037","500","250","psychophysics","68","595306","0.0-68.0","5f15e4bc797c740fff2c442c","6213d13355b5256cefd43a07","2","0","53","127","","",""
"686","key"," "," ","16.66699999999837","500","250","psychophysics","69","595996","0.0-69.0","5f15e4bc797c740fff2c442c","6213d13355b5256cefd43a07","","","","","","",""
"2941","key"," "," ","16.66699999999996","500","250","psychophysics","70","598940","0.0-70.0","5f15e4bc797c740fff2c442c","6213d13355b5256cefd43a07","","","","","","",""
"4757","key"," "," ","16.668890845070308","500","250","psychophysics","71","603701","0.0-71.0","5f15e4bc797c740fff2c442c","6213d13355b5256cefd43a07","","","","","","",""
"10316","key"," "," ","16.667804523424948","500","250","psychophysics","72","614025","0.0-72.0","5f15e4bc797c740fff2c442c","6213d13355b5256cefd43a07","3","5","25","-18","","",""
"12238","key"," "," ","16.667623465211324","500","250","psychophysics","73","626267","0.0-73.0","5f15e4bc797c740fff2c442c","6213d13355b5256cefd43a07","3","0","31","126","","",""
"10202","key"," "," ","16.667836601307215","500","250","psychophysics","74","636477","0.0-74.0","5f15e4bc797c740fff2c442c","6213d13355b5256cefd43a07","3","5","46","-19","","",""
"14101","key"," "," ","16.668102958579905","500","250","psychophysics","75","650582","0.0-75.0","5f15e4bc797c740fff2c442c","6213d13355b5256cefd43a07","3","0","34","126","","",""
"8248","key"," "," ","16.667000000000044","500","250","psychophysics","76","658836","0.0-76.0","5f15e4bc797c740fff2c442c","6213d13355b5256cefd43a07","3","5","36","-20","","",""
"15409","key"," "," ","16.668112554112565","500","250","psychophysics","77","674250","0.0-77.0","5f15e4bc797c740fff2c442c","6213d13355b5256cefd43a07","3","0","36","134","","",""
"7712","key"," "," ","16.667870129870092","500","250","psychophysics","78","681966","0.0-78.0","5f15e4bc797c740fff2c442c","6213d13355b5256cefd43a07","3","5","58","-24","","",""
"13060","key"," "," ","16.667757343550512","500","250","psychophysics","79","695030","0.0-79.0","5f15e4bc797c740fff2c442c","6213d13355b5256cefd43a07","3","0","59","132","","",""
"9356","key"," "," ","16.66777678571421","500","250","psychophysics","80","704390","0.0-80.0","5f15e4bc797c740fff2c442c","6213d13355b5256cefd43a07","3","5","52","-25","","",""
"14637","key"," "," ","16.66761161731201","500","250","psychophysics","81","719031","0.0-81.0","5f15e4bc797c740fff2c442c","6213d13355b5256cefd43a07","3","0","48","130","","",""
"5862","key"," "," ","16.66845714285737","500","250","psychophysics","82","724898","0.0-82.0","5f15e4bc797c740fff2c442c","6213d13355b5256cefd43a07","3","5","50","-22","","",""
"13421","key"," "," ","16.667573913043476","500","250","psychophysics","83","738326","0.0-83.0","5f15e4bc797c740fff2c442c","6213d13355b5256cefd43a07","3","0","25","132","","",""
"7399","key"," "," ","16.668178329571166","500","250","psychophysics","84","745729","0.0-84.0","5f15e4bc797c740fff2c442c","6213d13355b5256cefd43a07","3","5","30","-26","","",""
"13005","key"," "," ","16.66752435897435","500","250","psychophysics","85","758742","0.0-85.0","5f15e4bc797c740fff2c442c","6213d13355b5256cefd43a07","3","0","39","133","","",""
"8494","key"," "," ","16.668121807465663","500","250","psychophysics","86","767240","0.0-86.0","5f15e4bc797c740fff2c442c","6213d13355b5256cefd43a07","3","5","29","-27","","",""
"14797","key"," "," ","16.668087936865888","500","250","psychophysics","87","782041","0.0-87.0","5f15e4bc797c740fff2c442c","6213d13355b5256cefd43a07","3","0","34","134","","",""
"8721","key"," "," ","16.667917624521166","500","250","psychophysics","88","790766","0.0-88.0","5f15e4bc797c740fff2c442c","6213d13355b5256cefd43a07","3","5","58","-25","","",""
"14472","key"," "," ","16.667592165898718","500","250","psychophysics","89","805242","0.0-89.0","5f15e4bc797c740fff2c442c","6213d13355b5256cefd43a07","3","0","20","135","","",""
"6681","key"," "," ","16.66799249999982","500","250","psychophysics","90","811927","0.0-90.0","5f15e4bc797c740fff2c442c","6213d13355b5256cefd43a07","3","5","34","-20","","",""
"17585","key"," "," ","16.667546489563605","500","250","psychophysics","91","829516","0.0-91.0","5f15e4bc797c740fff2c442c","6213d13355b5256cefd43a07","3","0","54","138","","",""
"3993","key"," "," ","16.66911715481169","500","250","psychophysics","92","833512","0.0-92.0","5f15e4bc797c740fff2c442c","6213d13355b5256cefd43a07","","","","","","",""
"28971","","","v","","","","html-keyboard-response","93","862486","0.0-93.0","5f15e4bc797c740fff2c442c","6213d13355b5256cefd43a07","","","","","<p> In this part of the experiment, we are going present digits 1, 2, 3, 4, 6, 7, 8, and 9.  Notice that 5 is missing.  Your job is to say whether the presented digit is less than or greater than 5.  For example, 3 is less than 5 and 7 is greater than 5.  If the digit is less than 5, press the v key; if it is greater than 5, press the n key. We are going to do 200 of these in total, but only 50 righ now. They go real fast.</p>  <br><br>  Ready? (press v or n)","",""
"4122","key","v","v","16.672939516129368","500","250","psychophysics","94","866616","0.0-94.0","5f15e4bc797c740fff2c442c","6213d13355b5256cefd43a07","4","","","","","1","4"
"null","","","null","","","","html-keyboard-response","95","867119","0.0-95.0","5f15e4bc797c740fff2c442c","6213d13355b5256cefd43a07","","","","","<p style=""color:darkgreen;font-size:24px;"">Correct :)</p>","",""
"2695","key","n","n","16.667000000000023","500","250","psychophysics","96","869818","0.0-96.0","5f15e4bc797c740fff2c442c","6213d13355b5256cefd43a07","4","","","","","1","8"
"null","","","null","","","","html-keyboard-response","97","870323","0.0-97.0","5f15e4bc797c740fff2c442c","6213d13355b5256cefd43a07","","","","","<p style=""color:darkgreen;font-size:24px;"">Correct :)</p>","",""
"2727","key","n","n","16.670621951219978","500","250","psychophysics","98","873054","0.0-98.0","5f15e4bc797c740fff2c442c","6213d13355b5256cefd43a07","4","","","","","1","6"
"null","","","null","","","","html-keyboard-response","99","873557","0.0-99.0","5f15e4bc797c740fff2c442c","6213d13355b5256cefd43a07","","","","","<p style=""color:darkgreen;font-size:24px;"">Correct :)</p>","",""
"2658","key","v","v","16.666999999999824","500","250","psychophysics","100","876220","0.0-100.0","5f15e4bc797c740fff2c442c","6213d13355b5256cefd43a07","4","","","","","1","4"
"null","","","null","","","","html-keyboard-response","101","876722","0.0-101.0","5f15e4bc797c740fff2c442c","6213d13355b5256cefd43a07","","","","","<p style=""color:darkgreen;font-size:24px;"">Correct :)</p>","",""
"2529","key","v","v","16.66699999999975","500","250","psychophysics","102","879256","0.0-102.0","5f15e4bc797c740fff2c442c","6213d13355b5256cefd43a07","4","","","","","1","1"
"null","","","null","","","","html-keyboard-response","103","879757","0.0-103.0","5f15e4bc797c740fff2c442c","6213d13355b5256cefd43a07","","","","","<p style=""color:darkgreen;font-size:24px;"">Correct :)</p>","",""
"2543","key","n","n","16.666999999999852","500","250","psychophysics","104","882305","0.0-104.0","5f15e4bc797c740fff2c442c","6213d13355b5256cefd43a07","4","","","","","1","6"
"null","","","null","","","","html-keyboard-response","105","882810","0.0-105.0","5f15e4bc797c740fff2c442c","6213d13355b5256cefd43a07","","","","","<p style=""color:darkgreen;font-size:24px;"">Correct :)</p>","",""
"2622","key","n","n","16.66980891719766","500","250","psychophysics","106","885436","0.0-106.0","5f15e4bc797c740fff2c442c","6213d13355b5256cefd43a07","4","","","","","1","6"
"null","","","null","","","","html-keyboard-response","107","885939","0.0-107.0","5f15e4bc797c740fff2c442c","6213d13355b5256cefd43a07","","","","","<p style=""color:darkgreen;font-size:24px;"">Correct :)</p>","",""
"2599","key","v","v","16.666999999999415","500","250","psychophysics","108","888542","0.0-108.0","5f15e4bc797c740fff2c442c","6213d13355b5256cefd43a07","4","","","","","1","2"
"null","","","null","","","","html-keyboard-response","109","889045","0.0-109.0","5f15e4bc797c740fff2c442c","6213d13355b5256cefd43a07","","","","","<p style=""color:darkgreen;font-size:24px;"">Correct :)</p>","",""
"2619","key","v","v","16.66700000000026","500","250","psychophysics","110","891668","0.0-110.0","5f15e4bc797c740fff2c442c","6213d13355b5256cefd43a07","4","","","","","1","3"
"null","","","null","","","","html-keyboard-response","111","892170","0.0-111.0","5f15e4bc797c740fff2c442c","6213d13355b5256cefd43a07","","","","","<p style=""color:darkgreen;font-size:24px;"">Correct :)</p>","",""
"2530","key","n","n","16.67057894736813","500","250","psychophysics","112","894704","0.0-112.0","5f15e4bc797c740fff2c442c","6213d13355b5256cefd43a07","4","","","","","1","8"
"null","","","null","","","","html-keyboard-response","113","895206","0.0-113.0","5f15e4bc797c740fff2c442c","6213d13355b5256cefd43a07","","","","","<p style=""color:darkgreen;font-size:24px;"">Correct :)</p>","",""
"2581","key","n","n","16.66700000000006","500","250","psychophysics","114","897790","0.0-114.0","5f15e4bc797c740fff2c442c","6213d13355b5256cefd43a07","4","","","","","1","9"
"null","","","null","","","","html-keyboard-response","115","898292","0.0-115.0","5f15e4bc797c740fff2c442c","6213d13355b5256cefd43a07","","","","","<p style=""color:darkgreen;font-size:24px;"">Correct :)</p>","",""
"2577","key","n","n","16.66700000000006","500","250","psychophysics","116","900876","0.0-116.0","5f15e4bc797c740fff2c442c","6213d13355b5256cefd43a07","4","","","","","1","6"
"null","","","null","","","","html-keyboard-response","117","901381","0.0-117.0","5f15e4bc797c740fff2c442c","6213d13355b5256cefd43a07","","","","","<p style=""color:darkgreen;font-size:24px;"">Correct :)</p>","",""
"2602","key","v","v","16.66978205128152","500","250","psychophysics","118","903987","0.0-118.0","5f15e4bc797c740fff2c442c","6213d13355b5256cefd43a07","4","","","","","1","2"
"null","","","null","","","","html-keyboard-response","119","904489","0.0-119.0","5f15e4bc797c740fff2c442c","6213d13355b5256cefd43a07","","","","","<p style=""color:darkgreen;font-size:24px;"">Correct :)</p>","",""
"2601","key","v","v","16.66700000000016","500","250","psychophysics","120","907093","0.0-120.0","5f15e4bc797c740fff2c442c","6213d13355b5256cefd43a07","4","","","","","1","2"
"null","","","null","","","","html-keyboard-response","121","907598","0.0-121.0","5f15e4bc797c740fff2c442c","6213d13355b5256cefd43a07","","","","","<p style=""color:darkgreen;font-size:24px;"">Correct :)</p>","",""
"2668","key","v","v","16.666999999999824","500","250","psychophysics","122","910270","0.0-122.0","5f15e4bc797c740fff2c442c","6213d13355b5256cefd43a07","4","","","","","1","4"
"null","","","null","","","","html-keyboard-response","123","910773","0.0-123.0","5f15e4bc797c740fff2c442c","6213d13355b5256cefd43a07","","","","","<p style=""color:darkgreen;font-size:24px;"">Correct :)</p>","",""
"2543","key","n","n","16.670692810457766","500","250","psychophysics","124","913321","0.0-124.0","5f15e4bc797c740fff2c442c","6213d13355b5256cefd43a07","4","","","","","1","7"
"null","","","null","","","","html-keyboard-response","125","913823","0.0-125.0","5f15e4bc797c740fff2c442c","6213d13355b5256cefd43a07","","","","","<p style=""color:darkgreen;font-size:24px;"">Correct :)</p>","",""
"2609","key","v","v","16.66699999999952","500","250","psychophysics","126","916436","0.0-126.0","5f15e4bc797c740fff2c442c","6213d13355b5256cefd43a07","4","","","","","1","1"
"null","","","null","","","","html-keyboard-response","127","916939","0.0-127.0","5f15e4bc797c740fff2c442c","6213d13355b5256cefd43a07","","","","","<p style=""color:darkgreen;font-size:24px;"">Correct :)</p>","",""
"2466","key","v","v","16.6670000000001","500","250","psychophysics","128","919409","0.0-128.0","5f15e4bc797c740fff2c442c","6213d13355b5256cefd43a07","4","","","","","1","1"
"null","","","null","","","","html-keyboard-response","129","919910","0.0-129.0","5f15e4bc797c740fff2c442c","6213d13355b5256cefd43a07","","","","","<p style=""color:darkgreen;font-size:24px;"">Correct :)</p>","",""
"2577","key","v","v","16.66700000000006","500","250","psychophysics","130","922491","0.0-130.0","5f15e4bc797c740fff2c442c","6213d13355b5256cefd43a07","4","","","","","1","2"
"null","","","null","","","","html-keyboard-response","131","922993","0.0-131.0","5f15e4bc797c740fff2c442c","6213d13355b5256cefd43a07","","","","","<p style=""color:darkgreen;font-size:24px;"">Correct :)</p>","",""
"2577","key","v","v","16.670193548387125","500","250","psychophysics","132","925575","0.0-132.0","5f15e4bc797c740fff2c442c","6213d13355b5256cefd43a07","4","","","","","1","4"
"null","","","null","","","","html-keyboard-response","133","926076","0.0-133.0","5f15e4bc797c740fff2c442c","6213d13355b5256cefd43a07","","","","","<p style=""color:darkgreen;font-size:24px;"">Correct :)</p>","",""
"2612","key","v","v","16.66699999999952","500","250","psychophysics","134","928692","0.0-134.0","5f15e4bc797c740fff2c442c","6213d13355b5256cefd43a07","4","","","","","1","4"
"null","","","null","","","","html-keyboard-response","135","929194","0.0-135.0","5f15e4bc797c740fff2c442c","6213d13355b5256cefd43a07","","","","","<p style=""color:darkgreen;font-size:24px;"">Correct :)</p>","",""
"2674","key","v","v","16.666999999999923","500","250","psychophysics","136","931872","0.0-136.0","5f15e4bc797c740fff2c442c","6213d13355b5256cefd43a07","4","","","","","1","1"
"null","","","null","","","","html-keyboard-response","137","932374","0.0-137.0","5f15e4bc797c740fff2c442c","6213d13355b5256cefd43a07","","","","","<p style=""color:darkgreen;font-size:24px;"">Correct :)</p>","",""
"2745","key","n","n","16.669927272727627","500","250","psychophysics","138","935124","0.0-138.0","5f15e4bc797c740fff2c442c","6213d13355b5256cefd43a07","4","","","","","1","9"
"null","","","null","","","","html-keyboard-response","139","935626","0.0-139.0","5f15e4bc797c740fff2c442c","6213d13355b5256cefd43a07","","","","","<p style=""color:darkgreen;font-size:24px;"">Correct :)</p>","",""
"2619","key","n","n","16.66699999999952","500","250","psychophysics","140","938249","0.0-140.0","5f15e4bc797c740fff2c442c","6213d13355b5256cefd43a07","4","","","","","1","9"
"null","","","null","","","","html-keyboard-response","141","938754","0.0-141.0","5f15e4bc797c740fff2c442c","6213d13355b5256cefd43a07","","","","","<p style=""color:darkgreen;font-size:24px;"">Correct :)</p>","",""
"2791","key","v","v","16.6669999999998","500","250","psychophysics","142","941549","0.0-142.0","5f15e4bc797c740fff2c442c","6213d13355b5256cefd43a07","4","","","","","1","2"
"null","","","null","","","","html-keyboard-response","143","942052","0.0-143.0","5f15e4bc797c740fff2c442c","6213d13355b5256cefd43a07","","","","","<p style=""color:darkgreen;font-size:24px;"">Correct :)</p>","",""
"2776","key","n","n","16.67003614457846","500","250","psychophysics","144","944832","0.0-144.0","5f15e4bc797c740fff2c442c","6213d13355b5256cefd43a07","4","","","","","1","7"
"null","","","null","","","","html-keyboard-response","145","945334","0.0-145.0","5f15e4bc797c740fff2c442c","6213d13355b5256cefd43a07","","","","","<p style=""color:darkgreen;font-size:24px;"">Correct :)</p>","",""
"2728","key","n","n","16.66700000000012","500","250","psychophysics","146","948067","0.0-146.0","5f15e4bc797c740fff2c442c","6213d13355b5256cefd43a07","4","","","","","1","8"
"null","","","null","","","","html-keyboard-response","147","948571","0.0-147.0","5f15e4bc797c740fff2c442c","6213d13355b5256cefd43a07","","","","","<p style=""color:darkgreen;font-size:24px;"">Correct :)</p>","",""
"2720","key","n","n","16.66700000000012","500","250","psychophysics","148","951295","0.0-148.0","5f15e4bc797c740fff2c442c","6213d13355b5256cefd43a07","4","","","","","1","7"
"null","","","null","","","","html-keyboard-response","149","951798","0.0-149.0","5f15e4bc797c740fff2c442c","6213d13355b5256cefd43a07","","","","","<p style=""color:darkgreen;font-size:24px;"">Correct :)</p>","",""
"2801","key","v","v","16.669751479289737","500","250","psychophysics","150","954605","0.0-150.0","5f15e4bc797c740fff2c442c","6213d13355b5256cefd43a07","4","","","","","1","4"
"null","","","null","","","","html-keyboard-response","151","955107","0.0-151.0","5f15e4bc797c740fff2c442c","6213d13355b5256cefd43a07","","","","","<p style=""color:darkgreen;font-size:24px;"">Correct :)</p>","",""
"2643","key","v","v","16.66700000000036","500","250","psychophysics","152","957754","0.0-152.0","5f15e4bc797c740fff2c442c","6213d13355b5256cefd43a07","4","","","","","1","3"
"null","","","null","","","","html-keyboard-response","153","958257","0.0-153.0","5f15e4bc797c740fff2c442c","6213d13355b5256cefd43a07","","","","","<p style=""color:darkgreen;font-size:24px;"">Correct :)</p>","",""
"2670","key","n","n","16.666999999999824","500","250","psychophysics","154","960931","0.0-154.0","5f15e4bc797c740fff2c442c","6213d13355b5256cefd43a07","4","","","","","1","6"
"null","","","null","","","","html-keyboard-response","155","961435","0.0-155.0","5f15e4bc797c740fff2c442c","6213d13355b5256cefd43a07","","","","","<p style=""color:darkgreen;font-size:24px;"">Correct :)</p>","",""
"2559","key","v","v","16.66992156862683","500","250","psychophysics","156","963999","0.0-156.0","5f15e4bc797c740fff2c442c","6213d13355b5256cefd43a07","4","","","","","1","4"
"null","","","null","","","","html-keyboard-response","157","964500","0.0-157.0","5f15e4bc797c740fff2c442c","6213d13355b5256cefd43a07","","","","","<p style=""color:darkgreen;font-size:24px;"">Correct :)</p>","",""
"2756","key","n","n","16.667000000000403","500","250","psychophysics","158","967261","0.0-158.0","5f15e4bc797c740fff2c442c","6213d13355b5256cefd43a07","4","","","","","1","6"
"null","","","null","","","","html-keyboard-response","159","967763","0.0-159.0","5f15e4bc797c740fff2c442c","6213d13355b5256cefd43a07","","","","","<p style=""color:darkgreen;font-size:24px;"">Correct :)</p>","",""
"2544","key","n","n","16.666999999999852","500","250","psychophysics","160","970311","0.0-160.0","5f15e4bc797c740fff2c442c","6213d13355b5256cefd43a07","4","","","","","1","7"
"null","","","null","","","","html-keyboard-response","161","970813","0.0-161.0","5f15e4bc797c740fff2c442c","6213d13355b5256cefd43a07","","","","","<p style=""color:darkgreen;font-size:24px;"">Correct :)</p>","",""
"2584","key","v","v","16.67060645161302","500","250","psychophysics","162","973402","0.0-162.0","5f15e4bc797c740fff2c442c","6213d13355b5256cefd43a07","4","","","","","1","4"
"null","","","null","","","","html-keyboard-response","163","973907","0.0-163.0","5f15e4bc797c740fff2c442c","6213d13355b5256cefd43a07","","","","","<p style=""color:darkgreen;font-size:24px;"">Correct :)</p>","",""
"2517","key","v","v","16.667000000000414","500","250","psychophysics","164","976428","0.0-164.0","5f15e4bc797c740fff2c442c","6213d13355b5256cefd43a07","4","","","","","1","2"
"null","","","null","","","","html-keyboard-response","165","976933","0.0-165.0","5f15e4bc797c740fff2c442c","6213d13355b5256cefd43a07","","","","","<p style=""color:darkgreen;font-size:24px;"">Correct :)</p>","",""
"2520","key","v","v","16.666999999999643","500","250","psychophysics","166","979457","0.0-166.0","5f15e4bc797c740fff2c442c","6213d13355b5256cefd43a07","4","","","","","1","1"
"null","","","null","","","","html-keyboard-response","167","979959","0.0-167.0","5f15e4bc797c740fff2c442c","6213d13355b5256cefd43a07","","","","","<p style=""color:darkgreen;font-size:24px;"">Correct :)</p>","",""
"2579","key","n","n","16.66699999999996","500","250","psychophysics","168","982543","0.0-168.0","5f15e4bc797c740fff2c442c","6213d13355b5256cefd43a07","4","","","","","1","9"
"null","","","null","","","","html-keyboard-response","169","983048","0.0-169.0","5f15e4bc797c740fff2c442c","6213d13355b5256cefd43a07","","","","","<p style=""color:darkgreen;font-size:24px;"">Correct :)</p>","",""
"2615","key","v","v","16.670057324840908","500","250","psychophysics","170","985668","0.0-170.0","5f15e4bc797c740fff2c442c","6213d13355b5256cefd43a07","4","","","","","1","4"
"null","","","null","","","","html-keyboard-response","171","986172","0.0-171.0","5f15e4bc797c740fff2c442c","6213d13355b5256cefd43a07","","","","","<p style=""color:darkgreen;font-size:24px;"">Correct :)</p>","",""
"2496","key","n","n","16.666999999999533","500","250","psychophysics","172","988672","0.0-172.0","5f15e4bc797c740fff2c442c","6213d13355b5256cefd43a07","4","","","","","1","7"
"null","","","null","","","","html-keyboard-response","173","989174","0.0-173.0","5f15e4bc797c740fff2c442c","6213d13355b5256cefd43a07","","","","","<p style=""color:darkgreen;font-size:24px;"">Correct :)</p>","",""
"2645","key","n","n","16.667000000000456","500","250","psychophysics","174","991823","0.0-174.0","5f15e4bc797c740fff2c442c","6213d13355b5256cefd43a07","4","","","","","1","9"
"null","","","null","","","","html-keyboard-response","175","992326","0.0-175.0","5f15e4bc797c740fff2c442c","6213d13355b5256cefd43a07","","","","","<p style=""color:darkgreen;font-size:24px;"">Correct :)</p>","",""
"2579","key","v","v","16.66978064516199","500","250","psychophysics","176","994911","0.0-176.0","5f15e4bc797c740fff2c442c","6213d13355b5256cefd43a07","4","","","","","1","4"
"null","","","null","","","","html-keyboard-response","177","995415","0.0-177.0","5f15e4bc797c740fff2c442c","6213d13355b5256cefd43a07","","","","","<p style=""color:darkgreen;font-size:24px;"">Correct :)</p>","",""
"2469","key","n","n","16.6670000000001","500","250","psychophysics","178","997888","0.0-178.0","5f15e4bc797c740fff2c442c","6213d13355b5256cefd43a07","4","","","","","1","8"
"null","","","null","","","","html-keyboard-response","179","998390","0.0-179.0","5f15e4bc797c740fff2c442c","6213d13355b5256cefd43a07","","","","","<p style=""color:darkgreen;font-size:24px;"">Correct :)</p>","",""
"2520","key","v","v","16.667000000000414","500","250","psychophysics","180","1000914","0.0-180.0","5f15e4bc797c740fff2c442c","6213d13355b5256cefd43a07","4","","","","","1","2"
"null","","","null","","","","html-keyboard-response","181","1001419","0.0-181.0","5f15e4bc797c740fff2c442c","6213d13355b5256cefd43a07","","","","","<p style=""color:darkgreen;font-size:24px;"">Correct :)</p>","",""
"2442","key","n","n","16.67078767123326","500","250","psychophysics","182","1003864","0.0-182.0","5f15e4bc797c740fff2c442c","6213d13355b5256cefd43a07","4","","","","","1","9"
"null","","","null","","","","html-keyboard-response","183","1004368","0.0-183.0","5f15e4bc797c740fff2c442c","6213d13355b5256cefd43a07","","","","","<p style=""color:darkgreen;font-size:24px;"">Correct :)</p>","",""
"2505","key","n","n","16.666999999999533","500","250","psychophysics","184","1006877","0.0-184.0","5f15e4bc797c740fff2c442c","6213d13355b5256cefd43a07","4","","","","","1","8"
"null","","","null","","","","html-keyboard-response","185","1007381","0.0-185.0","5f15e4bc797c740fff2c442c","6213d13355b5256cefd43a07","","","","","<p style=""color:darkgreen;font-size:24px;"">Correct :)</p>","",""
"2569","key","v","v","16.66700000000006","500","250","psychophysics","186","1009955","0.0-186.0","5f15e4bc797c740fff2c442c","6213d13355b5256cefd43a07","4","","","","","1","4"
"null","","","null","","","","html-keyboard-response","187","1010458","0.0-187.0","5f15e4bc797c740fff2c442c","6213d13355b5256cefd43a07","","","","","<p style=""color:darkgreen;font-size:24px;"">Correct :)</p>","",""
"2544","key","n","n","16.666999999999852","500","250","psychophysics","188","1013006","0.0-188.0","5f15e4bc797c740fff2c442c","6213d13355b5256cefd43a07","4","","","","","1","9"
"null","","","null","","","","html-keyboard-response","189","1013508","0.0-189.0","5f15e4bc797c740fff2c442c","6213d13355b5256cefd43a07","","","","","<p style=""color:darkgreen;font-size:24px;"">Correct :)</p>","",""
"2600","key","n","n","16.669602564102462","500","250","psychophysics","190","1016112","0.0-190.0","5f15e4bc797c740fff2c442c","6213d13355b5256cefd43a07","4","","","","","1","7"
"null","","","null","","","","html-keyboard-response","191","1016618","0.0-191.0","5f15e4bc797c740fff2c442c","6213d13355b5256cefd43a07","","","","","<p style=""color:darkgreen;font-size:24px;"">Correct :)</p>","",""
"2619","key","v","v","16.66700000000026","500","250","psychophysics","192","1019241","0.0-192.0","5f15e4bc797c740fff2c442c","6213d13355b5256cefd43a07","4","","","","","1","3"
"null","","","null","","","","html-keyboard-response","193","1019746","0.0-193.0","5f15e4bc797c740fff2c442c","6213d13355b5256cefd43a07","","","","","<p style=""color:darkgreen;font-size:24px;"">Correct :)</p>","",""
"20781","","","n","","","","html-keyboard-response","194","1040529","0.0-194.0","5f15e4bc797c740fff2c442c","6213d13355b5256cefd43a07","","","","","<p> Ok, now we are going present the same digits as before.  Your job is to say whether the digit is even or odd  If the digit is odd, press to v key; if it is even, press the n key. We are going to do 50 of these.  </p>  <br><br>  Ready? (press v or n)","",""
"2837","key","v","v","16.675405882353044","500","250","psychophysics","195","1043371","0.0-195.0","5f15e4bc797c740fff2c442c","6213d13355b5256cefd43a07","5","","","","","0","7"
"null","","","null","","","","html-keyboard-response","196","1043873","0.0-196.0","5f15e4bc797c740fff2c442c","6213d13355b5256cefd43a07","","","","","<p style=""color:darkgreen;font-size:24px;"">Correct :)</p>","",""
"2717","key","v","v","16.666999999999405","500","250","psychophysics","197","1046594","0.0-197.0","5f15e4bc797c740fff2c442c","6213d13355b5256cefd43a07","5","","","","","0","1"
"null","","","null","","","","html-keyboard-response","198","1047096","0.0-198.0","5f15e4bc797c740fff2c442c","6213d13355b5256cefd43a07","","","","","<p style=""color:darkgreen;font-size:24px;"">Correct :)</p>","",""
"2576","key","v","v","16.66700000000081","500","250","psychophysics","199","1049676","0.0-199.0","5f15e4bc797c740fff2c442c","6213d13355b5256cefd43a07","5","","","","","0","3"
"null","","","null","","","","html-keyboard-response","200","1050178","0.0-200.0","5f15e4bc797c740fff2c442c","6213d13355b5256cefd43a07","","","","","<p style=""color:darkgreen;font-size:24px;"">Correct :)</p>","",""
"2589","key","v","v","16.669903225806213","500","250","psychophysics","201","1052770","0.0-201.0","5f15e4bc797c740fff2c442c","6213d13355b5256cefd43a07","5","","","","","0","3"
"null","","","null","","","","html-keyboard-response","202","1053272","0.0-202.0","5f15e4bc797c740fff2c442c","6213d13355b5256cefd43a07","","","","","<p style=""color:darkgreen;font-size:24px;"">Correct :)</p>","",""
"2623","key","n","n","16.66700000000026","500","250","psychophysics","203","1055899","0.0-203.0","5f15e4bc797c740fff2c442c","6213d13355b5256cefd43a07","5","","","","","0","8"
"null","","","null","","","","html-keyboard-response","204","1056401","0.0-204.0","5f15e4bc797c740fff2c442c","6213d13355b5256cefd43a07","","","","","<p style=""color:darkgreen;font-size:24px;"">Correct :)</p>","",""
"2650","key","v","v","16.667000000000456","500","250","psychophysics","205","1059055","0.0-205.0","5f15e4bc797c740fff2c442c","6213d13355b5256cefd43a07","5","","","","","0","9"
"null","","","null","","","","html-keyboard-response","206","1059559","0.0-206.0","5f15e4bc797c740fff2c442c","6213d13355b5256cefd43a07","","","","","<p style=""color:darkgreen;font-size:24px;"">Correct :)</p>","",""
"2585","key","v","v","16.669741935484232","500","250","psychophysics","207","1062148","0.0-207.0","5f15e4bc797c740fff2c442c","6213d13355b5256cefd43a07","5","","","","","0","1"
"null","","","null","","","","html-keyboard-response","208","1062653","0.0-208.0","5f15e4bc797c740fff2c442c","6213d13355b5256cefd43a07","","","","","<p style=""color:darkgreen;font-size:24px;"">Correct :)</p>","",""
"2706","key","v","v","16.666999999999405","500","250","psychophysics","209","1065364","0.0-209.0","5f15e4bc797c740fff2c442c","6213d13355b5256cefd43a07","5","","","","","0","9"
"null","","","null","","","","html-keyboard-response","210","1065867","0.0-210.0","5f15e4bc797c740fff2c442c","6213d13355b5256cefd43a07","","","","","<p style=""color:darkgreen;font-size:24px;"">Correct :)</p>","",""
"2529","key","v","v","16.667000000000513","500","250","psychophysics","211","1068400","0.0-211.0","5f15e4bc797c740fff2c442c","6213d13355b5256cefd43a07","5","","","","","0","1"
"null","","","null","","","","html-keyboard-response","212","1068904","0.0-212.0","5f15e4bc797c740fff2c442c","6213d13355b5256cefd43a07","","","","","<p style=""color:darkgreen;font-size:24px;"">Correct :)</p>","",""
"2510","key","n","n","16.67076821191952","500","250","psychophysics","213","1071419","0.0-213.0","5f15e4bc797c740fff2c442c","6213d13355b5256cefd43a07","5","","","","","0","4"
"null","","","null","","","","html-keyboard-response","214","1071924","0.0-214.0","5f15e4bc797c740fff2c442c","6213d13355b5256cefd43a07","","","","","<p style=""color:darkgreen;font-size:24px;"">Correct :)</p>","",""
"2604","key","v","v","16.666999999999415","500","250","psychophysics","215","1074532","0.0-215.0","5f15e4bc797c740fff2c442c","6213d13355b5256cefd43a07","5","","","","","0","1"
"null","","","null","","","","html-keyboard-response","216","1075035","0.0-216.0","5f15e4bc797c740fff2c442c","6213d13355b5256cefd43a07","","","","","<p style=""color:darkgreen;font-size:24px;"">Correct :)</p>","",""
"2647","key","n","n","16.667000000000456","500","250","psychophysics","217","1077686","0.0-217.0","5f15e4bc797c740fff2c442c","6213d13355b5256cefd43a07","5","","","","","0","6"
"null","","","null","","","","html-keyboard-response","218","1078188","0.0-218.0","5f15e4bc797c740fff2c442c","6213d13355b5256cefd43a07","","","","","<p style=""color:darkgreen;font-size:24px;"">Correct :)</p>","",""
"2844","key","n","n","16.669970760233593","500","250","psychophysics","219","1081036","0.0-219.0","5f15e4bc797c740fff2c442c","6213d13355b5256cefd43a07","5","","","","","0","2"
"null","","","null","","","","html-keyboard-response","220","1081538","0.0-220.0","5f15e4bc797c740fff2c442c","6213d13355b5256cefd43a07","","","","","<p style=""color:darkgreen;font-size:24px;"">Correct :)</p>","",""
"2714","key","n","n","16.666999999999405","500","250","psychophysics","221","1084257","0.0-221.0","5f15e4bc797c740fff2c442c","6213d13355b5256cefd43a07","5","","","","","0","4"
"null","","","null","","","","html-keyboard-response","222","1084759","0.0-222.0","5f15e4bc797c740fff2c442c","6213d13355b5256cefd43a07","","","","","<p style=""color:darkgreen;font-size:24px;"">Correct :)</p>","",""
"2587","key","n","n","16.66700000000006","500","250","psychophysics","223","1087350","0.0-223.0","5f15e4bc797c740fff2c442c","6213d13355b5256cefd43a07","5","","","","","0","8"
"null","","","null","","","","html-keyboard-response","224","1087853","0.0-224.0","5f15e4bc797c740fff2c442c","6213d13355b5256cefd43a07","","","","","<p style=""color:darkgreen;font-size:24px;"">Correct :)</p>","",""
"2546","key","n","n","16.666999999999852","500","250","psychophysics","225","1090403","0.0-225.0","5f15e4bc797c740fff2c442c","6213d13355b5256cefd43a07","5","","","","","0","6"
"null","","","null","","","","html-keyboard-response","226","1090907","0.0-226.0","5f15e4bc797c740fff2c442c","6213d13355b5256cefd43a07","","","","","<p style=""color:darkgreen;font-size:24px;"">Correct :)</p>","",""
"2627","key","v","v","16.66962658227834","500","250","psychophysics","227","1093538","0.0-227.0","5f15e4bc797c740fff2c442c","6213d13355b5256cefd43a07","5","","","","","0","3"
"null","","","null","","","","html-keyboard-response","228","1094041","0.0-228.0","5f15e4bc797c740fff2c442c","6213d13355b5256cefd43a07","","","","","<p style=""color:darkgreen;font-size:24px;"">Correct :)</p>","",""
"2597","key","n","n","16.66700000000006","500","250","psychophysics","229","1096642","0.0-229.0","5f15e4bc797c740fff2c442c","6213d13355b5256cefd43a07","5","","","","","0","4"
"null","","","null","","","","html-keyboard-response","230","1097147","0.0-230.0","5f15e4bc797c740fff2c442c","6213d13355b5256cefd43a07","","","","","<p style=""color:darkgreen;font-size:24px;"">Correct :)</p>","",""
"2639","key","v","v","16.66699999999962","500","250","psychophysics","231","1099790","0.0-231.0","5f15e4bc797c740fff2c442c","6213d13355b5256cefd43a07","5","","","","","0","1"
"null","","","null","","","","html-keyboard-response","232","1100294","0.0-232.0","5f15e4bc797c740fff2c442c","6213d13355b5256cefd43a07","","","","","<p style=""color:darkgreen;font-size:24px;"">Correct :)</p>","",""
"2444","key","n","n","16.67097260274012","500","250","psychophysics","233","1102742","0.0-233.0","5f15e4bc797c740fff2c442c","6213d13355b5256cefd43a07","5","","","","","0","4"
"null","","","null","","","","html-keyboard-response","234","1103244","0.0-234.0","5f15e4bc797c740fff2c442c","6213d13355b5256cefd43a07","","","","","<p style=""color:darkgreen;font-size:24px;"">Correct :)</p>","",""
"2508","key","n","n","16.66700000000031","500","250","psychophysics","235","1105756","0.0-235.0","5f15e4bc797c740fff2c442c","6213d13355b5256cefd43a07","5","","","","","0","8"
"null","","","null","","","","html-keyboard-response","236","1106258","0.0-236.0","5f15e4bc797c740fff2c442c","6213d13355b5256cefd43a07","","","","","<p style=""color:darkgreen;font-size:24px;"">Correct :)</p>","",""
"2612","key","v","v","16.66700000000026","500","250","psychophysics","237","1108874","0.0-237.0","5f15e4bc797c740fff2c442c","6213d13355b5256cefd43a07","5","","","","","0","7"
"null","","","null","","","","html-keyboard-response","238","1109378","0.0-238.0","5f15e4bc797c740fff2c442c","6213d13355b5256cefd43a07","","","","","<p style=""color:darkgreen;font-size:24px;"">Correct :)</p>","",""
"2551","key","n","n","16.670274509804848","500","250","psychophysics","239","1111933","0.0-239.0","5f15e4bc797c740fff2c442c","6213d13355b5256cefd43a07","5","","","","","0","8"
"null","","","null","","","","html-keyboard-response","240","1112438","0.0-240.0","5f15e4bc797c740fff2c442c","6213d13355b5256cefd43a07","","","","","<p style=""color:darkgreen;font-size:24px;"">Correct :)</p>","",""
"2501","key","n","n","16.66700000000031","500","250","psychophysics","241","1114943","0.0-241.0","5f15e4bc797c740fff2c442c","6213d13355b5256cefd43a07","5","","","","","0","8"
"null","","","null","","","","html-keyboard-response","242","1115445","0.0-242.0","5f15e4bc797c740fff2c442c","6213d13355b5256cefd43a07","","","","","<p style=""color:darkgreen;font-size:24px;"">Correct :)</p>","",""
"139","key","n","n","16.66699999998673","500","250","psychophysics","243","1115588","0.0-243.0","5f15e4bc797c740fff2c442c","6213d13355b5256cefd43a07","5","","","","","0","9"
"null","","","null","","","","html-keyboard-response","244","1116089","0.0-244.0","5f15e4bc797c740fff2c442c","6213d13355b5256cefd43a07","","","","","<p style=""color:red;font-size:24px;"">Error :(</p>","",""
"2818","key","v","v","16.666999999999987","500","250","psychophysics","245","1118912","0.0-245.0","5f15e4bc797c740fff2c442c","6213d13355b5256cefd43a07","5","","","","","0","3"
"null","","","null","","","","html-keyboard-response","246","1119416","0.0-246.0","5f15e4bc797c740fff2c442c","6213d13355b5256cefd43a07","","","","","<p style=""color:darkgreen;font-size:24px;"">Correct :)</p>","",""
"2466","key","n","n","16.67018243243188","500","250","psychophysics","247","1121885","0.0-247.0","5f15e4bc797c740fff2c442c","6213d13355b5256cefd43a07","5","","","","","0","4"
"null","","","null","","","","html-keyboard-response","248","1122390","0.0-248.0","5f15e4bc797c740fff2c442c","6213d13355b5256cefd43a07","","","","","<p style=""color:darkgreen;font-size:24px;"">Correct :)</p>","",""
"2669","key","v","v","16.666999999999824","500","250","psychophysics","249","1125063","0.0-249.0","5f15e4bc797c740fff2c442c","6213d13355b5256cefd43a07","5","","","","","0","3"
"null","","","null","","","","html-keyboard-response","250","1125564","0.0-250.0","5f15e4bc797c740fff2c442c","6213d13355b5256cefd43a07","","","","","<p style=""color:darkgreen;font-size:24px;"">Correct :)</p>","",""
"2519","key","v","v","16.666999999999643","500","250","psychophysics","251","1128088","0.0-251.0","5f15e4bc797c740fff2c442c","6213d13355b5256cefd43a07","5","","","","","0","3"
"null","","","null","","","","html-keyboard-response","252","1128589","0.0-252.0","5f15e4bc797c740fff2c442c","6213d13355b5256cefd43a07","","","","","<p style=""color:darkgreen;font-size:24px;"">Correct :)</p>","",""
"2628","key","v","v","16.67025316455637","500","250","psychophysics","253","1131221","0.0-253.0","5f15e4bc797c740fff2c442c","6213d13355b5256cefd43a07","5","","","","","0","3"
"null","","","null","","","","html-keyboard-response","254","1131723","0.0-254.0","5f15e4bc797c740fff2c442c","6213d13355b5256cefd43a07","","","","","<p style=""color:darkgreen;font-size:24px;"">Correct :)</p>","",""
"2632","key","n","n","16.66699999999962","500","250","psychophysics","255","1134359","0.0-255.0","5f15e4bc797c740fff2c442c","6213d13355b5256cefd43a07","5","","","","","0","6"
"null","","","null","","","","html-keyboard-response","256","1134863","0.0-256.0","5f15e4bc797c740fff2c442c","6213d13355b5256cefd43a07","","","","","<p style=""color:darkgreen;font-size:24px;"">Correct :)</p>","",""
"2620","key","n","n","16.66700000000026","500","250","psychophysics","257","1137488","0.0-257.0","5f15e4bc797c740fff2c442c","6213d13355b5256cefd43a07","5","","","","","0","2"
"null","","","null","","","","html-keyboard-response","258","1137990","0.0-258.0","5f15e4bc797c740fff2c442c","6213d13355b5256cefd43a07","","","","","<p style=""color:darkgreen;font-size:24px;"">Correct :)</p>","",""
"2616","key","n","n","16.66699999999878","500","250","psychophysics","259","1140610","0.0-259.0","5f15e4bc797c740fff2c442c","6213d13355b5256cefd43a07","5","","","","","0","4"
"null","","","null","","","","html-keyboard-response","260","1141115","0.0-260.0","5f15e4bc797c740fff2c442c","6213d13355b5256cefd43a07","","","","","<p style=""color:darkgreen;font-size:24px;"">Correct :)</p>","",""
"2546","key","v","v","16.669578947367356","500","250","psychophysics","261","1143666","0.0-261.0","5f15e4bc797c740fff2c442c","6213d13355b5256cefd43a07","5","","","","","0","3"
"null","","","null","","","","html-keyboard-response","262","1144169","0.0-262.0","5f15e4bc797c740fff2c442c","6213d13355b5256cefd43a07","","","","","<p style=""color:darkgreen;font-size:24px;"">Correct :)</p>","",""
"2591","key","n","n","16.66700000000006","500","250","psychophysics","263","1146764","0.0-263.0","5f15e4bc797c740fff2c442c","6213d13355b5256cefd43a07","5","","","","","0","8"
"null","","","null","","","","html-keyboard-response","264","1147267","0.0-264.0","5f15e4bc797c740fff2c442c","6213d13355b5256cefd43a07","","","","","<p style=""color:darkgreen;font-size:24px;"">Correct :)</p>","",""
"2576","key","v","v","16.667000000000712","500","250","psychophysics","265","1149847","0.0-265.0","5f15e4bc797c740fff2c442c","6213d13355b5256cefd43a07","5","","","","","0","1"
"null","","","null","","","","html-keyboard-response","266","1150352","0.0-266.0","5f15e4bc797c740fff2c442c","6213d13355b5256cefd43a07","","","","","<p style=""color:darkgreen;font-size:24px;"">Correct :)</p>","",""
"2520","key","n","n","16.670258278145905","500","250","psychophysics","267","1152875","0.0-267.0","5f15e4bc797c740fff2c442c","6213d13355b5256cefd43a07","5","","","","","0","4"
"null","","","null","","","","html-keyboard-response","268","1153379","0.0-268.0","5f15e4bc797c740fff2c442c","6213d13355b5256cefd43a07","","","","","<p style=""color:darkgreen;font-size:24px;"">Correct :)</p>","",""
"2776","key","n","n","16.6669999999998","500","250","psychophysics","269","1156160","0.0-269.0","5f15e4bc797c740fff2c442c","6213d13355b5256cefd43a07","5","","","","","0","4"
"null","","","null","","","","html-keyboard-response","270","1156662","0.0-270.0","5f15e4bc797c740fff2c442c","6213d13355b5256cefd43a07","","","","","<p style=""color:darkgreen;font-size:24px;"">Correct :)</p>","",""
"2644","key","n","n","16.667000000000456","500","250","psychophysics","271","1159311","0.0-271.0","5f15e4bc797c740fff2c442c","6213d13355b5256cefd43a07","5","","","","","0","8"
"null","","","null","","","","html-keyboard-response","272","1159814","0.0-272.0","5f15e4bc797c740fff2c442c","6213d13355b5256cefd43a07","","","","","<p style=""color:darkgreen;font-size:24px;"">Correct :)</p>","",""
"2480","key","n","n","16.782456375838212","500","250","psychophysics","273","1162313","0.0-273.0","5f15e4bc797c740fff2c442c","6213d13355b5256cefd43a07","5","","","","","0","8"
"null","","","null","","","","html-keyboard-response","274","1162815","0.0-274.0","5f15e4bc797c740fff2c442c","6213d13355b5256cefd43a07","","","","","<p style=""color:darkgreen;font-size:24px;"">Correct :)</p>","",""
"2670","key","n","n","16.666999999999824","500","250","psychophysics","275","1165490","0.0-275.0","5f15e4bc797c740fff2c442c","6213d13355b5256cefd43a07","5","","","","","0","6"
"null","","","null","","","","html-keyboard-response","276","1165992","0.0-276.0","5f15e4bc797c740fff2c442c","6213d13355b5256cefd43a07","","","","","<p style=""color:darkgreen;font-size:24px;"">Correct :)</p>","",""
"2656","key","v","v","16.666999999998993","500","250","psychophysics","277","1168652","0.0-277.0","5f15e4bc797c740fff2c442c","6213d13355b5256cefd43a07","5","","","","","0","7"
"null","","","null","","","","html-keyboard-response","278","1169154","0.0-278.0","5f15e4bc797c740fff2c442c","6213d13355b5256cefd43a07","","","","","<p style=""color:darkgreen;font-size:24px;"">Correct :)</p>","",""
"2709","key","v","v","16.669753086419753","500","250","psychophysics","279","1171867","0.0-279.0","5f15e4bc797c740fff2c442c","6213d13355b5256cefd43a07","5","","","","","0","1"
"null","","","null","","","","html-keyboard-response","280","1172371","0.0-280.0","5f15e4bc797c740fff2c442c","6213d13355b5256cefd43a07","","","","","<p style=""color:darkgreen;font-size:24px;"">Correct :)</p>","",""
"2617","key","v","v","16.66700000000026","500","250","psychophysics","281","1174992","0.0-281.0","5f15e4bc797c740fff2c442c","6213d13355b5256cefd43a07","5","","","","","0","3"
"null","","","null","","","","html-keyboard-response","282","1175494","0.0-282.0","5f15e4bc797c740fff2c442c","6213d13355b5256cefd43a07","","","","","<p style=""color:darkgreen;font-size:24px;"">Correct :)</p>","",""
"2580","key","n","n","16.66700000000006","500","250","psychophysics","283","1178078","0.0-283.0","5f15e4bc797c740fff2c442c","6213d13355b5256cefd43a07","5","","","","","0","8"
"null","","","null","","","","html-keyboard-response","284","1178582","0.0-284.0","5f15e4bc797c740fff2c442c","6213d13355b5256cefd43a07","","","","","<p style=""color:darkgreen;font-size:24px;"">Correct :)</p>","",""
"2559","key","n","n","16.666999999999202","500","250","psychophysics","285","1181145","0.0-285.0","5f15e4bc797c740fff2c442c","6213d13355b5256cefd43a07","5","","","","","0","4"
"null","","","null","","","","html-keyboard-response","286","1181647","0.0-286.0","5f15e4bc797c740fff2c442c","6213d13355b5256cefd43a07","","","","","<p style=""color:darkgreen;font-size:24px;"">Correct :)</p>","",""
"2704","key","n","n","16.670773006135747","500","250","psychophysics","287","1184357","0.0-287.0","5f15e4bc797c740fff2c442c","6213d13355b5256cefd43a07","5","","","","","0","2"
"null","","","null","","","","html-keyboard-response","288","1184860","0.0-288.0","5f15e4bc797c740fff2c442c","6213d13355b5256cefd43a07","","","","","<p style=""color:darkgreen;font-size:24px;"">Correct :)</p>","",""
"2749","key","v","v","16.666999999999604","500","250","psychophysics","289","1187614","0.0-289.0","5f15e4bc797c740fff2c442c","6213d13355b5256cefd43a07","5","","","","","0","9"
"null","","","null","","","","html-keyboard-response","290","1188116","0.0-290.0","5f15e4bc797c740fff2c442c","6213d13355b5256cefd43a07","","","","","<p style=""color:darkgreen;font-size:24px;"">Correct :)</p>","",""
"2605","key","n","n","16.66700000000026","500","250","psychophysics","291","1190725","0.0-291.0","5f15e4bc797c740fff2c442c","6213d13355b5256cefd43a07","5","","","","","0","2"
"null","","","null","","","","html-keyboard-response","292","1191228","0.0-292.0","5f15e4bc797c740fff2c442c","6213d13355b5256cefd43a07","","","","","<p style=""color:darkgreen;font-size:24px;"">Correct :)</p>","",""
"2552","key","n","n","16.67002614379063","500","250","psychophysics","293","1193784","0.0-293.0","5f15e4bc797c740fff2c442c","6213d13355b5256cefd43a07","5","","","","","0","6"
"null","","","null","","","","html-keyboard-response","294","1194285","0.0-294.0","5f15e4bc797c740fff2c442c","6213d13355b5256cefd43a07","","","","","<p style=""color:darkgreen;font-size:24px;"">Correct :)</p>","",""
"23262","","","n","","","","html-keyboard-response","295","1217548","0.0-295.0","5f15e4bc797c740fff2c442c","6213d13355b5256cefd43a07","","","","","<p> Here, the tasks are going to switch.  For some trials, your job is to decide if the digit is less than or greater than 5.  For others, it is to decide if the digit is even or odd.  You will be told which type of trial the current one is.  But, pay attention, the type of trial changes too.  We are going to do 50 of these.  </p>  <br><br>  Ready? (press v or n)","",""
"2847","key","n","n","16.67456725146213","500","250","psychophysics","296","1220399","0.0-296.0","5f15e4bc797c740fff2c442c","6213d13355b5256cefd43a07","6","","","","","1","9"
"null","","","null","","","","html-keyboard-response","297","1220902","0.0-297.0","5f15e4bc797c740fff2c442c","6213d13355b5256cefd43a07","","","","","<p style=""color:darkgreen;font-size:24px;"">Correct :)</p>","",""
"3013","key","v","v","16.666999999999753","500","250","psychophysics","298","1223919","0.0-298.0","5f15e4bc797c740fff2c442c","6213d13355b5256cefd43a07","6","","","","","1","1"
"null","","","null","","","","html-keyboard-response","299","1224420","0.0-299.0","5f15e4bc797c740fff2c442c","6213d13355b5256cefd43a07","","","","","<p style=""color:darkgreen;font-size:24px;"">Correct :)</p>","",""
"2533","key","v","v","16.667000000000513","500","250","psychophysics","300","1226957","0.0-300.0","5f15e4bc797c740fff2c442c","6213d13355b5256cefd43a07","6","","","","","1","2"
"null","","","null","","","","html-keyboard-response","301","1227462","0.0-301.0","5f15e4bc797c740fff2c442c","6213d13355b5256cefd43a07","","","","","<p style=""color:darkgreen;font-size:24px;"">Correct :)</p>","",""
"3196","key","n","n","16.669447916666588","500","250","psychophysics","302","1230661","0.0-302.0","5f15e4bc797c740fff2c442c","6213d13355b5256cefd43a07","6","","","","","0","4"
"null","","","null","","","","html-keyboard-response","303","1231165","0.0-303.0","5f15e4bc797c740fff2c442c","6213d13355b5256cefd43a07","","","","","<p style=""color:darkgreen;font-size:24px;"">Correct :)</p>","",""
"2530","key","n","n","16.667000000000513","500","250","psychophysics","304","1233699","0.0-304.0","5f15e4bc797c740fff2c442c","6213d13355b5256cefd43a07","6","","","","","1","8"
"null","","","null","","","","html-keyboard-response","305","1234201","0.0-305.0","5f15e4bc797c740fff2c442c","6213d13355b5256cefd43a07","","","","","<p style=""color:darkgreen;font-size:24px;"">Correct :)</p>","",""
"2588","key","v","v","16.666999999999415","500","250","psychophysics","306","1236794","0.0-306.0","5f15e4bc797c740fff2c442c","6213d13355b5256cefd43a07","6","","","","","1","4"
"null","","","null","","","","html-keyboard-response","307","1237296","0.0-307.0","5f15e4bc797c740fff2c442c","6213d13355b5256cefd43a07","","","","","<p style=""color:darkgreen;font-size:24px;"">Correct :)</p>","",""
"3212","key","n","n","16.669689119170986","500","250","psychophysics","308","1240512","0.0-308.0","5f15e4bc797c740fff2c442c","6213d13355b5256cefd43a07","6","","","","","1","6"
"null","","","null","","","","html-keyboard-response","309","1241016","0.0-309.0","5f15e4bc797c740fff2c442c","6213d13355b5256cefd43a07","","","","","<p style=""color:darkgreen;font-size:24px;"">Correct :)</p>","",""
"2587","key","n","n","16.66700000000006","500","250","psychophysics","310","1243606","0.0-310.0","5f15e4bc797c740fff2c442c","6213d13355b5256cefd43a07","6","","","","","1","6"
"null","","","null","","","","html-keyboard-response","311","1244111","0.0-311.0","5f15e4bc797c740fff2c442c","6213d13355b5256cefd43a07","","","","","<p style=""color:darkgreen;font-size:24px;"">Correct :)</p>","",""
"3506","key","v","v","16.66700000000031","500","250","psychophysics","312","1247621","0.0-312.0","5f15e4bc797c740fff2c442c","6213d13355b5256cefd43a07","6","","","","","0","9"
"null","","","null","","","","html-keyboard-response","313","1248124","0.0-313.0","5f15e4bc797c740fff2c442c","6213d13355b5256cefd43a07","","","","","<p style=""color:darkgreen;font-size:24px;"">Correct :)</p>","",""
"3051","key","n","n","16.669704918033325","500","250","psychophysics","314","1251180","0.0-314.0","5f15e4bc797c740fff2c442c","6213d13355b5256cefd43a07","6","","","","","1","7"
"null","","","null","","","","html-keyboard-response","315","1251682","0.0-315.0","5f15e4bc797c740fff2c442c","6213d13355b5256cefd43a07","","","","","<p style=""color:darkgreen;font-size:24px;"">Correct :)</p>","",""
"2850","key","n","n","16.667000000000176","500","250","psychophysics","316","1254536","0.0-316.0","5f15e4bc797c740fff2c442c","6213d13355b5256cefd43a07","6","","","","","0","6"
"null","","","null","","","","html-keyboard-response","317","1255038","0.0-317.0","5f15e4bc797c740fff2c442c","6213d13355b5256cefd43a07","","","","","<p style=""color:darkgreen;font-size:24px;"">Correct :)</p>","",""
"2794","key","n","n","16.666999999999202","500","250","psychophysics","318","1257836","0.0-318.0","5f15e4bc797c740fff2c442c","6213d13355b5256cefd43a07","6","","","","","1","6"
"null","","","null","","","","html-keyboard-response","319","1258339","0.0-319.0","5f15e4bc797c740fff2c442c","6213d13355b5256cefd43a07","","","","","<p style=""color:darkgreen;font-size:24px;"">Correct :)</p>","",""
"2740","key","v","v","16.67010909090891","500","250","psychophysics","320","1261084","0.0-320.0","5f15e4bc797c740fff2c442c","6213d13355b5256cefd43a07","6","","","","","0","3"
"null","","","null","","","","html-keyboard-response","321","1261586","0.0-321.0","5f15e4bc797c740fff2c442c","6213d13355b5256cefd43a07","","","","","<p style=""color:darkgreen;font-size:24px;"">Correct :)</p>","",""
"2540","key","n","n","16.666999999999852","500","250","psychophysics","322","1264130","0.0-322.0","5f15e4bc797c740fff2c442c","6213d13355b5256cefd43a07","6","","","","","1","7"
"null","","","null","","","","html-keyboard-response","323","1264634","0.0-323.0","5f15e4bc797c740fff2c442c","6213d13355b5256cefd43a07","","","","","<p style=""color:darkgreen;font-size:24px;"">Correct :)</p>","",""
"2684","key","n","n","16.667000000000648","500","250","psychophysics","324","1267322","0.0-324.0","5f15e4bc797c740fff2c442c","6213d13355b5256cefd43a07","6","","","","","0","8"
"null","","","null","","","","html-keyboard-response","325","1267825","0.0-325.0","5f15e4bc797c740fff2c442c","6213d13355b5256cefd43a07","","","","","<p style=""color:darkgreen;font-size:24px;"">Correct :)</p>","",""
"3097","key","n","n","16.66955376344092","500","250","psychophysics","326","1270926","0.0-326.0","5f15e4bc797c740fff2c442c","6213d13355b5256cefd43a07","6","","","","","1","6"
"null","","","null","","","","html-keyboard-response","327","1271430","0.0-327.0","5f15e4bc797c740fff2c442c","6213d13355b5256cefd43a07","","","","","<p style=""color:darkgreen;font-size:24px;"">Correct :)</p>","",""
"3183","key","v","v","16.667000000000595","500","250","psychophysics","328","1274617","0.0-328.0","5f15e4bc797c740fff2c442c","6213d13355b5256cefd43a07","6","","","","","1","4"
"null","","","null","","","","html-keyboard-response","329","1275122","0.0-329.0","5f15e4bc797c740fff2c442c","6213d13355b5256cefd43a07","","","","","<p style=""color:darkgreen;font-size:24px;"">Correct :)</p>","",""
"3368","key","v","v","16.669504950495003","500","250","psychophysics","330","1278493","0.0-330.0","5f15e4bc797c740fff2c442c","6213d13355b5256cefd43a07","6","","","","","1","4"
"null","","","null","","","","html-keyboard-response","331","1278995","0.0-331.0","5f15e4bc797c740fff2c442c","6213d13355b5256cefd43a07","","","","","<p style=""color:darkgreen;font-size:24px;"">Correct :)</p>","",""
"3392","key","n","n","16.66700000000035","500","250","psychophysics","332","1282391","0.0-332.0","5f15e4bc797c740fff2c442c","6213d13355b5256cefd43a07","6","","","","","0","4"
"null","","","null","","","","html-keyboard-response","333","1282895","0.0-333.0","5f15e4bc797c740fff2c442c","6213d13355b5256cefd43a07","","","","","<p style=""color:darkgreen;font-size:24px;"">Correct :)</p>","",""
"2788","key","n","n","16.6669999999998","500","250","psychophysics","334","1285687","0.0-334.0","5f15e4bc797c740fff2c442c","6213d13355b5256cefd43a07","6","","","","","1","6"
"null","","","null","","","","html-keyboard-response","335","1286192","0.0-335.0","5f15e4bc797c740fff2c442c","6213d13355b5256cefd43a07","","","","","<p style=""color:darkgreen;font-size:24px;"">Correct :)</p>","",""
"3044","key","v","v","16.66914754098439","500","250","psychophysics","336","1289241","0.0-336.0","5f15e4bc797c740fff2c442c","6213d13355b5256cefd43a07","6","","","","","0","3"
"null","","","null","","","","html-keyboard-response","337","1289745","0.0-337.0","5f15e4bc797c740fff2c442c","6213d13355b5256cefd43a07","","","","","<p style=""color:darkgreen;font-size:24px;"">Correct :)</p>","",""
"3013","key","n","n","16.66700000000031","500","250","psychophysics","338","1292762","0.0-338.0","5f15e4bc797c740fff2c442c","6213d13355b5256cefd43a07","6","","","","","0","2"
"null","","","null","","","","html-keyboard-response","339","1293265","0.0-339.0","5f15e4bc797c740fff2c442c","6213d13355b5256cefd43a07","","","","","<p style=""color:darkgreen;font-size:24px;"">Correct :)</p>","",""
"3363","key","v","v","16.667000000000847","500","250","psychophysics","340","1296632","0.0-340.0","5f15e4bc797c740fff2c442c","6213d13355b5256cefd43a07","6","","","","","0","7"
"null","","","null","","","","html-keyboard-response","341","1297135","0.0-341.0","5f15e4bc797c740fff2c442c","6213d13355b5256cefd43a07","","","","","<p style=""color:darkgreen;font-size:24px;"">Correct :)</p>","",""
"2920","key","n","n","16.670314285713914","500","250","psychophysics","342","1300059","0.0-342.0","5f15e4bc797c740fff2c442c","6213d13355b5256cefd43a07","6","","","","","0","4"
"null","","","null","","","","html-keyboard-response","343","1300564","0.0-343.0","5f15e4bc797c740fff2c442c","6213d13355b5256cefd43a07","","","","","<p style=""color:darkgreen;font-size:24px;"">Correct :)</p>","",""
"2555","key","n","n","16.666999999999852","500","250","psychophysics","344","1303123","0.0-344.0","5f15e4bc797c740fff2c442c","6213d13355b5256cefd43a07","6","","","","","1","8"
"null","","","null","","","","html-keyboard-response","345","1303625","0.0-345.0","5f15e4bc797c740fff2c442c","6213d13355b5256cefd43a07","","","","","<p style=""color:darkgreen;font-size:24px;"">Correct :)</p>","",""
"2859","key","v","v","16.667000000000943","500","250","psychophysics","346","1306488","0.0-346.0","5f15e4bc797c740fff2c442c","6213d13355b5256cefd43a07","6","","","","","0","3"
"null","","","null","","","","html-keyboard-response","347","1306992","0.0-347.0","5f15e4bc797c740fff2c442c","6213d13355b5256cefd43a07","","","","","<p style=""color:darkgreen;font-size:24px;"">Correct :)</p>","",""
"3286","key","n","n","16.66937055837524","500","250","psychophysics","348","1310282","0.0-348.0","5f15e4bc797c740fff2c442c","6213d13355b5256cefd43a07","6","","","","","1","6"
"null","","","null","","","","html-keyboard-response","349","1310784","0.0-349.0","5f15e4bc797c740fff2c442c","6213d13355b5256cefd43a07","","","","","<p style=""color:darkgreen;font-size:24px;"">Correct :)</p>","",""
"3816","key","v","v","16.667000000000073","500","250","psychophysics","350","1314604","0.0-350.0","5f15e4bc797c740fff2c442c","6213d13355b5256cefd43a07","6","","","","","1","2"
"null","","","null","","","","html-keyboard-response","351","1315108","0.0-351.0","5f15e4bc797c740fff2c442c","6213d13355b5256cefd43a07","","","","","<p style=""color:darkgreen;font-size:24px;"">Correct :)</p>","",""
"2707","key","v","v","16.667000000000833","500","250","psychophysics","352","1317819","0.0-352.0","5f15e4bc797c740fff2c442c","6213d13355b5256cefd43a07","6","","","","","1","2"
"null","","","null","","","","html-keyboard-response","353","1318324","0.0-353.0","5f15e4bc797c740fff2c442c","6213d13355b5256cefd43a07","","","","","<p style=""color:darkgreen;font-size:24px;"">Correct :)</p>","",""
"2812","key","v","v","16.670071005916288","500","250","psychophysics","354","1321139","0.0-354.0","5f15e4bc797c740fff2c442c","6213d13355b5256cefd43a07","6","","","","","0","1"
"null","","","null","","","","html-keyboard-response","355","1321644","0.0-355.0","5f15e4bc797c740fff2c442c","6213d13355b5256cefd43a07","","","","","<p style=""color:darkgreen;font-size:24px;"">Correct :)</p>","",""
"2663","key","n","n","16.666999999999824","500","250","psychophysics","356","1324311","0.0-356.0","5f15e4bc797c740fff2c442c","6213d13355b5256cefd43a07","6","","","","","1","9"
"null","","","null","","","","html-keyboard-response","357","1324814","0.0-357.0","5f15e4bc797c740fff2c442c","6213d13355b5256cefd43a07","","","","","<p style=""color:darkgreen;font-size:24px;"">Correct :)</p>","",""
"3193","key","v","v","16.666999999999376","500","250","psychophysics","358","1328011","0.0-358.0","5f15e4bc797c740fff2c442c","6213d13355b5256cefd43a07","6","","","","","1","2"
"null","","","null","","","","html-keyboard-response","359","1328516","0.0-359.0","5f15e4bc797c740fff2c442c","6213d13355b5256cefd43a07","","","","","<p style=""color:darkgreen;font-size:24px;"">Correct :)</p>","",""
"2995","key","v","v","16.669854748602592","500","250","psychophysics","360","1331515","0.0-360.0","5f15e4bc797c740fff2c442c","6213d13355b5256cefd43a07","6","","","","","1","1"
"null","","","null","","","","html-keyboard-response","361","1332018","0.0-361.0","5f15e4bc797c740fff2c442c","6213d13355b5256cefd43a07","","","","","<p style=""color:darkgreen;font-size:24px;"">Correct :)</p>","",""
"3091","key","n","n","16.666999999998843","500","250","psychophysics","362","1335113","0.0-362.0","5f15e4bc797c740fff2c442c","6213d13355b5256cefd43a07","6","","","","","0","2"
"null","","","null","","","","html-keyboard-response","363","1335618","0.0-363.0","5f15e4bc797c740fff2c442c","6213d13355b5256cefd43a07","","","","","<p style=""color:darkgreen;font-size:24px;"">Correct :)</p>","",""
"3117","key","v","v","16.66949732620319","500","250","psychophysics","364","1338739","0.0-364.0","5f15e4bc797c740fff2c442c","6213d13355b5256cefd43a07","6","","","","","0","9"
"null","","","null","","","","html-keyboard-response","365","1339240","0.0-365.0","5f15e4bc797c740fff2c442c","6213d13355b5256cefd43a07","","","","","<p style=""color:darkgreen;font-size:24px;"">Correct :)</p>","",""
"2668","key","n","n","16.666999999999824","500","250","psychophysics","366","1341912","0.0-366.0","5f15e4bc797c740fff2c442c","6213d13355b5256cefd43a07","6","","","","","1","6"
"null","","","null","","","","html-keyboard-response","367","1342415","0.0-367.0","5f15e4bc797c740fff2c442c","6213d13355b5256cefd43a07","","","","","<p style=""color:darkgreen;font-size:24px;"">Correct :)</p>","",""
"2925","key","n","n","16.66699999999996","500","250","psychophysics","368","1345345","0.0-368.0","5f15e4bc797c740fff2c442c","6213d13355b5256cefd43a07","6","","","","","0","6"
"null","","","null","","","","html-keyboard-response","369","1345847","0.0-369.0","5f15e4bc797c740fff2c442c","6213d13355b5256cefd43a07","","","","","<p style=""color:darkgreen;font-size:24px;"">Correct :)</p>","",""
"2741","key","n","n","16.666999999999604","500","250","psychophysics","370","1348592","0.0-370.0","5f15e4bc797c740fff2c442c","6213d13355b5256cefd43a07","6","","","","","1","6"
"null","","","null","","","","html-keyboard-response","371","1349095","0.0-371.0","5f15e4bc797c740fff2c442c","6213d13355b5256cefd43a07","","","","","<p style=""color:darkgreen;font-size:24px;"">Correct :)</p>","",""
"3086","key","v","v","16.66989729729783","500","250","psychophysics","372","1352186","0.0-372.0","5f15e4bc797c740fff2c442c","6213d13355b5256cefd43a07","6","","","","","0","9"
"null","","","null","","","","html-keyboard-response","373","1352691","0.0-373.0","5f15e4bc797c740fff2c442c","6213d13355b5256cefd43a07","","","","","<p style=""color:darkgreen;font-size:24px;"">Correct :)</p>","",""
"3102","key","v","v","16.66699999999956","500","250","psychophysics","374","1355797","0.0-374.0","5f15e4bc797c740fff2c442c","6213d13355b5256cefd43a07","6","","","","","1","3"
"null","","","null","","","","html-keyboard-response","375","1356301","0.0-375.0","5f15e4bc797c740fff2c442c","6213d13355b5256cefd43a07","","","","","<p style=""color:darkgreen;font-size:24px;"">Correct :)</p>","",""
"3260","key","v","v","16.669364102564465","500","250","psychophysics","376","1359566","0.0-376.0","5f15e4bc797c740fff2c442c","6213d13355b5256cefd43a07","6","","","","","0","7"
"null","","","null","","","","html-keyboard-response","377","1360067","0.0-377.0","5f15e4bc797c740fff2c442c","6213d13355b5256cefd43a07","","","","","<p style=""color:darkgreen;font-size:24px;"">Correct :)</p>","",""
"3124","key","v","v","16.66700000000097","500","250","psychophysics","378","1363195","0.0-378.0","5f15e4bc797c740fff2c442c","6213d13355b5256cefd43a07","6","","","","","1","4"
"null","","","null","","","","html-keyboard-response","379","1363697","0.0-379.0","5f15e4bc797c740fff2c442c","6213d13355b5256cefd43a07","","","","","<p style=""color:darkgreen;font-size:24px;"">Correct :)</p>","",""
"2859","key","n","n","16.66699999999959","500","250","psychophysics","380","1366560","0.0-380.0","5f15e4bc797c740fff2c442c","6213d13355b5256cefd43a07","6","","","","","1","9"
"null","","","null","","","","html-keyboard-response","381","1367064","0.0-381.0","5f15e4bc797c740fff2c442c","6213d13355b5256cefd43a07","","","","","<p style=""color:darkgreen;font-size:24px;"">Correct :)</p>","",""
"2594","key","v","v","16.670282051282136","500","250","psychophysics","382","1369661","0.0-382.0","5f15e4bc797c740fff2c442c","6213d13355b5256cefd43a07","6","","","","","1","4"
"null","","","null","","","","html-keyboard-response","383","1370166","0.0-383.0","5f15e4bc797c740fff2c442c","6213d13355b5256cefd43a07","","","","","<p style=""color:darkgreen;font-size:24px;"">Correct :)</p>","",""
"3160","key","n","n","16.666999999999902","500","250","psychophysics","384","1373330","0.0-384.0","5f15e4bc797c740fff2c442c","6213d13355b5256cefd43a07","6","","","","","1","9"
"null","","","null","","","","html-keyboard-response","385","1373833","0.0-385.0","5f15e4bc797c740fff2c442c","6213d13355b5256cefd43a07","","","","","<p style=""color:darkgreen;font-size:24px;"">Correct :)</p>","",""
"2914","key","n","n","16.666999999999202","500","250","psychophysics","386","1376750","0.0-386.0","5f15e4bc797c740fff2c442c","6213d13355b5256cefd43a07","6","","","","","0","6"
"null","","","null","","","","html-keyboard-response","387","1377252","0.0-387.0","5f15e4bc797c740fff2c442c","6213d13355b5256cefd43a07","","","","","<p style=""color:darkgreen;font-size:24px;"">Correct :)</p>","",""
"3092","key","v","v","16.669564516129604","500","250","psychophysics","388","1380348","0.0-388.0","5f15e4bc797c740fff2c442c","6213d13355b5256cefd43a07","6","","","","","1","2"
"null","","","null","","","","html-keyboard-response","389","1380851","0.0-389.0","5f15e4bc797c740fff2c442c","6213d13355b5256cefd43a07","","","","","<p style=""color:darkgreen;font-size:24px;"">Correct :)</p>","",""
"3338","key","n","n","16.667000000000193","500","250","psychophysics","390","1384195","0.0-390.0","5f15e4bc797c740fff2c442c","6213d13355b5256cefd43a07","6","","","","","1","6"
"null","","","null","","","","html-keyboard-response","391","1384700","0.0-391.0","5f15e4bc797c740fff2c442c","6213d13355b5256cefd43a07","","","","","<p style=""color:darkgreen;font-size:24px;"">Correct :)</p>","",""
"3164","key","n","n","16.666999999999902","500","250","psychophysics","392","1387868","0.0-392.0","5f15e4bc797c740fff2c442c","6213d13355b5256cefd43a07","6","","","","","1","8"
"null","","","null","","","","html-keyboard-response","393","1388370","0.0-393.0","5f15e4bc797c740fff2c442c","6213d13355b5256cefd43a07","","","","","<p style=""color:darkgreen;font-size:24px;"">Correct :)</p>","",""
"3149","key","n","n","16.669670212766196","500","250","psychophysics","394","1391523","0.0-394.0","5f15e4bc797c740fff2c442c","6213d13355b5256cefd43a07","6","","","","","1","9"
"null","","","null","","","","html-keyboard-response","395","1392028","0.0-395.0","5f15e4bc797c740fff2c442c","6213d13355b5256cefd43a07","","","","","<p style=""color:darkgreen;font-size:24px;"">Correct :)</p>","",""
"17180","","","n","","","","html-keyboard-response","396","1409209","0.0-396.0","5f15e4bc797c740fff2c442c","6213d13355b5256cefd43a07","","","","","<p> Last set of trials.  Here, the tasks are going to switch once again.  We are going to do 50 of these.  And then you are done with the experiment.  </p>  <br><br>  Ready? (press v or n)","",""
"2638","key","v","v","16.673278481012822","500","250","psychophysics","397","1411852","0.0-397.0","5f15e4bc797c740fff2c442c","6213d13355b5256cefd43a07","7","","","","","0","1"
"null","","","null","","","","html-keyboard-response","398","1412356","0.0-398.0","5f15e4bc797c740fff2c442c","6213d13355b5256cefd43a07","","","","","<p style=""color:darkgreen;font-size:24px;"">Correct :)</p>","",""
"2904","key","n","n","16.666999999999202","500","250","psychophysics","399","1415264","0.0-399.0","5f15e4bc797c740fff2c442c","6213d13355b5256cefd43a07","7","","","","","0","6"
"null","","","null","","","","html-keyboard-response","400","1415766","0.0-400.0","5f15e4bc797c740fff2c442c","6213d13355b5256cefd43a07","","","","","<p style=""color:darkgreen;font-size:24px;"">Correct :)</p>","",""
"2927","key","v","v","16.66699999999996","500","250","psychophysics","401","1418696","0.0-401.0","5f15e4bc797c740fff2c442c","6213d13355b5256cefd43a07","7","","","","","0","3"
"null","","","null","","","","html-keyboard-response","402","1419200","0.0-402.0","5f15e4bc797c740fff2c442c","6213d13355b5256cefd43a07","","","","","<p style=""color:darkgreen;font-size:24px;"">Correct :)</p>","",""
"2950","key","n","n","16.669175141243695","500","250","psychophysics","403","1422153","0.0-403.0","5f15e4bc797c740fff2c442c","6213d13355b5256cefd43a07","7","","","","","0","2"
"null","","","null","","","","html-keyboard-response","404","1422655","0.0-404.0","5f15e4bc797c740fff2c442c","6213d13355b5256cefd43a07","","","","","<p style=""color:darkgreen;font-size:24px;"">Correct :)</p>","",""
"3072","key","v","v","16.6670000000001","500","250","psychophysics","405","1425731","0.0-405.0","5f15e4bc797c740fff2c442c","6213d13355b5256cefd43a07","7","","","","","1","4"
"null","","","null","","","","html-keyboard-response","406","1426236","0.0-406.0","5f15e4bc797c740fff2c442c","6213d13355b5256cefd43a07","","","","","<p style=""color:darkgreen;font-size:24px;"">Correct :)</p>","",""
"3042","key","v","v","16.667000000001202","500","250","psychophysics","407","1429282","0.0-407.0","5f15e4bc797c740fff2c442c","6213d13355b5256cefd43a07","7","","","","","1","4"
"null","","","null","","","","html-keyboard-response","408","1429785","0.0-408.0","5f15e4bc797c740fff2c442c","6213d13355b5256cefd43a07","","","","","<p style=""color:darkgreen;font-size:24px;"">Correct :)</p>","",""
"3199","key","v","v","16.6700416666669","500","250","psychophysics","409","1432987","0.0-409.0","5f15e4bc797c740fff2c442c","6213d13355b5256cefd43a07","7","","","","","1","1"
"null","","","null","","","","html-keyboard-response","410","1433490","0.0-410.0","5f15e4bc797c740fff2c442c","6213d13355b5256cefd43a07","","","","","<p style=""color:darkgreen;font-size:24px;"">Correct :)</p>","",""
"2672","key","n","n","16.667000000000648","500","250","psychophysics","411","1436167","0.0-411.0","5f15e4bc797c740fff2c442c","6213d13355b5256cefd43a07","7","","","","","1","6"
"null","","","null","","","","html-keyboard-response","412","1436668","0.0-412.0","5f15e4bc797c740fff2c442c","6213d13355b5256cefd43a07","","","","","<p style=""color:darkgreen;font-size:24px;"">Correct :)</p>","",""
"2984","key","n","n","16.669452513966128","500","250","psychophysics","413","1439656","0.0-413.0","5f15e4bc797c740fff2c442c","6213d13355b5256cefd43a07","7","","","","","0","2"
"null","","","null","","","","html-keyboard-response","414","1440158","0.0-414.0","5f15e4bc797c740fff2c442c","6213d13355b5256cefd43a07","","","","","<p style=""color:darkgreen;font-size:24px;"">Correct :)</p>","",""
"3171","key","v","v","16.667000000000595","500","250","psychophysics","415","1443334","0.0-415.0","5f15e4bc797c740fff2c442c","6213d13355b5256cefd43a07","7","","","","","1","2"
"null","","","null","","","","html-keyboard-response","416","1443837","0.0-416.0","5f15e4bc797c740fff2c442c","6213d13355b5256cefd43a07","","","","","<p style=""color:darkgreen;font-size:24px;"">Correct :)</p>","",""
"3144","key","v","v","16.667000000000435","500","250","psychophysics","417","1446985","0.0-417.0","5f15e4bc797c740fff2c442c","6213d13355b5256cefd43a07","7","","","","","1","4"
"null","","","null","","","","html-keyboard-response","418","1447489","0.0-418.0","5f15e4bc797c740fff2c442c","6213d13355b5256cefd43a07","","","","","<p style=""color:darkgreen;font-size:24px;"">Correct :)</p>","",""
"3275","key","n","n","16.66978680203092","500","250","psychophysics","419","1450767","0.0-419.0","5f15e4bc797c740fff2c442c","6213d13355b5256cefd43a07","7","","","","","1","6"
"null","","","null","","","","html-keyboard-response","420","1451271","0.0-420.0","5f15e4bc797c740fff2c442c","6213d13355b5256cefd43a07","","","","","<p style=""color:darkgreen;font-size:24px;"">Correct :)</p>","",""
"3005","key","n","n","16.666999999999017","500","250","psychophysics","421","1454280","0.0-421.0","5f15e4bc797c740fff2c442c","6213d13355b5256cefd43a07","7","","","","","0","6"
"null","","","null","","","","html-keyboard-response","422","1454784","0.0-422.0","5f15e4bc797c740fff2c442c","6213d13355b5256cefd43a07","","","","","<p style=""color:darkgreen;font-size:24px;"">Correct :)</p>","",""
"2852","key","n","n","16.667000000000176","500","250","psychophysics","423","1457640","0.0-423.0","5f15e4bc797c740fff2c442c","6213d13355b5256cefd43a07","7","","","","","0","2"
"null","","","null","","","","html-keyboard-response","424","1458143","0.0-424.0","5f15e4bc797c740fff2c442c","6213d13355b5256cefd43a07","","","","","<p style=""color:darkgreen;font-size:24px;"">Correct :)</p>","",""
"3113","key","v","v","16.669652406416365","500","250","psychophysics","425","1461261","0.0-425.0","5f15e4bc797c740fff2c442c","6213d13355b5256cefd43a07","7","","","","","1","4"
"null","","","null","","","","html-keyboard-response","426","1461765","0.0-426.0","5f15e4bc797c740fff2c442c","6213d13355b5256cefd43a07","","","","","<p style=""color:darkgreen;font-size:24px;"">Correct :)</p>","",""
"2868","key","n","n","16.66699999999959","500","250","psychophysics","427","1464637","0.0-427.0","5f15e4bc797c740fff2c442c","6213d13355b5256cefd43a07","7","","","","","0","4"
"null","","","null","","","","html-keyboard-response","428","1465142","0.0-428.0","5f15e4bc797c740fff2c442c","6213d13355b5256cefd43a07","","","","","<p style=""color:darkgreen;font-size:24px;"">Correct :)</p>","",""
"2615","key","v","v","16.66700000000026","500","250","psychophysics","429","1467761","0.0-429.0","5f15e4bc797c740fff2c442c","6213d13355b5256cefd43a07","7","","","","","1","1"
"null","","","null","","","","html-keyboard-response","430","1468266","0.0-430.0","5f15e4bc797c740fff2c442c","6213d13355b5256cefd43a07","","","","","<p style=""color:darkgreen;font-size:24px;"">Correct :)</p>","",""
"2867","key","n","n","16.669732558140314","500","250","psychophysics","431","1471136","0.0-431.0","5f15e4bc797c740fff2c442c","6213d13355b5256cefd43a07","7","","","","","1","7"
"null","","","null","","","","html-keyboard-response","432","1471638","0.0-432.0","5f15e4bc797c740fff2c442c","6213d13355b5256cefd43a07","","","","","<p style=""color:darkgreen;font-size:24px;"">Correct :)</p>","",""
"2804","key","n","n","16.667000000000588","500","250","psychophysics","433","1474446","0.0-433.0","5f15e4bc797c740fff2c442c","6213d13355b5256cefd43a07","7","","","","","0","4"
"null","","","null","","","","html-keyboard-response","434","1474947","0.0-434.0","5f15e4bc797c740fff2c442c","6213d13355b5256cefd43a07","","","","","<p style=""color:darkgreen;font-size:24px;"">Correct :)</p>","",""
"3871","key","v","v","16.66700000000078","500","250","psychophysics","435","1478822","0.0-435.0","5f15e4bc797c740fff2c442c","6213d13355b5256cefd43a07","7","","","","","1","1"
"null","","","null","","","","html-keyboard-response","436","1479324","0.0-436.0","5f15e4bc797c740fff2c442c","6213d13355b5256cefd43a07","","","","","<p style=""color:darkgreen;font-size:24px;"">Correct :)</p>","",""
"3030","key","v","v","16.669824175823194","500","250","psychophysics","437","1482357","0.0-437.0","5f15e4bc797c740fff2c442c","6213d13355b5256cefd43a07","7","","","","","1","4"
"null","","","null","","","","html-keyboard-response","438","1482859","0.0-438.0","5f15e4bc797c740fff2c442c","6213d13355b5256cefd43a07","","","","","<p style=""color:darkgreen;font-size:24px;"">Correct :)</p>","",""
"2824","key","v","v","16.667000000000765","500","250","psychophysics","439","1485688","0.0-439.0","5f15e4bc797c740fff2c442c","6213d13355b5256cefd43a07","7","","","","","1","1"
"null","","","null","","","","html-keyboard-response","440","1486192","0.0-440.0","5f15e4bc797c740fff2c442c","6213d13355b5256cefd43a07","","","","","<p style=""color:darkgreen;font-size:24px;"">Correct :)</p>","",""
"3153","key","n","n","16.666999999999202","500","250","psychophysics","441","1489349","0.0-441.0","5f15e4bc797c740fff2c442c","6213d13355b5256cefd43a07","7","","","","","1","6"
"null","","","null","","","","html-keyboard-response","442","1489852","0.0-442.0","5f15e4bc797c740fff2c442c","6213d13355b5256cefd43a07","","","","","<p style=""color:darkgreen;font-size:24px;"">Correct :)</p>","",""
"3089","key","v","v","16.6696486486487","500","250","psychophysics","443","1492944","0.0-443.0","5f15e4bc797c740fff2c442c","6213d13355b5256cefd43a07","7","","","","","0","3"
"null","","","null","","","","html-keyboard-response","444","1493448","0.0-444.0","5f15e4bc797c740fff2c442c","6213d13355b5256cefd43a07","","","","","<p style=""color:darkgreen;font-size:24px;"">Correct :)</p>","",""
"2736","key","n","n","16.667000000000215","500","250","psychophysics","445","1496188","0.0-445.0","5f15e4bc797c740fff2c442c","6213d13355b5256cefd43a07","7","","","","","1","7"
"null","","","null","","","","html-keyboard-response","446","1496690","0.0-446.0","5f15e4bc797c740fff2c442c","6213d13355b5256cefd43a07","","","","","<p style=""color:darkgreen;font-size:24px;"">Correct :)</p>","",""
"3188","key","v","v","16.666999999999376","500","250","psychophysics","447","1499883","0.0-447.0","5f15e4bc797c740fff2c442c","6213d13355b5256cefd43a07","7","","","","","1","3"
"null","","","null","","","","html-keyboard-response","448","1500385","0.0-448.0","5f15e4bc797c740fff2c442c","6213d13355b5256cefd43a07","","","","","<p style=""color:darkgreen;font-size:24px;"">Correct :)</p>","",""
"2891","key","n","n","16.66996531791829","500","250","psychophysics","449","1503280","0.0-449.0","5f15e4bc797c740fff2c442c","6213d13355b5256cefd43a07","7","","","","","0","2"
"null","","","null","","","","html-keyboard-response","450","1503781","0.0-450.0","5f15e4bc797c740fff2c442c","6213d13355b5256cefd43a07","","","","","<p style=""color:darkgreen;font-size:24px;"">Correct :)</p>","",""
"3013","key","n","n","16.66700000000104","500","250","psychophysics","451","1506798","0.0-451.0","5f15e4bc797c740fff2c442c","6213d13355b5256cefd43a07","7","","","","","1","7"
"null","","","null","","","","html-keyboard-response","452","1507302","0.0-452.0","5f15e4bc797c740fff2c442c","6213d13355b5256cefd43a07","","","","","<p style=""color:darkgreen;font-size:24px;"">Correct :)</p>","",""
"3005","key","n","n","16.669599999999626","500","250","psychophysics","453","1510311","0.0-453.0","5f15e4bc797c740fff2c442c","6213d13355b5256cefd43a07","7","","","","","1","7"
"null","","","null","","","","html-keyboard-response","454","1510812","0.0-454.0","5f15e4bc797c740fff2c442c","6213d13355b5256cefd43a07","","","","","<p style=""color:darkgreen;font-size:24px;"">Correct :)</p>","",""
"3008","key","v","v","16.666999999999753","500","250","psychophysics","455","1513824","0.0-455.0","5f15e4bc797c740fff2c442c","6213d13355b5256cefd43a07","7","","","","","1","2"
"null","","","null","","","","html-keyboard-response","456","1514327","0.0-456.0","5f15e4bc797c740fff2c442c","6213d13355b5256cefd43a07","","","","","<p style=""color:darkgreen;font-size:24px;"">Correct :)</p>","",""
"2976","key","n","n","16.667000000000876","500","250","psychophysics","457","1517308","0.0-457.0","5f15e4bc797c740fff2c442c","6213d13355b5256cefd43a07","7","","","","","0","2"
"null","","","null","","","","html-keyboard-response","458","1517812","0.0-458.0","5f15e4bc797c740fff2c442c","6213d13355b5256cefd43a07","","","","","<p style=""color:darkgreen;font-size:24px;"">Correct :)</p>","",""
"2986","key","n","n","16.669832402234118","500","250","psychophysics","459","1520802","0.0-459.0","5f15e4bc797c740fff2c442c","6213d13355b5256cefd43a07","7","","","","","1","6"
"null","","","null","","","","html-keyboard-response","460","1521304","0.0-460.0","5f15e4bc797c740fff2c442c","6213d13355b5256cefd43a07","","","","","<p style=""color:darkgreen;font-size:24px;"">Correct :)</p>","",""
"3042","key","v","v","16.66700000000048","500","250","psychophysics","461","1524351","0.0-461.0","5f15e4bc797c740fff2c442c","6213d13355b5256cefd43a07","7","","","","","0","7"
"null","","","null","","","","html-keyboard-response","462","1524854","0.0-462.0","5f15e4bc797c740fff2c442c","6213d13355b5256cefd43a07","","","","","<p style=""color:darkgreen;font-size:24px;"">Correct :)</p>","",""
"3075","key","v","v","16.667000000000648","500","250","psychophysics","463","1527933","0.0-463.0","5f15e4bc797c740fff2c442c","6213d13355b5256cefd43a07","7","","","","","1","4"
"null","","","null","","","","html-keyboard-response","464","1528436","0.0-464.0","5f15e4bc797c740fff2c442c","6213d13355b5256cefd43a07","","","","","<p style=""color:darkgreen;font-size:24px;"">Correct :)</p>","",""
"2593","key","v","v","16.67016774193654","500","250","psychophysics","465","1531033","0.0-465.0","5f15e4bc797c740fff2c442c","6213d13355b5256cefd43a07","7","","","","","1","3"
"null","","","null","","","","html-keyboard-response","466","1531536","0.0-466.0","5f15e4bc797c740fff2c442c","6213d13355b5256cefd43a07","","","","","<p style=""color:darkgreen;font-size:24px;"">Correct :)</p>","",""
"3059","key","v","v","16.666999999999927","500","250","psychophysics","467","1534599","0.0-467.0","5f15e4bc797c740fff2c442c","6213d13355b5256cefd43a07","7","","","","","0","3"
"null","","","null","","","","html-keyboard-response","468","1535100","0.0-468.0","5f15e4bc797c740fff2c442c","6213d13355b5256cefd43a07","","","","","<p style=""color:darkgreen;font-size:24px;"">Correct :)</p>","",""
"2959","key","n","n","16.667000000000137","500","250","psychophysics","469","1538063","0.0-469.0","5f15e4bc797c740fff2c442c","6213d13355b5256cefd43a07","7","","","","","0","2"
"null","","","null","","","","html-keyboard-response","470","1538566","0.0-470.0","5f15e4bc797c740fff2c442c","6213d13355b5256cefd43a07","","","","","<p style=""color:darkgreen;font-size:24px;"">Correct :)</p>","",""
"3157","key","v","v","16.66908947368471","500","250","psychophysics","471","1541727","0.0-471.0","5f15e4bc797c740fff2c442c","6213d13355b5256cefd43a07","7","","","","","1","4"
"null","","","null","","","","html-keyboard-response","472","1542229","0.0-472.0","5f15e4bc797c740fff2c442c","6213d13355b5256cefd43a07","","","","","<p style=""color:darkgreen;font-size:24px;"">Correct :)</p>","",""
"3411","key","v","v","16.6670000000005","500","250","psychophysics","473","1545645","0.0-473.0","5f15e4bc797c740fff2c442c","6213d13355b5256cefd43a07","7","","","","","0","7"
"null","","","null","","","","html-keyboard-response","474","1546148","0.0-474.0","5f15e4bc797c740fff2c442c","6213d13355b5256cefd43a07","","","","","<p style=""color:darkgreen;font-size:24px;"">Correct :)</p>","",""
"3309","key","v","v","16.667000000000037","500","250","psychophysics","475","1549461","0.0-475.0","5f15e4bc797c740fff2c442c","6213d13355b5256cefd43a07","7","","","","","1","4"
"null","","","null","","","","html-keyboard-response","476","1549963","0.0-476.0","5f15e4bc797c740fff2c442c","6213d13355b5256cefd43a07","","","","","<p style=""color:darkgreen;font-size:24px;"">Correct :)</p>","",""
"3021","key","v","v","16.67012154696077","500","250","psychophysics","477","1552988","0.0-477.0","5f15e4bc797c740fff2c442c","6213d13355b5256cefd43a07","7","","","","","1","3"
"null","","","null","","","","html-keyboard-response","478","1553491","0.0-478.0","5f15e4bc797c740fff2c442c","6213d13355b5256cefd43a07","","","","","<p style=""color:darkgreen;font-size:24px;"">Correct :)</p>","",""
"2920","key","n","n","16.666999999999202","500","250","psychophysics","479","1556415","0.0-479.0","5f15e4bc797c740fff2c442c","6213d13355b5256cefd43a07","7","","","","","1","6"
"null","","","null","","","","html-keyboard-response","480","1556917","0.0-480.0","5f15e4bc797c740fff2c442c","6213d13355b5256cefd43a07","","","","","<p style=""color:darkgreen;font-size:24px;"">Correct :)</p>","",""
"3011","key","v","v","16.66700000000104","500","250","psychophysics","481","1559932","0.0-481.0","5f15e4bc797c740fff2c442c","6213d13355b5256cefd43a07","7","","","","","1","4"
"null","","","null","","","","html-keyboard-response","482","1560434","0.0-482.0","5f15e4bc797c740fff2c442c","6213d13355b5256cefd43a07","","","","","<p style=""color:darkgreen;font-size:24px;"">Correct :)</p>","",""
"3202","key","n","n","16.669812500000262","500","250","psychophysics","483","1563639","0.0-483.0","5f15e4bc797c740fff2c442c","6213d13355b5256cefd43a07","7","","","","","0","4"
"null","","","null","","","","html-keyboard-response","484","1564144","0.0-484.0","5f15e4bc797c740fff2c442c","6213d13355b5256cefd43a07","","","","","<p style=""color:darkgreen;font-size:24px;"">Correct :)</p>","",""
"2920","key","v","v","16.666999999999202","500","250","psychophysics","485","1567067","0.0-485.0","5f15e4bc797c740fff2c442c","6213d13355b5256cefd43a07","7","","","","","0","7"
"null","","","null","","","","html-keyboard-response","486","1567570","0.0-486.0","5f15e4bc797c740fff2c442c","6213d13355b5256cefd43a07","","","","","<p style=""color:darkgreen;font-size:24px;"">Correct :)</p>","",""
"3045","key","v","v","16.669338797814532","500","250","psychophysics","487","1570620","0.0-487.0","5f15e4bc797c740fff2c442c","6213d13355b5256cefd43a07","7","","","","","1","1"
"null","","","null","","","","html-keyboard-response","488","1571123","0.0-488.0","5f15e4bc797c740fff2c442c","6213d13355b5256cefd43a07","","","","","<p style=""color:darkgreen;font-size:24px;"">Correct :)</p>","",""
"2675","key","v","v","16.666999999999824","500","250","psychophysics","489","1573802","0.0-489.0","5f15e4bc797c740fff2c442c","6213d13355b5256cefd43a07","7","","","","","0","1"
"null","","","null","","","","html-keyboard-response","490","1574305","0.0-490.0","5f15e4bc797c740fff2c442c","6213d13355b5256cefd43a07","","","","","<p style=""color:darkgreen;font-size:24px;"">Correct :)</p>","",""
"2959","key","v","v","16.667000000000137","500","250","psychophysics","491","1577268","0.0-491.0","5f15e4bc797c740fff2c442c","6213d13355b5256cefd43a07","7","","","","","0","7"
"null","","","null","","","","html-keyboard-response","492","1577770","0.0-492.0","5f15e4bc797c740fff2c442c","6213d13355b5256cefd43a07","","","","","<p style=""color:darkgreen;font-size:24px;"">Correct :)</p>","",""
"3066","key","v","v","16.669440217392072","500","250","psychophysics","493","1580840","0.0-493.0","5f15e4bc797c740fff2c442c","6213d13355b5256cefd43a07","7","","","","","1","4"
"null","","","null","","","","html-keyboard-response","494","1581344","0.0-494.0","5f15e4bc797c740fff2c442c","6213d13355b5256cefd43a07","","","","","<p style=""color:darkgreen;font-size:24px;"">Correct :)</p>","",""
"2621","key","v","v","16.66700000000026","500","250","psychophysics","495","1583969","0.0-495.0","5f15e4bc797c740fff2c442c","6213d13355b5256cefd43a07","7","","","","","1","3"
"null","","","null","","","","html-keyboard-response","496","1584473","0.0-496.0","5f15e4bc797c740fff2c442c","6213d13355b5256cefd43a07","","","","","<p style=""color:darkgreen;font-size:24px;"">Correct :)</p>","",""
