"rt","response_type","key_press","response","avg_frame_time","center_x","center_y","trial_type","trial_index","time_elapsed","internal_node_id","pid","sid","phase","guide","targ","resp","stimulus","is5","stim"
"10489","key"," "," ","17.543114649681527","500","250","psychophysics","0","11045","0.0-0.0","60189713dcf864178f74a1ce","6213caf1631f28dc6f5b658d","","","","","","",""
"2312","key"," "," ","16.668676258992804","500","250","psychophysics","1","13371","0.0-1.0","60189713dcf864178f74a1ce","6213caf1631f28dc6f5b658d","","","","","","",""
"11132","key"," "," ","17.262852484472052","500","250","psychophysics","2","24508","0.0-2.0","60189713dcf864178f74a1ce","6213caf1631f28dc6f5b658d","","","","","","",""
"1109","key"," "," ","16.665348484848437","500","250","psychophysics","3","25629","0.0-3.0","60189713dcf864178f74a1ce","6213caf1631f28dc6f5b658d","","","","","","",""
"2310","key"," "," ","16.666187050359703","500","250","psychophysics","4","27950","0.0-4.0","60189713dcf864178f74a1ce","6213caf1631f28dc6f5b658d","","","","","","",""
"6699","key"," "," ","16.66734413965088","500","250","psychophysics","5","34654","0.0-5.0","60189713dcf864178f74a1ce","6213caf1631f28dc6f5b658d","","","","","","",""
"4950","key"," "," ","16.666452702702717","500","250","psychophysics","6","39608","0.0-6.0","60189713dcf864178f74a1ce","6213caf1631f28dc6f5b658d","","","","","","",""
"5010","key"," "," ","16.77892281879194","500","250","psychophysics","7","44623","0.0-7.0","60189713dcf864178f74a1ce","6213caf1631f28dc6f5b658d","","","","","","",""
"7960","key"," "," ","16.667081761006298","500","250","psychophysics","8","52588","0.0-8.0","60189713dcf864178f74a1ce","6213caf1631f28dc6f5b658d","0","0","49","47","","",""
"2397","key"," "," ","16.667531468531482","500","250","psychophysics","9","54991","0.0-9.0","60189713dcf864178f74a1ce","6213caf1631f28dc6f5b658d","","","","","","",""
"701","key"," "," ","17.50257500000007","500","250","psychophysics","10","55706","0.0-10.0","60189713dcf864178f74a1ce","6213caf1631f28dc6f5b658d","","","","","","",""
"3137","key"," "," ","16.66675000000001","500","250","psychophysics","11","58850","0.0-11.0","60189713dcf864178f74a1ce","6213caf1631f28dc6f5b658d","","","","","","",""
"5352","key"," "," ","16.666912500000013","500","250","psychophysics","12","64208","0.0-12.0","60189713dcf864178f74a1ce","6213caf1631f28dc6f5b658d","","","","","","",""
"1895","key"," "," ","16.66757894736848","500","250","psychophysics","13","66116","0.0-13.0","60189713dcf864178f74a1ce","6213caf1631f28dc6f5b658d","","","","","","",""
"8191","key"," "," ","16.666573469387753","500","250","psychophysics","14","74313","0.0-14.0","60189713dcf864178f74a1ce","6213caf1631f28dc6f5b658d","","","","","","",""
"1845","key"," "," ","16.66689189189184","500","250","psychophysics","15","76166","0.0-15.0","60189713dcf864178f74a1ce","6213caf1631f28dc6f5b658d","","","","","","",""
"1345","key"," "," ","16.667974999999934","500","250","psychophysics","16","77516","0.0-16.0","60189713dcf864178f74a1ce","6213caf1631f28dc6f5b658d","","","","","","",""
"7871","key"," "," ","16.667146496815278","500","250","psychophysics","17","85392","0.0-17.0","60189713dcf864178f74a1ce","6213caf1631f28dc6f5b658d","1","0","59","65","","",""
"7115","key"," "," ","16.667330985915516","500","250","psychophysics","18","92513","0.0-18.0","60189713dcf864178f74a1ce","6213caf1631f28dc6f5b658d","1","5","33","39","","",""
"4738","key"," "," ","16.66669366197183","500","250","psychophysics","19","97262","0.0-19.0","60189713dcf864178f74a1ce","6213caf1631f28dc6f5b658d","1","0","43","49","","",""
"8975","key"," "," ","16.667074211502783","500","250","psychophysics","20","106249","0.0-20.0","60189713dcf864178f74a1ce","6213caf1631f28dc6f5b658d","1","5","46","53","","",""
"5957","key"," "," ","16.66720505617976","500","250","psychophysics","21","112210","0.0-21.0","60189713dcf864178f74a1ce","6213caf1631f28dc6f5b658d","1","0","51","58","","",""
"6122","key"," "," ","16.667495912806555","500","250","psychophysics","22","118340","0.0-22.0","60189713dcf864178f74a1ce","6213caf1631f28dc6f5b658d","1","5","31","38","","",""
"5725","key"," "," ","16.666903790087485","500","250","psychophysics","23","124070","0.0-23.0","60189713dcf864178f74a1ce","6213caf1631f28dc6f5b658d","1","0","30","36","","",""
"5737","key"," "," ","16.667128279883375","500","250","psychophysics","24","129813","0.0-24.0","60189713dcf864178f74a1ce","6213caf1631f28dc6f5b658d","1","5","32","37","","",""
"4127","key"," "," ","16.667149193548305","500","250","psychophysics","25","133950","0.0-25.0","60189713dcf864178f74a1ce","6213caf1631f28dc6f5b658d","1","0","31","40","","",""
"3965","key"," "," ","16.666995780590753","500","250","psychophysics","26","137921","0.0-26.0","60189713dcf864178f74a1ce","6213caf1631f28dc6f5b658d","1","5","34","40","","",""
"3643","key"," "," ","16.666655963302777","500","250","psychophysics","27","141568","0.0-27.0","60189713dcf864178f74a1ce","6213caf1631f28dc6f5b658d","1","0","49","50","","",""
"3982","key"," "," ","16.667176470588238","500","250","psychophysics","28","145556","0.0-28.0","60189713dcf864178f74a1ce","6213caf1631f28dc6f5b658d","1","5","43","46","","",""
"3436","key"," "," ","16.6670970873786","500","250","psychophysics","29","149014","0.0-29.0","60189713dcf864178f74a1ce","6213caf1631f28dc6f5b658d","1","0","37","52","","",""
"4184","key"," "," ","16.667820717131445","500","250","psychophysics","30","153208","0.0-30.0","60189713dcf864178f74a1ce","6213caf1631f28dc6f5b658d","1","5","39","50","","",""
"4959","key"," "," ","16.66772727272728","500","250","psychophysics","31","158171","0.0-31.0","60189713dcf864178f74a1ce","6213caf1631f28dc6f5b658d","1","0","47","55","","",""
"3070","key"," "," ","16.666153005464576","500","250","psychophysics","32","161247","0.0-32.0","60189713dcf864178f74a1ce","6213caf1631f28dc6f5b658d","1","5","43","49","","",""
"3042","key"," "," ","16.666945355191295","500","250","psychophysics","33","164301","0.0-33.0","60189713dcf864178f74a1ce","6213caf1631f28dc6f5b658d","1","0","20","29","","",""
"3002","key"," "," ","16.66592737430168","500","250","psychophysics","34","167310","0.0-34.0","60189713dcf864178f74a1ce","6213caf1631f28dc6f5b658d","1","5","55","60","","",""
"2782","key"," "," ","16.667066265060285","500","250","psychophysics","35","170098","0.0-35.0","60189713dcf864178f74a1ce","6213caf1631f28dc6f5b658d","1","0","32","34","","",""
"3448","key"," "," ","16.6673913043478","500","250","psychophysics","36","173555","0.0-36.0","60189713dcf864178f74a1ce","6213caf1631f28dc6f5b658d","1","5","47","52","","",""
"2324","key"," "," ","16.66716428571422","500","250","psychophysics","37","175900","0.0-37.0","60189713dcf864178f74a1ce","6213caf1631f28dc6f5b658d","","","","","","",""
"3830","key"," "," ","16.666886462882115","500","250","psychophysics","38","179736","0.0-38.0","60189713dcf864178f74a1ce","6213caf1631f28dc6f5b658d","","","","","","",""
"1650","key"," "," ","16.665275510203934","500","250","psychophysics","39","181390","0.0-39.0","60189713dcf864178f74a1ce","6213caf1631f28dc6f5b658d","","","","","","",""
"3593","key"," "," ","16.667572093023214","500","250","psychophysics","40","184989","0.0-40.0","60189713dcf864178f74a1ce","6213caf1631f28dc6f5b658d","2","0","39","53","","",""
"1549","key"," "," ","16.66538043478257","500","250","psychophysics","41","186544","0.0-41.0","60189713dcf864178f74a1ce","6213caf1631f28dc6f5b658d","","","","","","",""
"3375","key"," "," ","16.66765517241372","500","250","psychophysics","42","189948","0.0-42.0","60189713dcf864178f74a1ce","6213caf1631f28dc6f5b658d","2","0","30","34","","",""
"1259","key"," "," ","16.666197368421354","500","250","psychophysics","43","191218","0.0-43.0","60189713dcf864178f74a1ce","6213caf1631f28dc6f5b658d","","","","","","",""
"4561","key"," "," ","16.666692307692248","500","250","psychophysics","44","195785","0.0-44.0","60189713dcf864178f74a1ce","6213caf1631f28dc6f5b658d","2","0","30","37","","",""
"923","key"," "," ","16.66255555555593","500","250","psychophysics","45","196714","0.0-45.0","60189713dcf864178f74a1ce","6213caf1631f28dc6f5b658d","","","","","","",""
"3875","key"," "," ","16.6673922413794","500","250","psychophysics","46","200598","0.0-46.0","60189713dcf864178f74a1ce","6213caf1631f28dc6f5b658d","2","0","57","64","","",""
"1165","key"," "," ","16.666957142857218","500","250","psychophysics","47","201772","0.0-47.0","60189713dcf864178f74a1ce","6213caf1631f28dc6f5b658d","","","","","","",""
"4154","key"," "," ","16.667500000000032","500","250","psychophysics","48","205932","0.0-48.0","60189713dcf864178f74a1ce","6213caf1631f28dc6f5b658d","2","0","27","30","","",""
"944","key"," "," ","16.66887719298227","500","250","psychophysics","49","206887","0.0-49.0","60189713dcf864178f74a1ce","6213caf1631f28dc6f5b658d","","","","","","",""
"3389","key"," "," ","16.666287128712852","500","250","psychophysics","50","210281","0.0-50.0","60189713dcf864178f74a1ce","6213caf1631f28dc6f5b658d","2","0","54","53","","",""
"1046","key"," "," ","16.66828571428593","500","250","psychophysics","51","211335","0.0-51.0","60189713dcf864178f74a1ce","6213caf1631f28dc6f5b658d","","","","","","",""
"3349","key"," "," ","16.665209999999934","500","250","psychophysics","52","214689","0.0-52.0","60189713dcf864178f74a1ce","6213caf1631f28dc6f5b658d","2","0","54","59","","",""
"1083","key"," "," ","16.66803125000024","500","250","psychophysics","53","215776","0.0-53.0","60189713dcf864178f74a1ce","6213caf1631f28dc6f5b658d","","","","","","",""
"2023","key"," "," ","16.66739344262288","500","250","psychophysics","54","217818","0.0-54.0","60189713dcf864178f74a1ce","6213caf1631f28dc6f5b658d","2","0","26","28","","",""
"1013","key"," "," ","16.666700000000127","500","250","psychophysics","55","218837","0.0-55.0","60189713dcf864178f74a1ce","6213caf1631f28dc6f5b658d","","","","","","",""
"2158","key"," "," ","16.66874218750013","500","250","psychophysics","56","221000","0.0-56.0","60189713dcf864178f74a1ce","6213caf1631f28dc6f5b658d","2","0","23","24","","",""
"762","key"," "," ","16.666638297872232","500","250","psychophysics","57","221786","0.0-57.0","60189713dcf864178f74a1ce","6213caf1631f28dc6f5b658d","","","","","","",""
"3527","key"," "," ","16.667222748815234","500","250","psychophysics","58","225319","0.0-58.0","60189713dcf864178f74a1ce","6213caf1631f28dc6f5b658d","2","0","41","50","","",""
"956","key"," "," ","16.671526315789507","500","250","psychophysics","59","226293","0.0-59.0","60189713dcf864178f74a1ce","6213caf1631f28dc6f5b658d","","","","","","",""
"2615","key"," "," ","16.667621794871827","500","250","psychophysics","60","228916","0.0-60.0","60189713dcf864178f74a1ce","6213caf1631f28dc6f5b658d","2","0","29","37","","",""
"1019","key"," "," ","16.66673770491759","500","250","psychophysics","61","229943","0.0-61.0","60189713dcf864178f74a1ce","6213caf1631f28dc6f5b658d","","","","","","",""
"2804","key"," "," ","16.667404761904827","500","250","psychophysics","62","232752","0.0-62.0","60189713dcf864178f74a1ce","6213caf1631f28dc6f5b658d","2","0","60","55","","",""
"1060","key"," "," ","16.667015873015828","500","250","psychophysics","63","233818","0.0-63.0","60189713dcf864178f74a1ce","6213caf1631f28dc6f5b658d","","","","","","",""
"3354","key"," "," ","16.666944999999977","500","250","psychophysics","64","237179","0.0-64.0","60189713dcf864178f74a1ce","6213caf1631f28dc6f5b658d","2","0","51","49","","",""
"862","key"," "," ","16.66719607843141","500","250","psychophysics","65","238045","0.0-65.0","60189713dcf864178f74a1ce","6213caf1631f28dc6f5b658d","","","","","","",""
"1907","key"," "," ","16.66695614035084","500","250","psychophysics","66","239962","0.0-66.0","60189713dcf864178f74a1ce","6213caf1631f28dc6f5b658d","2","0","28","26","","",""
"1055","key"," "," ","16.669857142857158","500","250","psychophysics","67","241021","0.0-67.0","60189713dcf864178f74a1ce","6213caf1631f28dc6f5b658d","","","","","","",""
"2808","key"," "," ","16.667702380952374","500","250","psychophysics","68","243836","0.0-68.0","60189713dcf864178f74a1ce","6213caf1631f28dc6f5b658d","2","0","31","29","","",""
"1577","key"," "," ","16.66767021276594","500","250","psychophysics","69","245418","0.0-69.0","60189713dcf864178f74a1ce","6213caf1631f28dc6f5b658d","","","","","","",""
"2295","key"," "," ","16.666576642335738","500","250","psychophysics","70","247718","0.0-70.0","60189713dcf864178f74a1ce","6213caf1631f28dc6f5b658d","","","","","","",""
"1743","key"," "," ","16.66483495145634","500","250","psychophysics","71","249467","0.0-71.0","60189713dcf864178f74a1ce","6213caf1631f28dc6f5b658d","","","","","","",""
"2713","key"," "," ","16.66723926380356","500","250","psychophysics","72","252188","0.0-72.0","60189713dcf864178f74a1ce","6213caf1631f28dc6f5b658d","3","5","43","43","","",""
"2704","key"," "," ","16.665577639751525","500","250","psychophysics","73","254896","0.0-73.0","60189713dcf864178f74a1ce","6213caf1631f28dc6f5b658d","3","0","57","55","","",""
"2049","key"," "," ","16.66925203252032","500","250","psychophysics","74","256954","0.0-74.0","60189713dcf864178f74a1ce","6213caf1631f28dc6f5b658d","3","5","46","42","","",""
"2506","key"," "," ","16.778506756756837","500","250","psychophysics","75","259466","0.0-75.0","60189713dcf864178f74a1ce","6213caf1631f28dc6f5b658d","3","0","27","28","","",""
"2676","key"," "," ","16.667362500000127","500","250","psychophysics","76","262150","0.0-76.0","60189713dcf864178f74a1ce","6213caf1631f28dc6f5b658d","3","5","54","37","","",""
"2174","key"," "," ","16.666938461538386","500","250","psychophysics","77","264333","0.0-77.0","60189713dcf864178f74a1ce","6213caf1631f28dc6f5b658d","3","0","36","35","","",""
"4980","key"," "," ","16.66706688963204","500","250","psychophysics","78","269322","0.0-78.0","60189713dcf864178f74a1ce","6213caf1631f28dc6f5b658d","3","5","54","43","","",""
"2356","key"," "," ","16.66699285714255","500","250","psychophysics","79","271683","0.0-79.0","60189713dcf864178f74a1ce","6213caf1631f28dc6f5b658d","3","0","45","48","","",""
"1912","key"," "," ","16.666904347825735","500","250","psychophysics","80","273604","0.0-80.0","60189713dcf864178f74a1ce","6213caf1631f28dc6f5b658d","3","5","43","35","","",""
"2283","key"," "," ","16.667102941176648","500","250","psychophysics","81","275892","0.0-81.0","60189713dcf864178f74a1ce","6213caf1631f28dc6f5b658d","3","0","34","39","","",""
"2084","key"," "," ","16.66810399999982","500","250","psychophysics","82","277998","0.0-82.0","60189713dcf864178f74a1ce","6213caf1631f28dc6f5b658d","3","5","53","44","","",""
"2434","key"," "," ","16.66689726027376","500","250","psychophysics","83","280439","0.0-83.0","60189713dcf864178f74a1ce","6213caf1631f28dc6f5b658d","3","0","55","49","","",""
"1675","key"," "," ","16.667330000000074","500","250","psychophysics","84","282119","0.0-84.0","60189713dcf864178f74a1ce","6213caf1631f28dc6f5b658d","3","5","41","28","","",""
"2236","key"," "," ","16.66732330827079","500","250","psychophysics","85","284360","0.0-85.0","60189713dcf864178f74a1ce","6213caf1631f28dc6f5b658d","3","0","38","45","","",""
"3471","key"," "," ","16.66777884615378","500","250","psychophysics","86","287836","0.0-86.0","60189713dcf864178f74a1ce","6213caf1631f28dc6f5b658d","3","5","51","46","","",""
"1866","key"," "," ","16.665153153153106","500","250","psychophysics","87","289707","0.0-87.0","60189713dcf864178f74a1ce","6213caf1631f28dc6f5b658d","3","0","35","35","","",""
"3321","key"," "," ","16.667828282828484","500","250","psychophysics","88","293033","0.0-88.0","60189713dcf864178f74a1ce","6213caf1631f28dc6f5b658d","3","5","28","26","","",""
"3383","key"," "," ","16.667384236453163","500","250","psychophysics","89","296425","0.0-89.0","60189713dcf864178f74a1ce","6213caf1631f28dc6f5b658d","3","0","56","61","","",""
"1774","key"," "," ","16.667113207547512","500","250","psychophysics","90","298204","0.0-90.0","60189713dcf864178f74a1ce","6213caf1631f28dc6f5b658d","3","5","44","37","","",""
"2812","key"," "," ","16.665976190475963","500","250","psychophysics","91","301021","0.0-91.0","60189713dcf864178f74a1ce","6213caf1631f28dc6f5b658d","3","0","57","55","","",""
"1535","key"," "," ","16.668241758241734","500","250","psychophysics","92","302560","0.0-92.0","60189713dcf864178f74a1ce","6213caf1631f28dc6f5b658d","","","","","","",""
"24216","","","v","","","","html-keyboard-response","93","326778","0.0-93.0","60189713dcf864178f74a1ce","6213caf1631f28dc6f5b658d","","","","","<p> In this part of the experiment, we are going present digits 1, 2, 3, 4, 6, 7, 8, and 9.  Notice that 5 is missing.  Your job is to say whether the presented digit is less than or greater than 5.  For example, 3 is less than 5 and 7 is greater than 5.  If the digit is less than 5, press the v key; if it is greater than 5, press the n key. We are going to do 200 of these in total, but only 50 righ now. They go real fast.</p>  <br><br>  Ready? (press v or n)","",""
"3110","key","v","v","16.6779197860963","500","250","psychophysics","94","329901","0.0-94.0","60189713dcf864178f74a1ce","6213caf1631f28dc6f5b658d","4","","","","","1","1"
"null","","","null","","","","html-keyboard-response","95","330412","0.0-95.0","60189713dcf864178f74a1ce","6213caf1631f28dc6f5b658d","","","","","<p style=""color:darkgreen;font-size:24px;"">Correct :)</p>","",""
"3018","key","v","v","16.67253038674035","500","250","psychophysics","96","333436","0.0-96.0","60189713dcf864178f74a1ce","6213caf1631f28dc6f5b658d","4","","","","","1","4"
"null","","","null","","","","html-keyboard-response","97","333940","0.0-97.0","60189713dcf864178f74a1ce","6213caf1631f28dc6f5b658d","","","","","<p style=""color:darkgreen;font-size:24px;"">Correct :)</p>","",""
"2653","key","n","n","16.636037500000022","500","250","psychophysics","98","336599","0.0-98.0","60189713dcf864178f74a1ce","6213caf1631f28dc6f5b658d","4","","","","","1","6"
"null","","","null","","","","html-keyboard-response","99","337103","0.0-99.0","60189713dcf864178f74a1ce","6213caf1631f28dc6f5b658d","","","","","<p style=""color:darkgreen;font-size:24px;"">Correct :)</p>","",""
"2750","key","n","n","16.63961818181825","500","250","psychophysics","100","339858","0.0-100.0","60189713dcf864178f74a1ce","6213caf1631f28dc6f5b658d","4","","","","","1","6"
"null","","","null","","","","html-keyboard-response","101","340362","0.0-101.0","60189713dcf864178f74a1ce","6213caf1631f28dc6f5b658d","","","","","<p style=""color:darkgreen;font-size:24px;"">Correct :)</p>","",""
"2623","key","n","n","16.6194556962026","500","250","psychophysics","102","342994","0.0-102.0","60189713dcf864178f74a1ce","6213caf1631f28dc6f5b658d","4","","","","","1","7"
"null","","","null","","","","html-keyboard-response","103","343505","0.0-103.0","60189713dcf864178f74a1ce","6213caf1631f28dc6f5b658d","","","","","<p style=""color:darkgreen;font-size:24px;"">Correct :)</p>","",""
"2552","key","v","v","16.66856209150313","500","250","psychophysics","104","346063","0.0-104.0","60189713dcf864178f74a1ce","6213caf1631f28dc6f5b658d","4","","","","","1","3"
"null","","","null","","","","html-keyboard-response","105","346574","0.0-105.0","60189713dcf864178f74a1ce","6213caf1631f28dc6f5b658d","","","","","<p style=""color:darkgreen;font-size:24px;"">Correct :)</p>","",""
"2562","key","v","v","16.637084415584635","500","250","psychophysics","106","349141","0.0-106.0","60189713dcf864178f74a1ce","6213caf1631f28dc6f5b658d","4","","","","","1","1"
"null","","","null","","","","html-keyboard-response","107","349652","0.0-107.0","60189713dcf864178f74a1ce","6213caf1631f28dc6f5b658d","","","","","<p style=""color:darkgreen;font-size:24px;"">Correct :)</p>","",""
"2855","key","v","v","16.634087209302464","500","250","psychophysics","108","352513","0.0-108.0","60189713dcf864178f74a1ce","6213caf1631f28dc6f5b658d","4","","","","","1","3"
"null","","","null","","","","html-keyboard-response","109","353025","0.0-109.0","60189713dcf864178f74a1ce","6213caf1631f28dc6f5b658d","","","","","<p style=""color:darkgreen;font-size:24px;"">Correct :)</p>","",""
"2780","key","v","v","16.66549397590367","500","250","psychophysics","110","355809","0.0-110.0","60189713dcf864178f74a1ce","6213caf1631f28dc6f5b658d","4","","","","","1","4"
"null","","","null","","","","html-keyboard-response","111","356314","0.0-111.0","60189713dcf864178f74a1ce","6213caf1631f28dc6f5b658d","","","","","<p style=""color:darkgreen;font-size:24px;"">Correct :)</p>","",""
"2476","key","n","n","16.703906040268343","500","250","psychophysics","112","358795","0.0-112.0","60189713dcf864178f74a1ce","6213caf1631f28dc6f5b658d","4","","","","","1","8"
"null","","","null","","","","html-keyboard-response","113","359305","0.0-113.0","60189713dcf864178f74a1ce","6213caf1631f28dc6f5b658d","","","","","<p style=""color:darkgreen;font-size:24px;"">Correct :)</p>","",""
"2380","key","v","v","16.60172027972009","500","250","psychophysics","114","361690","0.0-114.0","60189713dcf864178f74a1ce","6213caf1631f28dc6f5b658d","4","","","","","1","1"
"null","","","null","","","","html-keyboard-response","115","362197","0.0-115.0","60189713dcf864178f74a1ce","6213caf1631f28dc6f5b658d","","","","","<p style=""color:darkgreen;font-size:24px;"">Correct :)</p>","",""
"2553","key","n","n","16.618350649350806","500","250","psychophysics","116","364756","0.0-116.0","60189713dcf864178f74a1ce","6213caf1631f28dc6f5b658d","4","","","","","1","9"
"null","","","null","","","","html-keyboard-response","117","365266","0.0-117.0","60189713dcf864178f74a1ce","6213caf1631f28dc6f5b658d","","","","","<p style=""color:darkgreen;font-size:24px;"">Correct :)</p>","",""
"2558","key","n","n","16.677883116883308","500","250","psychophysics","118","367830","0.0-118.0","60189713dcf864178f74a1ce","6213caf1631f28dc6f5b658d","4","","","","","1","7"
"null","","","null","","","","html-keyboard-response","119","368342","0.0-119.0","60189713dcf864178f74a1ce","6213caf1631f28dc6f5b658d","","","","","<p style=""color:darkgreen;font-size:24px;"">Correct :)</p>","",""
"2447","key","v","v","16.61904761904762","500","250","psychophysics","120","370796","0.0-120.0","60189713dcf864178f74a1ce","6213caf1631f28dc6f5b658d","4","","","","","1","1"
"null","","","null","","","","html-keyboard-response","121","371300","0.0-121.0","60189713dcf864178f74a1ce","6213caf1631f28dc6f5b658d","","","","","<p style=""color:darkgreen;font-size:24px;"">Correct :)</p>","",""
"2438","key","v","v","16.607829931972955","500","250","psychophysics","122","373744","0.0-122.0","60189713dcf864178f74a1ce","6213caf1631f28dc6f5b658d","4","","","","","1","1"
"null","","","null","","","","html-keyboard-response","123","374249","0.0-123.0","60189713dcf864178f74a1ce","6213caf1631f28dc6f5b658d","","","","","<p style=""color:darkgreen;font-size:24px;"">Correct :)</p>","",""
"2396","key","v","v","16.656847222221888","500","250","psychophysics","124","376650","0.0-124.0","60189713dcf864178f74a1ce","6213caf1631f28dc6f5b658d","4","","","","","1","1"
"null","","","null","","","","html-keyboard-response","125","377163","0.0-125.0","60189713dcf864178f74a1ce","6213caf1631f28dc6f5b658d","","","","","<p style=""color:darkgreen;font-size:24px;"">Correct :)</p>","",""
"2411","key","v","v","16.64911034482748","500","250","psychophysics","126","379579","0.0-126.0","60189713dcf864178f74a1ce","6213caf1631f28dc6f5b658d","4","","","","","1","3"
"null","","","null","","","","html-keyboard-response","127","380083","0.0-127.0","60189713dcf864178f74a1ce","6213caf1631f28dc6f5b658d","","","","","<p style=""color:darkgreen;font-size:24px;"">Correct :)</p>","",""
"2372","key","v","v","16.693909090909035","500","250","psychophysics","128","382460","0.0-128.0","60189713dcf864178f74a1ce","6213caf1631f28dc6f5b658d","4","","","","","1","1"
"null","","","null","","","","html-keyboard-response","129","382966","0.0-129.0","60189713dcf864178f74a1ce","6213caf1631f28dc6f5b658d","","","","","<p style=""color:darkgreen;font-size:24px;"">Correct :)</p>","",""
"2584","key","n","n","16.667509677419588","500","250","psychophysics","130","385556","0.0-130.0","60189713dcf864178f74a1ce","6213caf1631f28dc6f5b658d","4","","","","","1","7"
"null","","","null","","","","html-keyboard-response","131","386065","0.0-131.0","60189713dcf864178f74a1ce","6213caf1631f28dc6f5b658d","","","","","<p style=""color:darkgreen;font-size:24px;"">Correct :)</p>","",""
"2408","key","v","v","16.65857931034487","500","250","psychophysics","132","388479","0.0-132.0","60189713dcf864178f74a1ce","6213caf1631f28dc6f5b658d","4","","","","","1","2"
"null","","","null","","","","html-keyboard-response","133","388987","0.0-133.0","60189713dcf864178f74a1ce","6213caf1631f28dc6f5b658d","","","","","<p style=""color:darkgreen;font-size:24px;"">Correct :)</p>","",""
"2455","key","n","n","16.698195945945837","500","250","psychophysics","134","391447","0.0-134.0","60189713dcf864178f74a1ce","6213caf1631f28dc6f5b658d","4","","","","","1","8"
"null","","","null","","","","html-keyboard-response","135","391958","0.0-135.0","60189713dcf864178f74a1ce","6213caf1631f28dc6f5b658d","","","","","<p style=""color:darkgreen;font-size:24px;"">Correct :)</p>","",""
"2437","key","v","v","16.70310884353754","500","250","psychophysics","136","394401","0.0-136.0","60189713dcf864178f74a1ce","6213caf1631f28dc6f5b658d","4","","","","","1","1"
"null","","","null","","","","html-keyboard-response","137","394909","0.0-137.0","60189713dcf864178f74a1ce","6213caf1631f28dc6f5b658d","","","","","<p style=""color:darkgreen;font-size:24px;"">Correct :)</p>","",""
"2516","key","n","n","16.6708410596024","500","250","psychophysics","138","397430","0.0-138.0","60189713dcf864178f74a1ce","6213caf1631f28dc6f5b658d","4","","","","","1","6"
"null","","","null","","","","html-keyboard-response","139","397942","0.0-139.0","60189713dcf864178f74a1ce","6213caf1631f28dc6f5b658d","","","","","<p style=""color:darkgreen;font-size:24px;"">Correct :)</p>","",""
"2463","key","n","n","16.65907382550329","500","250","psychophysics","140","400425","0.0-140.0","60189713dcf864178f74a1ce","6213caf1631f28dc6f5b658d","4","","","","","1","6"
"null","","","null","","","","html-keyboard-response","141","400929","0.0-141.0","60189713dcf864178f74a1ce","6213caf1631f28dc6f5b658d","","","","","<p style=""color:darkgreen;font-size:24px;"">Correct :)</p>","",""
"2622","key","n","n","16.69579113924049","500","250","psychophysics","142","403557","0.0-142.0","60189713dcf864178f74a1ce","6213caf1631f28dc6f5b658d","4","","","","","1","6"
"null","","","null","","","","html-keyboard-response","143","404066","0.0-143.0","60189713dcf864178f74a1ce","6213caf1631f28dc6f5b658d","","","","","<p style=""color:darkgreen;font-size:24px;"">Correct :)</p>","",""
"2476","key","n","n","16.686181208053558","500","250","psychophysics","144","406548","0.0-144.0","60189713dcf864178f74a1ce","6213caf1631f28dc6f5b658d","4","","","","","1","9"
"null","","","null","","","","html-keyboard-response","145","407054","0.0-145.0","60189713dcf864178f74a1ce","6213caf1631f28dc6f5b658d","","","","","<p style=""color:darkgreen;font-size:24px;"">Correct :)</p>","",""
"2531","key","n","n","16.699526315789722","500","250","psychophysics","146","409590","0.0-146.0","60189713dcf864178f74a1ce","6213caf1631f28dc6f5b658d","4","","","","","1","8"
"null","","","null","","","","html-keyboard-response","147","410100","0.0-147.0","60189713dcf864178f74a1ce","6213caf1631f28dc6f5b658d","","","","","<p style=""color:darkgreen;font-size:24px;"">Correct :)</p>","",""
"2537","key","v","v","16.637078431372537","500","250","psychophysics","148","412642","0.0-148.0","60189713dcf864178f74a1ce","6213caf1631f28dc6f5b658d","4","","","","","1","1"
"null","","","null","","","","html-keyboard-response","149","413144","0.0-149.0","60189713dcf864178f74a1ce","6213caf1631f28dc6f5b658d","","","","","<p style=""color:darkgreen;font-size:24px;"">Correct :)</p>","",""
"2407","key","n","n","16.626882758620596","500","250","psychophysics","150","415556","0.0-150.0","60189713dcf864178f74a1ce","6213caf1631f28dc6f5b658d","4","","","","","1","8"
"null","","","null","","","","html-keyboard-response","151","416063","0.0-151.0","60189713dcf864178f74a1ce","6213caf1631f28dc6f5b658d","","","","","<p style=""color:darkgreen;font-size:24px;"">Correct :)</p>","",""
"2414","key","v","v","16.687737931034142","500","250","psychophysics","152","418483","0.0-152.0","60189713dcf864178f74a1ce","6213caf1631f28dc6f5b658d","4","","","","","1","2"
"null","","","null","","","","html-keyboard-response","153","418987","0.0-153.0","60189713dcf864178f74a1ce","6213caf1631f28dc6f5b658d","","","","","<p style=""color:darkgreen;font-size:24px;"">Correct :)</p>","",""
"2438","key","n","n","16.597863945578222","500","250","psychophysics","154","421431","0.0-154.0","60189713dcf864178f74a1ce","6213caf1631f28dc6f5b658d","4","","","","","1","9"
"null","","","null","","","","html-keyboard-response","155","421936","0.0-155.0","60189713dcf864178f74a1ce","6213caf1631f28dc6f5b658d","","","","","<p style=""color:darkgreen;font-size:24px;"">Correct :)</p>","",""
"2440","key","n","n","16.661775510204198","500","250","psychophysics","156","424383","0.0-156.0","60189713dcf864178f74a1ce","6213caf1631f28dc6f5b658d","4","","","","","1","9"
"null","","","null","","","","html-keyboard-response","157","424893","0.0-157.0","60189713dcf864178f74a1ce","6213caf1631f28dc6f5b658d","","","","","<p style=""color:darkgreen;font-size:24px;"">Correct :)</p>","",""
"2610","key","v","v","16.668756410256417","500","250","psychophysics","158","427506","0.0-158.0","60189713dcf864178f74a1ce","6213caf1631f28dc6f5b658d","4","","","","","1","3"
"null","","","null","","","","html-keyboard-response","159","428018","0.0-159.0","60189713dcf864178f74a1ce","6213caf1631f28dc6f5b658d","","","","","<p style=""color:darkgreen;font-size:24px;"">Correct :)</p>","",""
"2432","key","v","v","16.610527397260192","500","250","psychophysics","160","430455","0.0-160.0","60189713dcf864178f74a1ce","6213caf1631f28dc6f5b658d","4","","","","","1","2"
"null","","","null","","","","html-keyboard-response","161","430965","0.0-161.0","60189713dcf864178f74a1ce","6213caf1631f28dc6f5b658d","","","","","<p style=""color:darkgreen;font-size:24px;"">Correct :)</p>","",""
"2624","key","v","v","16.646588607595074","500","250","psychophysics","162","433595","0.0-162.0","60189713dcf864178f74a1ce","6213caf1631f28dc6f5b658d","4","","","","","1","3"
"null","","","null","","","","html-keyboard-response","163","434097","0.0-163.0","60189713dcf864178f74a1ce","6213caf1631f28dc6f5b658d","","","","","<p style=""color:darkgreen;font-size:24px;"">Correct :)</p>","",""
"3338","key","n","n","16.661437810945383","500","250","psychophysics","164","437440","0.0-164.0","60189713dcf864178f74a1ce","6213caf1631f28dc6f5b658d","4","","","","","1","9"
"null","","","null","","","","html-keyboard-response","165","437942","0.0-165.0","60189713dcf864178f74a1ce","6213caf1631f28dc6f5b658d","","","","","<p style=""color:darkgreen;font-size:24px;"">Correct :)</p>","",""
"2526","key","v","v","16.634427631579072","500","250","psychophysics","166","440474","0.0-166.0","60189713dcf864178f74a1ce","6213caf1631f28dc6f5b658d","4","","","","","1","3"
"null","","","null","","","","html-keyboard-response","167","440985","0.0-167.0","60189713dcf864178f74a1ce","6213caf1631f28dc6f5b658d","","","","","<p style=""color:darkgreen;font-size:24px;"">Correct :)</p>","",""
"2514","key","n","n","16.61760264900644","500","250","psychophysics","168","443505","0.0-168.0","60189713dcf864178f74a1ce","6213caf1631f28dc6f5b658d","4","","","","","1","8"
"null","","","null","","","","html-keyboard-response","169","444012","0.0-169.0","60189713dcf864178f74a1ce","6213caf1631f28dc6f5b658d","","","","","<p style=""color:darkgreen;font-size:24px;"">Correct :)</p>","",""
"2484","key","n","n","16.628134228187946","500","250","psychophysics","170","446501","0.0-170.0","60189713dcf864178f74a1ce","6213caf1631f28dc6f5b658d","4","","","","","1","9"
"null","","","null","","","","html-keyboard-response","171","447021","0.0-171.0","60189713dcf864178f74a1ce","6213caf1631f28dc6f5b658d","","","","","<p style=""color:darkgreen;font-size:24px;"">Correct :)</p>","",""
"2504","key","v","v","16.61419867549673","500","250","psychophysics","172","449531","0.0-172.0","60189713dcf864178f74a1ce","6213caf1631f28dc6f5b658d","4","","","","","1","2"
"null","","","null","","","","html-keyboard-response","173","450034","0.0-173.0","60189713dcf864178f74a1ce","6213caf1631f28dc6f5b658d","","","","","<p style=""color:darkgreen;font-size:24px;"">Correct :)</p>","",""
"2484","key","v","v","16.642353333332963","500","250","psychophysics","174","452542","0.0-174.0","60189713dcf864178f74a1ce","6213caf1631f28dc6f5b658d","4","","","","","1","1"
"null","","","null","","","","html-keyboard-response","175","453044","0.0-175.0","60189713dcf864178f74a1ce","6213caf1631f28dc6f5b658d","","","","","<p style=""color:darkgreen;font-size:24px;"">Correct :)</p>","",""
"2705","key","n","n","16.62594478527631","500","250","psychophysics","176","455754","0.0-176.0","60189713dcf864178f74a1ce","6213caf1631f28dc6f5b658d","4","","","","","1","6"
"null","","","null","","","","html-keyboard-response","177","456261","0.0-177.0","60189713dcf864178f74a1ce","6213caf1631f28dc6f5b658d","","","","","<p style=""color:darkgreen;font-size:24px;"">Correct :)</p>","",""
"2502","key","n","n","16.671760000000166","500","250","psychophysics","178","458769","0.0-178.0","60189713dcf864178f74a1ce","6213caf1631f28dc6f5b658d","4","","","","","1","9"
"null","","","null","","","","html-keyboard-response","179","459280","0.0-179.0","60189713dcf864178f74a1ce","6213caf1631f28dc6f5b658d","","","","","<p style=""color:darkgreen;font-size:24px;"">Correct :)</p>","",""
"2510","key","n","n","16.68559602649022","500","250","psychophysics","180","461796","0.0-180.0","60189713dcf864178f74a1ce","6213caf1631f28dc6f5b658d","4","","","","","1","7"
"null","","","null","","","","html-keyboard-response","181","462313","0.0-181.0","60189713dcf864178f74a1ce","6213caf1631f28dc6f5b658d","","","","","<p style=""color:darkgreen;font-size:24px;"">Correct :)</p>","",""
"2498","key","v","v","16.661826666666894","500","250","psychophysics","182","464817","0.0-182.0","60189713dcf864178f74a1ce","6213caf1631f28dc6f5b658d","4","","","","","1","1"
"null","","","null","","","","html-keyboard-response","183","465335","0.0-183.0","60189713dcf864178f74a1ce","6213caf1631f28dc6f5b658d","","","","","<p style=""color:darkgreen;font-size:24px;"">Correct :)</p>","",""
"2438","key","n","n","16.70237414965994","500","250","psychophysics","184","467778","0.0-184.0","60189713dcf864178f74a1ce","6213caf1631f28dc6f5b658d","4","","","","","1","8"
"null","","","null","","","","html-keyboard-response","185","468283","0.0-185.0","60189713dcf864178f74a1ce","6213caf1631f28dc6f5b658d","","","","","<p style=""color:darkgreen;font-size:24px;"">Correct :)</p>","",""
"2587","key","v","v","16.648294871795","500","250","psychophysics","186","470875","0.0-186.0","60189713dcf864178f74a1ce","6213caf1631f28dc6f5b658d","4","","","","","1","3"
"null","","","null","","","","html-keyboard-response","187","471384","0.0-187.0","60189713dcf864178f74a1ce","6213caf1631f28dc6f5b658d","","","","","<p style=""color:darkgreen;font-size:24px;"">Correct :)</p>","",""
"2555","key","n","n","16.679103896103864","500","250","psychophysics","188","473945","0.0-188.0","60189713dcf864178f74a1ce","6213caf1631f28dc6f5b658d","4","","","","","1","8"
"null","","","null","","","","html-keyboard-response","189","474463","0.0-189.0","60189713dcf864178f74a1ce","6213caf1631f28dc6f5b658d","","","","","<p style=""color:darkgreen;font-size:24px;"">Correct :)</p>","",""
"2414","key","n","n","16.63463013698642","500","250","psychophysics","190","476902","0.0-190.0","60189713dcf864178f74a1ce","6213caf1631f28dc6f5b658d","4","","","","","1","8"
"null","","","null","","","","html-keyboard-response","191","477412","0.0-191.0","60189713dcf864178f74a1ce","6213caf1631f28dc6f5b658d","","","","","<p style=""color:darkgreen;font-size:24px;"">Correct :)</p>","",""
"2557","key","n","n","16.661636363636315","500","250","psychophysics","192","479975","0.0-192.0","60189713dcf864178f74a1ce","6213caf1631f28dc6f5b658d","4","","","","","1","9"
"null","","","null","","","","html-keyboard-response","193","480480","0.0-193.0","60189713dcf864178f74a1ce","6213caf1631f28dc6f5b658d","","","","","<p style=""color:darkgreen;font-size:24px;"">Correct :)</p>","",""
"14064","","","v","","","","html-keyboard-response","194","494546","0.0-194.0","60189713dcf864178f74a1ce","6213caf1631f28dc6f5b658d","","","","","<p> Ok, now we are going present the same digits as before.  Your job is to say whether the digit is even or odd  If the digit is odd, press to v key; if it is even, press the n key. We are going to do 50 of these.  </p>  <br><br>  Ready? (press v or n)","",""
"3046","key","v","v","16.662344262295257","500","250","psychophysics","195","497599","0.0-195.0","60189713dcf864178f74a1ce","6213caf1631f28dc6f5b658d","5","","","","","0","3"
"null","","","null","","","","html-keyboard-response","196","498113","0.0-196.0","60189713dcf864178f74a1ce","6213caf1631f28dc6f5b658d","","","","","<p style=""color:darkgreen;font-size:24px;"">Correct :)</p>","",""
"2424","key","n","n","16.668541095890536","500","250","psychophysics","197","500542","0.0-197.0","60189713dcf864178f74a1ce","6213caf1631f28dc6f5b658d","5","","","","","0","6"
"null","","","null","","","","html-keyboard-response","198","501053","0.0-198.0","60189713dcf864178f74a1ce","6213caf1631f28dc6f5b658d","","","","","<p style=""color:darkgreen;font-size:24px;"">Correct :)</p>","",""
"2418","key","n","n","16.598696551724046","500","250","psychophysics","199","503477","0.0-199.0","60189713dcf864178f74a1ce","6213caf1631f28dc6f5b658d","5","","","","","0","4"
"null","","","null","","","","html-keyboard-response","200","503992","0.0-200.0","60189713dcf864178f74a1ce","6213caf1631f28dc6f5b658d","","","","","<p style=""color:darkgreen;font-size:24px;"">Correct :)</p>","",""
"2470","key","v","v","16.705040268456226","500","250","psychophysics","201","506468","0.0-201.0","60189713dcf864178f74a1ce","6213caf1631f28dc6f5b658d","5","","","","","0","1"
"null","","","null","","","","html-keyboard-response","202","506970","0.0-202.0","60189713dcf864178f74a1ce","6213caf1631f28dc6f5b658d","","","","","<p style=""color:darkgreen;font-size:24px;"">Correct :)</p>","",""
"2655","key","n","n","16.633868750000328","500","250","psychophysics","203","509631","0.0-203.0","60189713dcf864178f74a1ce","6213caf1631f28dc6f5b658d","5","","","","","0","2"
"null","","","null","","","","html-keyboard-response","204","510142","0.0-204.0","60189713dcf864178f74a1ce","6213caf1631f28dc6f5b658d","","","","","<p style=""color:darkgreen;font-size:24px;"">Correct :)</p>","",""
"2682","key","n","n","16.696864197530818","500","250","psychophysics","205","512849","0.0-205.0","60189713dcf864178f74a1ce","6213caf1631f28dc6f5b658d","5","","","","","0","9"
"null","","","null","","","","html-keyboard-response","206","513358","0.0-206.0","60189713dcf864178f74a1ce","6213caf1631f28dc6f5b658d","","","","","<p style=""color:red;font-size:24px;"">Error :(</p>","",""
"2626","key","n","n","16.69594936708874","500","250","psychophysics","207","515989","0.0-207.0","60189713dcf864178f74a1ce","6213caf1631f28dc6f5b658d","5","","","","","0","6"
"null","","","null","","","","html-keyboard-response","208","516493","0.0-208.0","60189713dcf864178f74a1ce","6213caf1631f28dc6f5b658d","","","","","<p style=""color:darkgreen;font-size:24px;"">Correct :)</p>","",""
"2609","key","n","n","16.646694267516033","500","250","psychophysics","209","519107","0.0-209.0","60189713dcf864178f74a1ce","6213caf1631f28dc6f5b658d","5","","","","","0","4"
"null","","","null","","","","html-keyboard-response","210","519615","0.0-210.0","60189713dcf864178f74a1ce","6213caf1631f28dc6f5b658d","","","","","<p style=""color:darkgreen;font-size:24px;"">Correct :)</p>","",""
"2460","key","n","n","16.698348993288615","500","250","psychophysics","211","522100","0.0-211.0","60189713dcf864178f74a1ce","6213caf1631f28dc6f5b658d","5","","","","","0","6"
"null","","","null","","","","html-keyboard-response","212","522605","0.0-212.0","60189713dcf864178f74a1ce","6213caf1631f28dc6f5b658d","","","","","<p style=""color:darkgreen;font-size:24px;"">Correct :)</p>","",""
"2681","key","v","v","16.70256521739102","500","250","psychophysics","213","525291","0.0-213.0","60189713dcf864178f74a1ce","6213caf1631f28dc6f5b658d","5","","","","","0","9"
"null","","","null","","","","html-keyboard-response","214","525794","0.0-214.0","60189713dcf864178f74a1ce","6213caf1631f28dc6f5b658d","","","","","<p style=""color:darkgreen;font-size:24px;"">Correct :)</p>","",""
"2728","key","v","v","16.700347560975366","500","250","psychophysics","215","528529","0.0-215.0","60189713dcf864178f74a1ce","6213caf1631f28dc6f5b658d","5","","","","","0","9"
"null","","","null","","","","html-keyboard-response","216","529046","0.0-216.0","60189713dcf864178f74a1ce","6213caf1631f28dc6f5b658d","","","","","<p style=""color:darkgreen;font-size:24px;"">Correct :)</p>","",""
"2589","key","n","n","16.670846153846167","500","250","psychophysics","217","531640","0.0-217.0","60189713dcf864178f74a1ce","6213caf1631f28dc6f5b658d","5","","","","","0","4"
"null","","","null","","","","html-keyboard-response","218","532148","0.0-218.0","60189713dcf864178f74a1ce","6213caf1631f28dc6f5b658d","","","","","<p style=""color:darkgreen;font-size:24px;"">Correct :)</p>","",""
"2647","key","v","v","16.682465408804955","500","250","psychophysics","219","534801","0.0-219.0","60189713dcf864178f74a1ce","6213caf1631f28dc6f5b658d","5","","","","","0","1"
"null","","","null","","","","html-keyboard-response","220","535303","0.0-220.0","60189713dcf864178f74a1ce","6213caf1631f28dc6f5b658d","","","","","<p style=""color:darkgreen;font-size:24px;"">Correct :)</p>","",""
"3272","key","n","n","16.69045685279197","500","250","psychophysics","221","538594","0.0-221.0","60189713dcf864178f74a1ce","6213caf1631f28dc6f5b658d","5","","","","","0","8"
"null","","","null","","","","html-keyboard-response","222","539113","0.0-222.0","60189713dcf864178f74a1ce","6213caf1631f28dc6f5b658d","","","","","<p style=""color:darkgreen;font-size:24px;"">Correct :)</p>","",""
"2935","key","n","n","16.627244318181923","500","250","psychophysics","223","542053","0.0-223.0","60189713dcf864178f74a1ce","6213caf1631f28dc6f5b658d","5","","","","","0","2"
"null","","","null","","","","html-keyboard-response","224","542557","0.0-224.0","60189713dcf864178f74a1ce","6213caf1631f28dc6f5b658d","","","","","<p style=""color:darkgreen;font-size:24px;"">Correct :)</p>","",""
"2750","key","v","v","16.628012121211963","500","250","psychophysics","225","545311","0.0-225.0","60189713dcf864178f74a1ce","6213caf1631f28dc6f5b658d","5","","","","","0","1"
"null","","","null","","","","html-keyboard-response","226","545814","0.0-226.0","60189713dcf864178f74a1ce","6213caf1631f28dc6f5b658d","","","","","<p style=""color:darkgreen;font-size:24px;"">Correct :)</p>","",""
"2696","key","n","n","16.609802469135445","500","250","psychophysics","227","548517","0.0-227.0","60189713dcf864178f74a1ce","6213caf1631f28dc6f5b658d","5","","","","","0","6"
"null","","","null","","","","html-keyboard-response","228","549023","0.0-228.0","60189713dcf864178f74a1ce","6213caf1631f28dc6f5b658d","","","","","<p style=""color:darkgreen;font-size:24px;"">Correct :)</p>","",""
"2714","key","n","n","16.621398773006494","500","250","psychophysics","229","551743","0.0-229.0","60189713dcf864178f74a1ce","6213caf1631f28dc6f5b658d","5","","","","","0","8"
"null","","","null","","","","html-keyboard-response","230","552245","0.0-230.0","60189713dcf864178f74a1ce","6213caf1631f28dc6f5b658d","","","","","<p style=""color:darkgreen;font-size:24px;"">Correct :)</p>","",""
"3719","key","v","v","16.688991031390216","500","250","psychophysics","231","555969","0.0-231.0","60189713dcf864178f74a1ce","6213caf1631f28dc6f5b658d","5","","","","","0","1"
"null","","","null","","","","html-keyboard-response","232","556475","0.0-232.0","60189713dcf864178f74a1ce","6213caf1631f28dc6f5b658d","","","","","<p style=""color:darkgreen;font-size:24px;"">Correct :)</p>","",""
"2620","key","n","n","16.64436708860721","500","250","psychophysics","233","559101","0.0-233.0","60189713dcf864178f74a1ce","6213caf1631f28dc6f5b658d","5","","","","","0","4"
"null","","","null","","","","html-keyboard-response","234","559608","0.0-234.0","60189713dcf864178f74a1ce","6213caf1631f28dc6f5b658d","","","","","<p style=""color:darkgreen;font-size:24px;"">Correct :)</p>","",""
"2545","key","n","n","16.669071428571502","500","250","psychophysics","235","562172","0.0-235.0","60189713dcf864178f74a1ce","6213caf1631f28dc6f5b658d","5","","","","","0","2"
"null","","","null","","","","html-keyboard-response","236","562675","0.0-236.0","60189713dcf864178f74a1ce","6213caf1631f28dc6f5b658d","","","","","<p style=""color:darkgreen;font-size:24px;"">Correct :)</p>","",""
"2616","key","v","v","16.664923566878496","500","250","psychophysics","237","565297","0.0-237.0","60189713dcf864178f74a1ce","6213caf1631f28dc6f5b658d","5","","","","","0","9"
"null","","","null","","","","html-keyboard-response","238","565810","0.0-238.0","60189713dcf864178f74a1ce","6213caf1631f28dc6f5b658d","","","","","<p style=""color:darkgreen;font-size:24px;"">Correct :)</p>","",""
"2661","key","v","v","16.674099999999452","500","250","psychophysics","239","568476","0.0-239.0","60189713dcf864178f74a1ce","6213caf1631f28dc6f5b658d","5","","","","","0","9"
"null","","","null","","","","html-keyboard-response","240","568982","0.0-240.0","60189713dcf864178f74a1ce","6213caf1631f28dc6f5b658d","","","","","<p style=""color:darkgreen;font-size:24px;"">Correct :)</p>","",""
"2673","key","v","v","16.70258385093119","500","250","psychophysics","241","571661","0.0-241.0","60189713dcf864178f74a1ce","6213caf1631f28dc6f5b658d","5","","","","","0","7"
"null","","","null","","","","html-keyboard-response","242","572169","0.0-242.0","60189713dcf864178f74a1ce","6213caf1631f28dc6f5b658d","","","","","<p style=""color:darkgreen;font-size:24px;"">Correct :)</p>","",""
"2623","key","n","n","16.687898734177733","500","250","psychophysics","243","574797","0.0-243.0","60189713dcf864178f74a1ce","6213caf1631f28dc6f5b658d","5","","","","","0","6"
"null","","","null","","","","html-keyboard-response","244","575309","0.0-244.0","60189713dcf864178f74a1ce","6213caf1631f28dc6f5b658d","","","","","<p style=""color:darkgreen;font-size:24px;"">Correct :)</p>","",""
"2474","key","n","n","16.604308724832322","500","250","psychophysics","245","577790","0.0-245.0","60189713dcf864178f74a1ce","6213caf1631f28dc6f5b658d","5","","","","","0","4"
"null","","","null","","","","html-keyboard-response","246","578301","0.0-246.0","60189713dcf864178f74a1ce","6213caf1631f28dc6f5b658d","","","","","<p style=""color:darkgreen;font-size:24px;"">Correct :)</p>","",""
"2607","key","v","v","16.616127388534778","500","250","psychophysics","247","580914","0.0-247.0","60189713dcf864178f74a1ce","6213caf1631f28dc6f5b658d","5","","","","","0","9"
"null","","","null","","","","html-keyboard-response","248","581421","0.0-248.0","60189713dcf864178f74a1ce","6213caf1631f28dc6f5b658d","","","","","<p style=""color:darkgreen;font-size:24px;"">Correct :)</p>","",""
"2823","key","v","v","16.682605882353315","500","250","psychophysics","249","584249","0.0-249.0","60189713dcf864178f74a1ce","6213caf1631f28dc6f5b658d","5","","","","","0","7"
"null","","","null","","","","html-keyboard-response","250","584754","0.0-250.0","60189713dcf864178f74a1ce","6213caf1631f28dc6f5b658d","","","","","<p style=""color:darkgreen;font-size:24px;"">Correct :)</p>","",""
"2602","key","n","n","16.669570512820382","500","250","psychophysics","251","587361","0.0-251.0","60189713dcf864178f74a1ce","6213caf1631f28dc6f5b658d","5","","","","","0","2"
"null","","","null","","","","html-keyboard-response","252","587875","0.0-252.0","60189713dcf864178f74a1ce","6213caf1631f28dc6f5b658d","","","","","<p style=""color:darkgreen;font-size:24px;"">Correct :)</p>","",""
"2672","key","v","v","16.692937888198543","500","250","psychophysics","253","590554","0.0-253.0","60189713dcf864178f74a1ce","6213caf1631f28dc6f5b658d","5","","","","","0","7"
"null","","","null","","","","html-keyboard-response","254","591055","0.0-254.0","60189713dcf864178f74a1ce","6213caf1631f28dc6f5b658d","","","","","<p style=""color:darkgreen;font-size:24px;"">Correct :)</p>","",""
"2555","key","v","v","16.644103896103395","500","250","psychophysics","255","593616","0.0-255.0","60189713dcf864178f74a1ce","6213caf1631f28dc6f5b658d","5","","","","","0","7"
"null","","","null","","","","html-keyboard-response","256","594124","0.0-256.0","60189713dcf864178f74a1ce","6213caf1631f28dc6f5b658d","","","","","<p style=""color:darkgreen;font-size:24px;"">Correct :)</p>","",""
"2687","key","n","n","16.679851851852202","500","250","psychophysics","257","596818","0.0-257.0","60189713dcf864178f74a1ce","6213caf1631f28dc6f5b658d","5","","","","","0","2"
"null","","","null","","","","html-keyboard-response","258","597334","0.0-258.0","60189713dcf864178f74a1ce","6213caf1631f28dc6f5b658d","","","","","<p style=""color:darkgreen;font-size:24px;"">Correct :)</p>","",""
"2540","key","v","v","16.619862745098278","500","250","psychophysics","259","599879","0.0-259.0","60189713dcf864178f74a1ce","6213caf1631f28dc6f5b658d","5","","","","","0","7"
"null","","","null","","","","html-keyboard-response","260","600390","0.0-260.0","60189713dcf864178f74a1ce","6213caf1631f28dc6f5b658d","","","","","<p style=""color:darkgreen;font-size:24px;"">Correct :)</p>","",""
"2669","key","n","n","16.620074999999634","500","250","psychophysics","261","603064","0.0-261.0","60189713dcf864178f74a1ce","6213caf1631f28dc6f5b658d","5","","","","","0","2"
"null","","","null","","","","html-keyboard-response","262","603568","0.0-262.0","60189713dcf864178f74a1ce","6213caf1631f28dc6f5b658d","","","","","<p style=""color:darkgreen;font-size:24px;"">Correct :)</p>","",""
"2505","key","v","v","16.612437086092733","500","250","psychophysics","263","606079","0.0-263.0","60189713dcf864178f74a1ce","6213caf1631f28dc6f5b658d","5","","","","","0","1"
"null","","","null","","","","html-keyboard-response","264","606586","0.0-264.0","60189713dcf864178f74a1ce","6213caf1631f28dc6f5b658d","","","","","<p style=""color:darkgreen;font-size:24px;"">Correct :)</p>","",""
"2803","key","v","v","16.67711764705874","500","250","psychophysics","265","609414","0.0-265.0","60189713dcf864178f74a1ce","6213caf1631f28dc6f5b658d","5","","","","","0","9"
"null","","","null","","","","html-keyboard-response","266","609916","0.0-266.0","60189713dcf864178f74a1ce","6213caf1631f28dc6f5b658d","","","","","<p style=""color:darkgreen;font-size:24px;"">Correct :)</p>","",""
"2729","key","v","v","16.646158536585194","500","250","psychophysics","267","612650","0.0-267.0","60189713dcf864178f74a1ce","6213caf1631f28dc6f5b658d","5","","","","","0","3"
"null","","","null","","","","html-keyboard-response","268","613154","0.0-268.0","60189713dcf864178f74a1ce","6213caf1631f28dc6f5b658d","","","","","<p style=""color:darkgreen;font-size:24px;"">Correct :)</p>","",""
"2607","key","v","v","16.696745222929724","500","250","psychophysics","269","615767","0.0-269.0","60189713dcf864178f74a1ce","6213caf1631f28dc6f5b658d","5","","","","","0","1"
"null","","","null","","","","html-keyboard-response","270","616269","0.0-270.0","60189713dcf864178f74a1ce","6213caf1631f28dc6f5b658d","","","","","<p style=""color:darkgreen;font-size:24px;"">Correct :)</p>","",""
"2727","key","n","n","16.654701219511747","500","250","psychophysics","271","619001","0.0-271.0","60189713dcf864178f74a1ce","6213caf1631f28dc6f5b658d","5","","","","","0","4"
"null","","","null","","","","html-keyboard-response","272","619506","0.0-272.0","60189713dcf864178f74a1ce","6213caf1631f28dc6f5b658d","","","","","<p style=""color:darkgreen;font-size:24px;"">Correct :)</p>","",""
"2634","key","v","v","16.695253164556814","500","250","psychophysics","273","622145","0.0-273.0","60189713dcf864178f74a1ce","6213caf1631f28dc6f5b658d","5","","","","","0","3"
"null","","","null","","","","html-keyboard-response","274","622653","0.0-274.0","60189713dcf864178f74a1ce","6213caf1631f28dc6f5b658d","","","","","<p style=""color:darkgreen;font-size:24px;"">Correct :)</p>","",""
"2658","key","v","v","16.642850931677447","500","250","psychophysics","275","625335","0.0-275.0","60189713dcf864178f74a1ce","6213caf1631f28dc6f5b658d","5","","","","","0","7"
"null","","","null","","","","html-keyboard-response","276","625847","0.0-276.0","60189713dcf864178f74a1ce","6213caf1631f28dc6f5b658d","","","","","<p style=""color:darkgreen;font-size:24px;"">Correct :)</p>","",""
"2521","key","v","v","16.62895394736858","500","250","psychophysics","277","628374","0.0-277.0","60189713dcf864178f74a1ce","6213caf1631f28dc6f5b658d","5","","","","","0","9"
"null","","","null","","","","html-keyboard-response","278","628880","0.0-278.0","60189713dcf864178f74a1ce","6213caf1631f28dc6f5b658d","","","","","<p style=""color:darkgreen;font-size:24px;"">Correct :)</p>","",""
"2375","key","v","v","16.667587412588","500","250","psychophysics","279","631261","0.0-279.0","60189713dcf864178f74a1ce","6213caf1631f28dc6f5b658d","5","","","","","0","9"
"null","","","null","","","","html-keyboard-response","280","631769","0.0-280.0","60189713dcf864178f74a1ce","6213caf1631f28dc6f5b658d","","","","","<p style=""color:darkgreen;font-size:24px;"">Correct :)</p>","",""
"2514","key","v","v","16.69835099337749","500","250","psychophysics","281","634288","0.0-281.0","60189713dcf864178f74a1ce","6213caf1631f28dc6f5b658d","5","","","","","0","3"
"null","","","null","","","","html-keyboard-response","282","634798","0.0-282.0","60189713dcf864178f74a1ce","6213caf1631f28dc6f5b658d","","","","","<p style=""color:darkgreen;font-size:24px;"">Correct :)</p>","",""
"2600","key","v","v","16.64212179487162","500","250","psychophysics","283","637404","0.0-283.0","60189713dcf864178f74a1ce","6213caf1631f28dc6f5b658d","5","","","","","0","9"
"null","","","null","","","","html-keyboard-response","284","637914","0.0-284.0","60189713dcf864178f74a1ce","6213caf1631f28dc6f5b658d","","","","","<p style=""color:darkgreen;font-size:24px;"">Correct :)</p>","",""
"2471","key","v","v","16.66269127516726","500","250","psychophysics","285","640391","0.0-285.0","60189713dcf864178f74a1ce","6213caf1631f28dc6f5b658d","5","","","","","0","9"
"null","","","null","","","","html-keyboard-response","286","640895","0.0-286.0","60189713dcf864178f74a1ce","6213caf1631f28dc6f5b658d","","","","","<p style=""color:darkgreen;font-size:24px;"">Correct :)</p>","",""
"2607","key","n","n","16.652670886075786","500","250","psychophysics","287","643523","0.0-287.0","60189713dcf864178f74a1ce","6213caf1631f28dc6f5b658d","5","","","","","0","4"
"null","","","null","","","","html-keyboard-response","288","644026","0.0-288.0","60189713dcf864178f74a1ce","6213caf1631f28dc6f5b658d","","","","","<p style=""color:darkgreen;font-size:24px;"">Correct :)</p>","",""
"2699","key","v","v","16.666876543209785","500","250","psychophysics","289","646731","0.0-289.0","60189713dcf864178f74a1ce","6213caf1631f28dc6f5b658d","5","","","","","0","3"
"null","","","null","","","","html-keyboard-response","290","647233","0.0-290.0","60189713dcf864178f74a1ce","6213caf1631f28dc6f5b658d","","","","","<p style=""color:darkgreen;font-size:24px;"">Correct :)</p>","",""
"2857","key","n","n","16.69063953488394","500","250","psychophysics","291","650095","0.0-291.0","60189713dcf864178f74a1ce","6213caf1631f28dc6f5b658d","5","","","","","0","8"
"null","","","null","","","","html-keyboard-response","292","650604","0.0-292.0","60189713dcf864178f74a1ce","6213caf1631f28dc6f5b658d","","","","","<p style=""color:darkgreen;font-size:24px;"">Correct :)</p>","",""
"2628","key","v","v","16.689708860759783","500","250","psychophysics","293","653237","0.0-293.0","60189713dcf864178f74a1ce","6213caf1631f28dc6f5b658d","5","","","","","0","9"
"null","","","null","","","","html-keyboard-response","294","653746","0.0-294.0","60189713dcf864178f74a1ce","6213caf1631f28dc6f5b658d","","","","","<p style=""color:darkgreen;font-size:24px;"">Correct :)</p>","",""
"9705","","","v","","","","html-keyboard-response","295","663452","0.0-295.0","60189713dcf864178f74a1ce","6213caf1631f28dc6f5b658d","","","","","<p> Here, the tasks are going to switch.  For some trials, your job is to decide if the digit is less than or greater than 5.  For others, it is to decide if the digit is even or odd.  You will be told which type of trial the current one is.  But, pay attention, the type of trial changes too.  We are going to do 50 of these.  </p>  <br><br>  Ready? (press v or n)","",""
"2832","key","n","n","16.612729411764647","500","250","psychophysics","296","666290","0.0-296.0","60189713dcf864178f74a1ce","6213caf1631f28dc6f5b658d","6","","","","","0","2"
"null","","","null","","","","html-keyboard-response","297","666793","0.0-297.0","60189713dcf864178f74a1ce","6213caf1631f28dc6f5b658d","","","","","<p style=""color:darkgreen;font-size:24px;"">Correct :)</p>","",""
"2888","key","v","v","16.613850574712295","500","250","psychophysics","298","669686","0.0-298.0","60189713dcf864178f74a1ce","6213caf1631f28dc6f5b658d","6","","","","","0","3"
"null","","","null","","","","html-keyboard-response","299","670192","0.0-299.0","60189713dcf864178f74a1ce","6213caf1631f28dc6f5b658d","","","","","<p style=""color:darkgreen;font-size:24px;"">Correct :)</p>","",""
"2957","key","v","v","16.6609606741577","500","250","psychophysics","300","673155","0.0-300.0","60189713dcf864178f74a1ce","6213caf1631f28dc6f5b658d","6","","","","","0","9"
"null","","","null","","","","html-keyboard-response","301","673669","0.0-301.0","60189713dcf864178f74a1ce","6213caf1631f28dc6f5b658d","","","","","<p style=""color:darkgreen;font-size:24px;"">Correct :)</p>","",""
"3070","key","n","n","16.632194594594626","500","250","psychophysics","302","676745","0.0-302.0","60189713dcf864178f74a1ce","6213caf1631f28dc6f5b658d","6","","","","","1","6"
"null","","","null","","","","html-keyboard-response","303","677256","0.0-303.0","60189713dcf864178f74a1ce","6213caf1631f28dc6f5b658d","","","","","<p style=""color:darkgreen;font-size:24px;"">Correct :)</p>","",""
"3212","key","n","n","16.688139896372988","500","250","psychophysics","304","680474","0.0-304.0","60189713dcf864178f74a1ce","6213caf1631f28dc6f5b658d","6","","","","","1","7"
"null","","","null","","","","html-keyboard-response","305","680991","0.0-305.0","60189713dcf864178f74a1ce","6213caf1631f28dc6f5b658d","","","","","<p style=""color:darkgreen;font-size:24px;"">Correct :)</p>","",""
"3947","key","n","n","16.674751054852187","500","250","psychophysics","306","684944","0.0-306.0","60189713dcf864178f74a1ce","6213caf1631f28dc6f5b658d","6","","","","","1","6"
"null","","","null","","","","html-keyboard-response","307","685448","0.0-307.0","60189713dcf864178f74a1ce","6213caf1631f28dc6f5b658d","","","","","<p style=""color:darkgreen;font-size:24px;"">Correct :)</p>","",""
"2582","key","v","v","16.66669480519463","500","250","psychophysics","308","688033","0.0-308.0","60189713dcf864178f74a1ce","6213caf1631f28dc6f5b658d","6","","","","","1","2"
"null","","","null","","","","html-keyboard-response","309","688535","0.0-309.0","60189713dcf864178f74a1ce","6213caf1631f28dc6f5b658d","","","","","<p style=""color:darkgreen;font-size:24px;"">Correct :)</p>","",""
"2965","key","n","n","16.688977528090085","500","250","psychophysics","310","691505","0.0-310.0","60189713dcf864178f74a1ce","6213caf1631f28dc6f5b658d","6","","","","","1","6"
"null","","","null","","","","html-keyboard-response","311","692010","0.0-311.0","60189713dcf864178f74a1ce","6213caf1631f28dc6f5b658d","","","","","<p style=""color:darkgreen;font-size:24px;"">Correct :)</p>","",""
"3954","key","v","v","16.630689075629974","500","250","psychophysics","312","695969","0.0-312.0","60189713dcf864178f74a1ce","6213caf1631f28dc6f5b658d","6","","","","","1","3"
"null","","","null","","","","html-keyboard-response","313","696480","0.0-313.0","60189713dcf864178f74a1ce","6213caf1631f28dc6f5b658d","","","","","<p style=""color:darkgreen;font-size:24px;"">Correct :)</p>","",""
"3065","key","v","v","16.687570652173473","500","250","psychophysics","314","699551","0.0-314.0","60189713dcf864178f74a1ce","6213caf1631f28dc6f5b658d","6","","","","","1","4"
"null","","","null","","","","html-keyboard-response","315","700058","0.0-315.0","60189713dcf864178f74a1ce","6213caf1631f28dc6f5b658d","","","","","<p style=""color:darkgreen;font-size:24px;"">Correct :)</p>","",""
"2934","key","n","n","16.633403409090533","500","250","psychophysics","316","702998","0.0-316.0","60189713dcf864178f74a1ce","6213caf1631f28dc6f5b658d","6","","","","","1","8"
"null","","","null","","","","html-keyboard-response","317","703512","0.0-317.0","60189713dcf864178f74a1ce","6213caf1631f28dc6f5b658d","","","","","<p style=""color:darkgreen;font-size:24px;"">Correct :)</p>","",""
"2758","key","v","v","16.667283132529946","500","250","psychophysics","318","706275","0.0-318.0","60189713dcf864178f74a1ce","6213caf1631f28dc6f5b658d","6","","","","","0","1"
"null","","","null","","","","html-keyboard-response","319","706791","0.0-319.0","60189713dcf864178f74a1ce","6213caf1631f28dc6f5b658d","","","","","<p style=""color:darkgreen;font-size:24px;"">Correct :)</p>","",""
"2870","key","v","v","16.66528901734088","500","250","psychophysics","320","709666","0.0-320.0","60189713dcf864178f74a1ce","6213caf1631f28dc6f5b658d","6","","","","","1","2"
"null","","","null","","","","html-keyboard-response","321","710170","0.0-321.0","60189713dcf864178f74a1ce","6213caf1631f28dc6f5b658d","","","","","<p style=""color:darkgreen;font-size:24px;"">Correct :)</p>","",""
"2733","key","n","n","16.639774390243605","500","250","psychophysics","322","712909","0.0-322.0","60189713dcf864178f74a1ce","6213caf1631f28dc6f5b658d","6","","","","","0","6"
"null","","","null","","","","html-keyboard-response","323","713411","0.0-323.0","60189713dcf864178f74a1ce","6213caf1631f28dc6f5b658d","","","","","<p style=""color:darkgreen;font-size:24px;"">Correct :)</p>","",""
"2491","key","v","v","16.60888666666656","500","250","psychophysics","324","715907","0.0-324.0","60189713dcf864178f74a1ce","6213caf1631f28dc6f5b658d","6","","","","","1","2"
"null","","","null","","","","html-keyboard-response","325","716421","0.0-325.0","60189713dcf864178f74a1ce","6213caf1631f28dc6f5b658d","","","","","<p style=""color:darkgreen;font-size:24px;"">Correct :)</p>","",""
"2638","key","n","n","16.628603773584747","500","250","psychophysics","326","719065","0.0-326.0","60189713dcf864178f74a1ce","6213caf1631f28dc6f5b658d","6","","","","","1","6"
"null","","","null","","","","html-keyboard-response","327","719572","0.0-327.0","60189713dcf864178f74a1ce","6213caf1631f28dc6f5b658d","","","","","<p style=""color:darkgreen;font-size:24px;"">Correct :)</p>","",""
"2737","key","n","n","16.671109090909138","500","250","psychophysics","328","722314","0.0-328.0","60189713dcf864178f74a1ce","6213caf1631f28dc6f5b658d","6","","","","","1","6"
"null","","","null","","","","html-keyboard-response","329","722823","0.0-329.0","60189713dcf864178f74a1ce","6213caf1631f28dc6f5b658d","","","","","<p style=""color:darkgreen;font-size:24px;"">Correct :)</p>","",""
"2557","key","n","n","16.673785714285188","500","250","psychophysics","330","725385","0.0-330.0","60189713dcf864178f74a1ce","6213caf1631f28dc6f5b658d","6","","","","","1","8"
"null","","","null","","","","html-keyboard-response","331","725888","0.0-331.0","60189713dcf864178f74a1ce","6213caf1631f28dc6f5b658d","","","","","<p style=""color:darkgreen;font-size:24px;"">Correct :)</p>","",""
"2555","key","n","n","16.659376623376588","500","250","psychophysics","332","728449","0.0-332.0","60189713dcf864178f74a1ce","6213caf1631f28dc6f5b658d","6","","","","","1","8"
"null","","","null","","","","html-keyboard-response","333","728953","0.0-333.0","60189713dcf864178f74a1ce","6213caf1631f28dc6f5b658d","","","","","<p style=""color:darkgreen;font-size:24px;"">Correct :)</p>","",""
"2550","key","n","n","16.653222222222027","500","250","psychophysics","334","731508","0.0-334.0","60189713dcf864178f74a1ce","6213caf1631f28dc6f5b658d","6","","","","","0","7"
"null","","","null","","","","html-keyboard-response","335","732017","0.0-335.0","60189713dcf864178f74a1ce","6213caf1631f28dc6f5b658d","","","","","<p style=""color:red;font-size:24px;"">Error :(</p>","",""
"2858","key","n","n","16.653832369942265","500","250","psychophysics","336","734901","0.0-336.0","60189713dcf864178f74a1ce","6213caf1631f28dc6f5b658d","6","","","","","1","8"
"null","","","null","","","","html-keyboard-response","337","735404","0.0-337.0","60189713dcf864178f74a1ce","6213caf1631f28dc6f5b658d","","","","","<p style=""color:darkgreen;font-size:24px;"">Correct :)</p>","",""
"2787","key","v","v","16.686803571428754","500","250","psychophysics","338","738197","0.0-338.0","60189713dcf864178f74a1ce","6213caf1631f28dc6f5b658d","6","","","","","0","7"
"null","","","null","","","","html-keyboard-response","339","738711","0.0-339.0","60189713dcf864178f74a1ce","6213caf1631f28dc6f5b658d","","","","","<p style=""color:darkgreen;font-size:24px;"">Correct :)</p>","",""
"2579","key","v","v","16.602141935484212","500","250","psychophysics","340","741295","0.0-340.0","60189713dcf864178f74a1ce","6213caf1631f28dc6f5b658d","6","","","","","0","1"
"null","","","null","","","","html-keyboard-response","341","741807","0.0-341.0","60189713dcf864178f74a1ce","6213caf1631f28dc6f5b658d","","","","","<p style=""color:darkgreen;font-size:24px;"">Correct :)</p>","",""
"3039","key","n","n","16.648710382513222","500","250","psychophysics","342","744852","0.0-342.0","60189713dcf864178f74a1ce","6213caf1631f28dc6f5b658d","6","","","","","0","8"
"null","","","null","","","","html-keyboard-response","343","745356","0.0-343.0","60189713dcf864178f74a1ce","6213caf1631f28dc6f5b658d","","","","","<p style=""color:darkgreen;font-size:24px;"">Correct :)</p>","",""
"2566","key","v","v","16.65623376623413","500","250","psychophysics","344","747927","0.0-344.0","60189713dcf864178f74a1ce","6213caf1631f28dc6f5b658d","6","","","","","0","1"
"null","","","null","","","","html-keyboard-response","345","748434","0.0-345.0","60189713dcf864178f74a1ce","6213caf1631f28dc6f5b658d","","","","","<p style=""color:darkgreen;font-size:24px;"">Correct :)</p>","",""
"2520","key","v","v","16.636624999999952","500","250","psychophysics","346","750974","0.0-346.0","60189713dcf864178f74a1ce","6213caf1631f28dc6f5b658d","6","","","","","1","1"
"null","","","null","","","","html-keyboard-response","347","751485","0.0-347.0","60189713dcf864178f74a1ce","6213caf1631f28dc6f5b658d","","","","","<p style=""color:darkgreen;font-size:24px;"">Correct :)</p>","",""
"2991","key","n","n","16.667461111110686","500","250","psychophysics","348","754481","0.0-348.0","60189713dcf864178f74a1ce","6213caf1631f28dc6f5b658d","6","","","","","0","4"
"null","","","null","","","","html-keyboard-response","349","754983","0.0-349.0","60189713dcf864178f74a1ce","6213caf1631f28dc6f5b658d","","","","","<p style=""color:darkgreen;font-size:24px;"">Correct :)</p>","",""
"2912","key","n","n","16.65665714285669","500","250","psychophysics","350","757901","0.0-350.0","60189713dcf864178f74a1ce","6213caf1631f28dc6f5b658d","6","","","","","0","8"
"null","","","null","","","","html-keyboard-response","351","758404","0.0-351.0","60189713dcf864178f74a1ce","6213caf1631f28dc6f5b658d","","","","","<p style=""color:darkgreen;font-size:24px;"">Correct :)</p>","",""
"3626","key","n","n","16.688559633027655","500","250","psychophysics","352","762036","0.0-352.0","60189713dcf864178f74a1ce","6213caf1631f28dc6f5b658d","6","","","","","1","6"
"null","","","null","","","","html-keyboard-response","353","762540","0.0-353.0","60189713dcf864178f74a1ce","6213caf1631f28dc6f5b658d","","","","","<p style=""color:darkgreen;font-size:24px;"">Correct :)</p>","",""
"2980","key","n","n","16.676413407821766","500","250","psychophysics","354","765526","0.0-354.0","60189713dcf864178f74a1ce","6213caf1631f28dc6f5b658d","6","","","","","0","4"
"null","","","null","","","","html-keyboard-response","355","766029","0.0-355.0","60189713dcf864178f74a1ce","6213caf1631f28dc6f5b658d","","","","","<p style=""color:darkgreen;font-size:24px;"">Correct :)</p>","",""
"2906","key","v","v","16.610171428571586","500","250","psychophysics","356","768941","0.0-356.0","60189713dcf864178f74a1ce","6213caf1631f28dc6f5b658d","6","","","","","1","1"
"null","","","null","","","","html-keyboard-response","357","769450","0.0-357.0","60189713dcf864178f74a1ce","6213caf1631f28dc6f5b658d","","","","","<p style=""color:darkgreen;font-size:24px;"">Correct :)</p>","",""
"2737","key","n","n","16.69314545454514","500","250","psychophysics","358","772193","0.0-358.0","60189713dcf864178f74a1ce","6213caf1631f28dc6f5b658d","6","","","","","0","6"
"null","","","null","","","","html-keyboard-response","359","772700","0.0-359.0","60189713dcf864178f74a1ce","6213caf1631f28dc6f5b658d","","","","","<p style=""color:darkgreen;font-size:24px;"">Correct :)</p>","",""
"3100","key","n","n","16.665854838709297","500","250","psychophysics","360","775805","0.0-360.0","60189713dcf864178f74a1ce","6213caf1631f28dc6f5b658d","6","","","","","1","7"
"null","","","null","","","","html-keyboard-response","361","776316","0.0-361.0","60189713dcf864178f74a1ce","6213caf1631f28dc6f5b658d","","","","","<p style=""color:darkgreen;font-size:24px;"">Correct :)</p>","",""
"2872","key","n","n","16.659924855491422","500","250","psychophysics","362","779194","0.0-362.0","60189713dcf864178f74a1ce","6213caf1631f28dc6f5b658d","6","","","","","1","9"
"null","","","null","","","","html-keyboard-response","363","779699","0.0-363.0","60189713dcf864178f74a1ce","6213caf1631f28dc6f5b658d","","","","","<p style=""color:darkgreen;font-size:24px;"">Correct :)</p>","",""
"3048","key","n","n","16.668076502732408","500","250","psychophysics","364","782753","0.0-364.0","60189713dcf864178f74a1ce","6213caf1631f28dc6f5b658d","6","","","","","0","2"
"null","","","null","","","","html-keyboard-response","365","783257","0.0-365.0","60189713dcf864178f74a1ce","6213caf1631f28dc6f5b658d","","","","","<p style=""color:darkgreen;font-size:24px;"">Correct :)</p>","",""
"2580","key","n","n","16.605722580645082","500","250","psychophysics","366","785843","0.0-366.0","60189713dcf864178f74a1ce","6213caf1631f28dc6f5b658d","6","","","","","0","6"
"null","","","null","","","","html-keyboard-response","367","786347","0.0-367.0","60189713dcf864178f74a1ce","6213caf1631f28dc6f5b658d","","","","","<p style=""color:darkgreen;font-size:24px;"">Correct :)</p>","",""
"2665","key","n","n","16.60298750000002","500","250","psychophysics","368","789018","0.0-368.0","60189713dcf864178f74a1ce","6213caf1631f28dc6f5b658d","6","","","","","1","9"
"null","","","null","","","","html-keyboard-response","369","789523","0.0-369.0","60189713dcf864178f74a1ce","6213caf1631f28dc6f5b658d","","","","","<p style=""color:darkgreen;font-size:24px;"">Correct :)</p>","",""
"2646","key","v","v","16.625025157232436","500","250","psychophysics","370","792175","0.0-370.0","60189713dcf864178f74a1ce","6213caf1631f28dc6f5b658d","6","","","","","0","7"
"null","","","null","","","","html-keyboard-response","371","792682","0.0-371.0","60189713dcf864178f74a1ce","6213caf1631f28dc6f5b658d","","","","","<p style=""color:darkgreen;font-size:24px;"">Correct :)</p>","",""
"3024","key","v","v","16.62224725274763","500","250","psychophysics","372","795711","0.0-372.0","60189713dcf864178f74a1ce","6213caf1631f28dc6f5b658d","6","","","","","1","4"
"null","","","null","","","","html-keyboard-response","373","796216","0.0-373.0","60189713dcf864178f74a1ce","6213caf1631f28dc6f5b658d","","","","","<p style=""color:darkgreen;font-size:24px;"">Correct :)</p>","",""
"3542","key","n","n","16.671492957746164","500","250","psychophysics","374","799764","0.0-374.0","60189713dcf864178f74a1ce","6213caf1631f28dc6f5b658d","6","","","","","1","8"
"null","","","null","","","","html-keyboard-response","375","800266","0.0-375.0","60189713dcf864178f74a1ce","6213caf1631f28dc6f5b658d","","","","","<p style=""color:darkgreen;font-size:24px;"">Correct :)</p>","",""
"2977","key","n","n","16.667396648044896","500","250","psychophysics","376","803249","0.0-376.0","60189713dcf864178f74a1ce","6213caf1631f28dc6f5b658d","6","","","","","0","4"
"null","","","null","","","","html-keyboard-response","377","803754","0.0-377.0","60189713dcf864178f74a1ce","6213caf1631f28dc6f5b658d","","","","","<p style=""color:darkgreen;font-size:24px;"">Correct :)</p>","",""
"3179","key","n","n","16.68902094240839","500","250","psychophysics","378","806938","0.0-378.0","60189713dcf864178f74a1ce","6213caf1631f28dc6f5b658d","6","","","","","1","7"
"null","","","null","","","","html-keyboard-response","379","807445","0.0-379.0","60189713dcf864178f74a1ce","6213caf1631f28dc6f5b658d","","","","","<p style=""color:darkgreen;font-size:24px;"">Correct :)</p>","",""
"3312","key","v","v","16.62351758793949","500","250","psychophysics","380","810763","0.0-380.0","60189713dcf864178f74a1ce","6213caf1631f28dc6f5b658d","6","","","","","1","2"
"null","","","null","","","","html-keyboard-response","381","811274","0.0-381.0","60189713dcf864178f74a1ce","6213caf1631f28dc6f5b658d","","","","","<p style=""color:darkgreen;font-size:24px;"">Correct :)</p>","",""
"2843","key","n","n","16.637222222222032","500","250","psychophysics","382","814123","0.0-382.0","60189713dcf864178f74a1ce","6213caf1631f28dc6f5b658d","6","","","","","0","6"
"null","","","null","","","","html-keyboard-response","383","814626","0.0-383.0","60189713dcf864178f74a1ce","6213caf1631f28dc6f5b658d","","","","","<p style=""color:darkgreen;font-size:24px;"">Correct :)</p>","",""
"3062","key","v","v","16.679576086956608","500","250","psychophysics","384","817694","0.0-384.0","60189713dcf864178f74a1ce","6213caf1631f28dc6f5b658d","6","","","","","1","2"
"null","","","null","","","","html-keyboard-response","385","818208","0.0-385.0","60189713dcf864178f74a1ce","6213caf1631f28dc6f5b658d","","","","","<p style=""color:darkgreen;font-size:24px;"">Correct :)</p>","",""
"5183","key","v","v","16.66095176848869","500","250","psychophysics","386","823395","0.0-386.0","60189713dcf864178f74a1ce","6213caf1631f28dc6f5b658d","6","","","","","0","7"
"null","","","null","","","","html-keyboard-response","387","823911","0.0-387.0","60189713dcf864178f74a1ce","6213caf1631f28dc6f5b658d","","","","","<p style=""color:darkgreen;font-size:24px;"">Correct :)</p>","",""
"2852","key","n","n","16.667156976743787","500","250","psychophysics","388","826769","0.0-388.0","60189713dcf864178f74a1ce","6213caf1631f28dc6f5b658d","6","","","","","0","2"
"null","","","null","","","","html-keyboard-response","389","827273","0.0-389.0","60189713dcf864178f74a1ce","6213caf1631f28dc6f5b658d","","","","","<p style=""color:darkgreen;font-size:24px;"">Correct :)</p>","",""
"3137","key","n","n","16.657947089946852","500","250","psychophysics","390","830416","0.0-390.0","60189713dcf864178f74a1ce","6213caf1631f28dc6f5b658d","6","","","","","1","6"
"null","","","null","","","","html-keyboard-response","391","830933","0.0-391.0","60189713dcf864178f74a1ce","6213caf1631f28dc6f5b658d","","","","","<p style=""color:darkgreen;font-size:24px;"">Correct :)</p>","",""
"2525","key","n","n","16.625605263158306","500","250","psychophysics","392","833465","0.0-392.0","60189713dcf864178f74a1ce","6213caf1631f28dc6f5b658d","6","","","","","1","6"
"null","","","null","","","","html-keyboard-response","393","833977","0.0-393.0","60189713dcf864178f74a1ce","6213caf1631f28dc6f5b658d","","","","","<p style=""color:darkgreen;font-size:24px;"">Correct :)</p>","",""
"3009","key","v","v","16.63132596685093","500","250","psychophysics","394","836992","0.0-394.0","60189713dcf864178f74a1ce","6213caf1631f28dc6f5b658d","6","","","","","0","7"
"null","","","null","","","","html-keyboard-response","395","837494","0.0-395.0","60189713dcf864178f74a1ce","6213caf1631f28dc6f5b658d","","","","","<p style=""color:darkgreen;font-size:24px;"">Correct :)</p>","",""
"4213","","","v","","","","html-keyboard-response","396","841708","0.0-396.0","60189713dcf864178f74a1ce","6213caf1631f28dc6f5b658d","","","","","<p> Last set of trials.  Here, the tasks are going to switch once again.  We are going to do 50 of these.  And then you are done with the experiment.  </p>  <br><br>  Ready? (press v or n)","",""
"2967","key","n","n","16.66738547486066","500","250","psychophysics","397","844681","0.0-397.0","60189713dcf864178f74a1ce","6213caf1631f28dc6f5b658d","7","","","","","1","6"
"null","","","null","","","","html-keyboard-response","398","845199","0.0-398.0","60189713dcf864178f74a1ce","6213caf1631f28dc6f5b658d","","","","","<p style=""color:darkgreen;font-size:24px;"">Correct :)</p>","",""
"2860","key","n","n","16.633000000000276","500","250","psychophysics","399","848064","0.0-399.0","60189713dcf864178f74a1ce","6213caf1631f28dc6f5b658d","7","","","","","0","6"
"null","","","null","","","","html-keyboard-response","400","848567","0.0-400.0","60189713dcf864178f74a1ce","6213caf1631f28dc6f5b658d","","","","","<p style=""color:darkgreen;font-size:24px;"">Correct :)</p>","",""
"2899","key","v","v","16.66754857142855","500","250","psychophysics","401","851484","0.0-401.0","60189713dcf864178f74a1ce","6213caf1631f28dc6f5b658d","7","","","","","1","2"
"null","","","null","","","","html-keyboard-response","402","851992","0.0-402.0","60189713dcf864178f74a1ce","6213caf1631f28dc6f5b658d","","","","","<p style=""color:darkgreen;font-size:24px;"">Correct :)</p>","",""
"2957","key","n","n","16.622320224719353","500","250","psychophysics","403","854957","0.0-403.0","60189713dcf864178f74a1ce","6213caf1631f28dc6f5b658d","7","","","","","0","4"
"null","","","null","","","","html-keyboard-response","404","855458","0.0-404.0","60189713dcf864178f74a1ce","6213caf1631f28dc6f5b658d","","","","","<p style=""color:darkgreen;font-size:24px;"">Correct :)</p>","",""
"2698","key","v","v","16.66364814814778","500","250","psychophysics","405","858161","0.0-405.0","60189713dcf864178f74a1ce","6213caf1631f28dc6f5b658d","7","","","","","0","1"
"null","","","null","","","","html-keyboard-response","406","858664","0.0-406.0","60189713dcf864178f74a1ce","6213caf1631f28dc6f5b658d","","","","","<p style=""color:darkgreen;font-size:24px;"">Correct :)</p>","",""
"2660","key","v","v","16.703749999999854","500","250","psychophysics","407","861329","0.0-407.0","60189713dcf864178f74a1ce","6213caf1631f28dc6f5b658d","7","","","","","0","1"
"null","","","null","","","","html-keyboard-response","408","861839","0.0-408.0","60189713dcf864178f74a1ce","6213caf1631f28dc6f5b658d","","","","","<p style=""color:darkgreen;font-size:24px;"">Correct :)</p>","",""
"2924","key","v","v","16.619159090909474","500","250","psychophysics","409","864768","0.0-409.0","60189713dcf864178f74a1ce","6213caf1631f28dc6f5b658d","7","","","","","1","2"
"null","","","null","","","","html-keyboard-response","410","865281","0.0-410.0","60189713dcf864178f74a1ce","6213caf1631f28dc6f5b658d","","","","","<p style=""color:darkgreen;font-size:24px;"">Correct :)</p>","",""
"3008","key","v","v","16.619779005525146","500","250","psychophysics","411","868295","0.0-411.0","60189713dcf864178f74a1ce","6213caf1631f28dc6f5b658d","7","","","","","1","4"
"null","","","null","","","","html-keyboard-response","412","868804","0.0-412.0","60189713dcf864178f74a1ce","6213caf1631f28dc6f5b658d","","","","","<p style=""color:darkgreen;font-size:24px;"">Correct :)</p>","",""
"2887","key","v","v","16.60836206896541","500","250","psychophysics","413","871697","0.0-413.0","60189713dcf864178f74a1ce","6213caf1631f28dc6f5b658d","7","","","","","0","7"
"null","","","null","","","","html-keyboard-response","414","872201","0.0-414.0","60189713dcf864178f74a1ce","6213caf1631f28dc6f5b658d","","","","","<p style=""color:darkgreen;font-size:24px;"">Correct :)</p>","",""
"2778","key","n","n","16.649071856287538","500","250","psychophysics","415","874984","0.0-415.0","60189713dcf864178f74a1ce","6213caf1631f28dc6f5b658d","7","","","","","0","6"
"null","","","null","","","","html-keyboard-response","416","875488","0.0-416.0","60189713dcf864178f74a1ce","6213caf1631f28dc6f5b658d","","","","","<p style=""color:darkgreen;font-size:24px;"">Correct :)</p>","",""
"2561","key","v","v","16.690753246753555","500","250","psychophysics","417","878054","0.0-417.0","60189713dcf864178f74a1ce","6213caf1631f28dc6f5b658d","7","","","","","1","3"
"null","","","null","","","","html-keyboard-response","418","878558","0.0-418.0","60189713dcf864178f74a1ce","6213caf1631f28dc6f5b658d","","","","","<p style=""color:darkgreen;font-size:24px;"">Correct :)</p>","",""
"2893","key","n","n","16.686408045977334","500","250","psychophysics","419","881456","0.0-419.0","60189713dcf864178f74a1ce","6213caf1631f28dc6f5b658d","7","","","","","0","2"
"null","","","null","","","","html-keyboard-response","420","881958","0.0-420.0","60189713dcf864178f74a1ce","6213caf1631f28dc6f5b658d","","","","","<p style=""color:darkgreen;font-size:24px;"">Correct :)</p>","",""
"3605","key","v","v","16.67022119815706","500","250","psychophysics","421","885568","0.0-421.0","60189713dcf864178f74a1ce","6213caf1631f28dc6f5b658d","7","","","","","0","3"
"null","","","null","","","","html-keyboard-response","422","886082","0.0-422.0","60189713dcf864178f74a1ce","6213caf1631f28dc6f5b658d","","","","","<p style=""color:darkgreen;font-size:24px;"">Correct :)</p>","",""
"2779","key","n","n","16.609916167664842","500","250","psychophysics","423","888868","0.0-423.0","60189713dcf864178f74a1ce","6213caf1631f28dc6f5b658d","7","","","","","0","4"
"null","","","null","","","","html-keyboard-response","424","889379","0.0-424.0","60189713dcf864178f74a1ce","6213caf1631f28dc6f5b658d","","","","","<p style=""color:darkgreen;font-size:24px;"">Correct :)</p>","",""
"3073","key","v","v","16.650827027027294","500","250","psychophysics","425","892458","0.0-425.0","60189713dcf864178f74a1ce","6213caf1631f28dc6f5b658d","7","","","","","1","2"
"null","","","null","","","","html-keyboard-response","426","892960","0.0-426.0","60189713dcf864178f74a1ce","6213caf1631f28dc6f5b658d","","","","","<p style=""color:darkgreen;font-size:24px;"">Correct :)</p>","",""
"6302","key","v","v","16.659587301587052","500","250","psychophysics","427","899267","0.0-427.0","60189713dcf864178f74a1ce","6213caf1631f28dc6f5b658d","7","","","","","1","1"
"null","","","null","","","","html-keyboard-response","428","899782","0.0-428.0","60189713dcf864178f74a1ce","6213caf1631f28dc6f5b658d","","","","","<p style=""color:darkgreen;font-size:24px;"">Correct :)</p>","",""
"3275","key","n","n","16.69269191919158","500","250","psychophysics","429","903075","0.0-429.0","60189713dcf864178f74a1ce","6213caf1631f28dc6f5b658d","7","","","","","0","6"
"null","","","null","","","","html-keyboard-response","430","903580","0.0-430.0","60189713dcf864178f74a1ce","6213caf1631f28dc6f5b658d","","","","","<p style=""color:darkgreen;font-size:24px;"">Correct :)</p>","",""
"2578","key","n","n","16.651290322580344","500","250","psychophysics","431","906164","0.0-431.0","60189713dcf864178f74a1ce","6213caf1631f28dc6f5b658d","7","","","","","1","6"
"null","","","null","","","","html-keyboard-response","432","906674","0.0-432.0","60189713dcf864178f74a1ce","6213caf1631f28dc6f5b658d","","","","","<p style=""color:darkgreen;font-size:24px;"">Correct :)</p>","",""
"4083","key","v","v","16.64524489795903","500","250","psychophysics","433","910762","0.0-433.0","60189713dcf864178f74a1ce","6213caf1631f28dc6f5b658d","7","","","","","1","1"
"null","","","null","","","","html-keyboard-response","434","911266","0.0-434.0","60189713dcf864178f74a1ce","6213caf1631f28dc6f5b658d","","","","","<p style=""color:darkgreen;font-size:24px;"">Correct :)</p>","",""
"3853","key","n","n","16.631478448275974","500","250","psychophysics","435","915126","0.0-435.0","60189713dcf864178f74a1ce","6213caf1631f28dc6f5b658d","7","","","","","1","6"
"null","","","null","","","","html-keyboard-response","436","915635","0.0-436.0","60189713dcf864178f74a1ce","6213caf1631f28dc6f5b658d","","","","","<p style=""color:darkgreen;font-size:24px;"">Correct :)</p>","",""
"2684","key","v","v","16.682403726707882","500","250","psychophysics","437","918326","0.0-437.0","60189713dcf864178f74a1ce","6213caf1631f28dc6f5b658d","7","","","","","0","1"
"null","","","null","","","","html-keyboard-response","438","918842","0.0-438.0","60189713dcf864178f74a1ce","6213caf1631f28dc6f5b658d","","","","","<p style=""color:darkgreen;font-size:24px;"">Correct :)</p>","",""
"2787","key","v","v","16.608571428571373","500","250","psychophysics","439","921635","0.0-439.0","60189713dcf864178f74a1ce","6213caf1631f28dc6f5b658d","7","","","","","1","1"
"null","","","null","","","","html-keyboard-response","440","922138","0.0-440.0","60189713dcf864178f74a1ce","6213caf1631f28dc6f5b658d","","","","","<p style=""color:darkgreen;font-size:24px;"">Correct :)</p>","",""
"3118","key","n","n","16.64505347593583","500","250","psychophysics","441","925262","0.0-441.0","60189713dcf864178f74a1ce","6213caf1631f28dc6f5b658d","7","","","","","0","2"
"null","","","null","","","","html-keyboard-response","442","925765","0.0-442.0","60189713dcf864178f74a1ce","6213caf1631f28dc6f5b658d","","","","","<p style=""color:darkgreen;font-size:24px;"">Correct :)</p>","",""
"3382","key","v","v","16.63536945812856","500","250","psychophysics","443","929152","0.0-443.0","60189713dcf864178f74a1ce","6213caf1631f28dc6f5b658d","7","","","","","1","4"
"null","","","null","","","","html-keyboard-response","444","929667","0.0-444.0","60189713dcf864178f74a1ce","6213caf1631f28dc6f5b658d","","","","","<p style=""color:darkgreen;font-size:24px;"">Correct :)</p>","",""
"2723","key","v","v","16.68049999999973","500","250","psychophysics","445","932396","0.0-445.0","60189713dcf864178f74a1ce","6213caf1631f28dc6f5b658d","7","","","","","1","4"
"null","","","null","","","","html-keyboard-response","446","932907","0.0-446.0","60189713dcf864178f74a1ce","6213caf1631f28dc6f5b658d","","","","","<p style=""color:darkgreen;font-size:24px;"">Correct :)</p>","",""
"2892","key","v","v","16.610885057471233","500","250","psychophysics","447","935805","0.0-447.0","60189713dcf864178f74a1ce","6213caf1631f28dc6f5b658d","7","","","","","0","3"
"null","","","null","","","","html-keyboard-response","448","936308","0.0-448.0","60189713dcf864178f74a1ce","6213caf1631f28dc6f5b658d","","","","","<p style=""color:darkgreen;font-size:24px;"">Correct :)</p>","",""
"2720","key","v","v","16.670859756097965","500","250","psychophysics","449","939034","0.0-449.0","60189713dcf864178f74a1ce","6213caf1631f28dc6f5b658d","7","","","","","0","3"
"null","","","null","","","","html-keyboard-response","450","939544","0.0-450.0","60189713dcf864178f74a1ce","6213caf1631f28dc6f5b658d","","","","","<p style=""color:darkgreen;font-size:24px;"">Correct :)</p>","",""
"2716","key","v","v","16.680791411043195","500","250","psychophysics","451","942265","0.0-451.0","60189713dcf864178f74a1ce","6213caf1631f28dc6f5b658d","7","","","","","1","2"
"null","","","null","","","","html-keyboard-response","452","942767","0.0-452.0","60189713dcf864178f74a1ce","6213caf1631f28dc6f5b658d","","","","","<p style=""color:darkgreen;font-size:24px;"">Correct :)</p>","",""
"2896","key","n","n","16.60993103448291","500","250","psychophysics","453","945673","0.0-453.0","60189713dcf864178f74a1ce","6213caf1631f28dc6f5b658d","7","","","","","0","4"
"null","","","null","","","","html-keyboard-response","454","946179","0.0-454.0","60189713dcf864178f74a1ce","6213caf1631f28dc6f5b658d","","","","","<p style=""color:darkgreen;font-size:24px;"">Correct :)</p>","",""
"2755","key","n","n","16.636385542168057","500","250","psychophysics","455","948939","0.0-455.0","60189713dcf864178f74a1ce","6213caf1631f28dc6f5b658d","7","","","","","0","2"
"null","","","null","","","","html-keyboard-response","456","949444","0.0-456.0","60189713dcf864178f74a1ce","6213caf1631f28dc6f5b658d","","","","","<p style=""color:darkgreen;font-size:24px;"">Correct :)</p>","",""
"2531","key","n","n","16.654473684210405","500","250","psychophysics","457","951980","0.0-457.0","60189713dcf864178f74a1ce","6213caf1631f28dc6f5b658d","7","","","","","0","2"
"null","","","null","","","","html-keyboard-response","458","952492","0.0-458.0","60189713dcf864178f74a1ce","6213caf1631f28dc6f5b658d","","","","","<p style=""color:darkgreen;font-size:24px;"">Correct :)</p>","",""
"2634","key","v","v","16.65258860759455","500","250","psychophysics","459","955131","0.0-459.0","60189713dcf864178f74a1ce","6213caf1631f28dc6f5b658d","7","","","","","0","3"
"null","","","null","","","","html-keyboard-response","460","955646","0.0-460.0","60189713dcf864178f74a1ce","6213caf1631f28dc6f5b658d","","","","","<p style=""color:darkgreen;font-size:24px;"">Correct :)</p>","",""
"2676","key","v","v","16.692347826086916","500","250","psychophysics","461","958326","0.0-461.0","60189713dcf864178f74a1ce","6213caf1631f28dc6f5b658d","7","","","","","1","1"
"null","","","null","","","","html-keyboard-response","462","958832","0.0-462.0","60189713dcf864178f74a1ce","6213caf1631f28dc6f5b658d","","","","","<p style=""color:darkgreen;font-size:24px;"">Correct :)</p>","",""
"2588","key","n","n","16.683455128204795","500","250","psychophysics","463","961425","0.0-463.0","60189713dcf864178f74a1ce","6213caf1631f28dc6f5b658d","7","","","","","1","7"
"null","","","null","","","","html-keyboard-response","464","961933","0.0-464.0","60189713dcf864178f74a1ce","6213caf1631f28dc6f5b658d","","","","","<p style=""color:darkgreen;font-size:24px;"">Correct :)</p>","",""
"2827","key","v","v","16.677658823529697","500","250","psychophysics","465","964764","0.0-465.0","60189713dcf864178f74a1ce","6213caf1631f28dc6f5b658d","7","","","","","1","1"
"null","","","null","","","","html-keyboard-response","466","965274","0.0-466.0","60189713dcf864178f74a1ce","6213caf1631f28dc6f5b658d","","","","","<p style=""color:darkgreen;font-size:24px;"">Correct :)</p>","",""
"2910","key","n","n","16.614577142857016","500","250","psychophysics","467","968189","0.0-467.0","60189713dcf864178f74a1ce","6213caf1631f28dc6f5b658d","7","","","","","0","2"
"null","","","null","","","","html-keyboard-response","468","968694","0.0-468.0","60189713dcf864178f74a1ce","6213caf1631f28dc6f5b658d","","","","","<p style=""color:darkgreen;font-size:24px;"">Correct :)</p>","",""
"2840","key","n","n","16.69032748537996","500","250","psychophysics","469","971540","0.0-469.0","60189713dcf864178f74a1ce","6213caf1631f28dc6f5b658d","7","","","","","1","7"
"null","","","null","","","","html-keyboard-response","470","972046","0.0-470.0","60189713dcf864178f74a1ce","6213caf1631f28dc6f5b658d","","","","","<p style=""color:darkgreen;font-size:24px;"">Correct :)</p>","",""
"2883","key","n","n","16.67763005780336","500","250","psychophysics","471","974934","0.0-471.0","60189713dcf864178f74a1ce","6213caf1631f28dc6f5b658d","7","","","","","0","6"
"null","","","null","","","","html-keyboard-response","472","975437","0.0-472.0","60189713dcf864178f74a1ce","6213caf1631f28dc6f5b658d","","","","","<p style=""color:darkgreen;font-size:24px;"">Correct :)</p>","",""
"2655","key","v","v","16.60882500000007","500","250","psychophysics","473","978097","0.0-473.0","60189713dcf864178f74a1ce","6213caf1631f28dc6f5b658d","7","","","","","0","1"
"null","","","null","","","","html-keyboard-response","474","978609","0.0-474.0","60189713dcf864178f74a1ce","6213caf1631f28dc6f5b658d","","","","","<p style=""color:darkgreen;font-size:24px;"">Correct :)</p>","",""
"2810","key","v","v","16.69804733727863","500","250","psychophysics","475","981424","0.0-475.0","60189713dcf864178f74a1ce","6213caf1631f28dc6f5b658d","7","","","","","0","7"
"null","","","null","","","","html-keyboard-response","476","981928","0.0-476.0","60189713dcf864178f74a1ce","6213caf1631f28dc6f5b658d","","","","","<p style=""color:darkgreen;font-size:24px;"">Correct :)</p>","",""
"3103","key","v","v","16.680705882353024","500","250","psychophysics","477","985037","0.0-477.0","60189713dcf864178f74a1ce","6213caf1631f28dc6f5b658d","7","","","","","0","3"
"null","","","null","","","","html-keyboard-response","478","985549","0.0-478.0","60189713dcf864178f74a1ce","6213caf1631f28dc6f5b658d","","","","","<p style=""color:darkgreen;font-size:24px;"">Correct :)</p>","",""
"2513","key","v","v","16.69262913907323","500","250","psychophysics","479","988067","0.0-479.0","60189713dcf864178f74a1ce","6213caf1631f28dc6f5b658d","7","","","","","0","1"
"null","","","null","","","","html-keyboard-response","480","988573","0.0-480.0","60189713dcf864178f74a1ce","6213caf1631f28dc6f5b658d","","","","","<p style=""color:darkgreen;font-size:24px;"">Correct :)</p>","",""
"2758","key","n","n","16.609530120482106","500","250","psychophysics","481","991336","0.0-481.0","60189713dcf864178f74a1ce","6213caf1631f28dc6f5b658d","7","","","","","1","6"
"null","","","null","","","","html-keyboard-response","482","991845","0.0-482.0","60189713dcf864178f74a1ce","6213caf1631f28dc6f5b658d","","","","","<p style=""color:darkgreen;font-size:24px;"">Correct :)</p>","",""
"2800","key","v","v","16.701375000000034","500","250","psychophysics","483","994650","0.0-483.0","60189713dcf864178f74a1ce","6213caf1631f28dc6f5b658d","7","","","","","0","7"
"null","","","null","","","","html-keyboard-response","484","995156","0.0-484.0","60189713dcf864178f74a1ce","6213caf1631f28dc6f5b658d","","","","","<p style=""color:darkgreen;font-size:24px;"">Correct :)</p>","",""
"2555","key","v","v","16.628324675324595","500","250","psychophysics","485","997717","0.0-485.0","60189713dcf864178f74a1ce","6213caf1631f28dc6f5b658d","7","","","","","1","1"
"null","","","null","","","","html-keyboard-response","486","998231","0.0-486.0","60189713dcf864178f74a1ce","6213caf1631f28dc6f5b658d","","","","","<p style=""color:darkgreen;font-size:24px;"">Correct :)</p>","",""
"2689","key","n","n","16.616919753086368","500","250","psychophysics","487","1000925","0.0-487.0","60189713dcf864178f74a1ce","6213caf1631f28dc6f5b658d","7","","","","","0","2"
"null","","","null","","","","html-keyboard-response","488","1001440","0.0-488.0","60189713dcf864178f74a1ce","6213caf1631f28dc6f5b658d","","","","","<p style=""color:darkgreen;font-size:24px;"">Correct :)</p>","",""
"2786","key","v","v","16.620767857142795","500","250","psychophysics","489","1004233","0.0-489.0","60189713dcf864178f74a1ce","6213caf1631f28dc6f5b658d","7","","","","","0","3"
"null","","","null","","","","html-keyboard-response","490","1004742","0.0-490.0","60189713dcf864178f74a1ce","6213caf1631f28dc6f5b658d","","","","","<p style=""color:darkgreen;font-size:24px;"">Correct :)</p>","",""
"2967","key","n","n","16.678162921348253","500","250","psychophysics","491","1007715","0.0-491.0","60189713dcf864178f74a1ce","6213caf1631f28dc6f5b658d","7","","","","","1","6"
"null","","","null","","","","html-keyboard-response","492","1008228","0.0-492.0","60189713dcf864178f74a1ce","6213caf1631f28dc6f5b658d","","","","","<p style=""color:darkgreen;font-size:24px;"">Correct :)</p>","",""
"2862","key","n","n","16.68380232558174","500","250","psychophysics","493","1011095","0.0-493.0","60189713dcf864178f74a1ce","6213caf1631f28dc6f5b658d","7","","","","","1","7"
"null","","","null","","","","html-keyboard-response","494","1011599","0.0-494.0","60189713dcf864178f74a1ce","6213caf1631f28dc6f5b658d","","","","","<p style=""color:darkgreen;font-size:24px;"">Correct :)</p>","",""
"3056","key","v","v","16.69188043478251","500","250","psychophysics","495","1014661","0.0-495.0","60189713dcf864178f74a1ce","6213caf1631f28dc6f5b658d","7","","","","","1","2"
"null","","","null","","","","html-keyboard-response","496","1015170","0.0-496.0","60189713dcf864178f74a1ce","6213caf1631f28dc6f5b658d","","","","","<p style=""color:darkgreen;font-size:24px;"">Correct :)</p>","",""
