"rt","response_type","key_press","response","avg_frame_time","center_x","center_y","trial_type","trial_index","time_elapsed","internal_node_id","pid","sid","phase","guide","targ","resp","stimulus","is5","stim"
"53033","key"," "," ","17.189134664948455","500","250","psychophysics","0","53387","0.0-0.0","5f4d40ca75b5258bf5af8cca","6213cd978ea0123540d0fc0f","","","","","","",""
"14443","key"," "," ","16.828830034924326","500","250","psychophysics","1","67844","0.0-1.0","5f4d40ca75b5258bf5af8cca","6213cd978ea0123540d0fc0f","","","","","","",""
"4609","key"," "," ","16.673826086956502","500","250","psychophysics","2","72458","0.0-2.0","5f4d40ca75b5258bf5af8cca","6213cd978ea0123540d0fc0f","","","","","","",""
"2128","key"," "," ","16.673464566929123","500","250","psychophysics","3","74589","0.0-3.0","5f4d40ca75b5258bf5af8cca","6213cd978ea0123540d0fc0f","","","","","","",""
"5401","key"," "," ","16.673551083591335","500","250","psychophysics","4","79995","0.0-4.0","5f4d40ca75b5258bf5af8cca","6213cd978ea0123540d0fc0f","","","","","","",""
"11181","key"," "," ","16.67350746268657","500","250","psychophysics","5","91179","0.0-5.0","5f4d40ca75b5258bf5af8cca","6213cd978ea0123540d0fc0f","","","","","","",""
"3090","key"," "," ","16.673532608695613","500","250","psychophysics","6","94273","0.0-6.0","5f4d40ca75b5258bf5af8cca","6213cd978ea0123540d0fc0f","","","","","","",""
"4410","key"," "," ","16.67349621212121","500","250","psychophysics","7","98685","0.0-7.0","5f4d40ca75b5258bf5af8cca","6213cd978ea0123540d0fc0f","","","","","","",""
"22913","key"," "," ","16.685595481049553","500","250","psychophysics","8","121600","0.0-8.0","5f4d40ca75b5258bf5af8cca","6213cd978ea0123540d0fc0f","0","0","51","53","","",""
"11025","key"," "," ","16.673503782148263","500","250","psychophysics","9","124812","0.0-9.0","5f4d40ca75b5258bf5af8cca","6213cd978ea0123540d0fc0f","","","","","","",""
"4452","key"," "," ","16.799681818181853","500","250","psychophysics","10","129270","0.0-10.0","5f4d40ca75b5258bf5af8cca","6213cd978ea0123540d0fc0f","","","","","","",""
"5877","key"," "," ","16.673374999999975","500","250","psychophysics","11","135151","0.0-11.0","5f4d40ca75b5258bf5af8cca","6213cd978ea0123540d0fc0f","","","","","","",""
"2546","key"," "," ","16.673723684210447","500","250","psychophysics","12","137702","0.0-12.0","5f4d40ca75b5258bf5af8cca","6213cd978ea0123540d0fc0f","","","","","","",""
"2346","key"," "," ","16.674228571428518","500","250","psychophysics","13","140052","0.0-13.0","5f4d40ca75b5258bf5af8cca","6213cd978ea0123540d0fc0f","","","","","","",""
"3625","key"," "," ","16.673300925926014","500","250","psychophysics","14","143681","0.0-14.0","5f4d40ca75b5258bf5af8cca","6213cd978ea0123540d0fc0f","","","","","","",""
"9669","key"," "," ","16.673179310344857","500","250","psychophysics","15","153357","0.0-15.0","5f4d40ca75b5258bf5af8cca","6213cd978ea0123540d0fc0f","","","","","","",""
"4086","key"," "," ","16.673672131147498","500","250","psychophysics","16","157447","0.0-16.0","5f4d40ca75b5258bf5af8cca","6213cd978ea0123540d0fc0f","","","","","","",""
"14347","key"," "," ","16.67352558139537","500","250","psychophysics","17","171797","0.0-17.0","5f4d40ca75b5258bf5af8cca","6213cd978ea0123540d0fc0f","1","0","50","53","","",""
"11169","key"," "," ","16.673490284005982","500","250","psychophysics","18","182970","0.0-18.0","5f4d40ca75b5258bf5af8cca","6213cd978ea0123540d0fc0f","1","5","29","29","","",""
"14136","key"," "," ","16.673583234946864","500","250","psychophysics","19","197110","0.0-19.0","5f4d40ca75b5258bf5af8cca","6213cd978ea0123540d0fc0f","1","0","60","64","","",""
"11359","key"," "," ","16.673517647058823","500","250","psychophysics","20","208473","0.0-20.0","5f4d40ca75b5258bf5af8cca","6213cd978ea0123540d0fc0f","1","5","31","33","","",""
"8547","key"," "," ","16.673578125000006","500","250","psychophysics","21","217023","0.0-21.0","5f4d40ca75b5258bf5af8cca","6213cd978ea0123540d0fc0f","1","0","20","23","","",""
"25505","key"," "," ","16.783201448321275","500","250","psychophysics","22","242533","0.0-22.0","5f4d40ca75b5258bf5af8cca","6213cd978ea0123540d0fc0f","1","5","43","41","","",""
"17590","key"," "," ","16.673373814041778","500","250","psychophysics","23","260127","0.0-23.0","5f4d40ca75b5258bf5af8cca","6213cd978ea0123540d0fc0f","1","0","40","47","","",""
"10416","key"," "," ","16.673556089743588","500","250","psychophysics","24","270545","0.0-24.0","5f4d40ca75b5258bf5af8cca","6213cd978ea0123540d0fc0f","1","5","31","33","","",""
"20884","key"," "," ","16.673508785942452","500","250","psychophysics","25","291431","0.0-25.0","5f4d40ca75b5258bf5af8cca","6213cd978ea0123540d0fc0f","1","0","55","63","","",""
"11291","key"," "," ","16.67342603550292","500","250","psychophysics","26","302727","0.0-26.0","5f4d40ca75b5258bf5af8cca","6213cd978ea0123540d0fc0f","1","5","34","38","","",""
"16721","key"," "," ","16.673416167664705","500","250","psychophysics","27","319451","0.0-27.0","5f4d40ca75b5258bf5af8cca","6213cd978ea0123540d0fc0f","1","0","59","69","","",""
"8459","key"," "," ","16.673428007889576","500","250","psychophysics","28","327914","0.0-28.0","5f4d40ca75b5258bf5af8cca","6213cd978ea0123540d0fc0f","1","5","34","37","","",""
"5515","key"," "," ","16.673239393939376","500","250","psychophysics","29","333432","0.0-29.0","5f4d40ca75b5258bf5af8cca","6213cd978ea0123540d0fc0f","1","0","22","27","","",""
"18580","key"," "," ","16.673420485175196","500","250","psychophysics","30","352016","0.0-30.0","5f4d40ca75b5258bf5af8cca","6213cd978ea0123540d0fc0f","1","5","60","61","","",""
"8240","key"," "," ","16.673127530364418","500","250","psychophysics","31","360259","0.0-31.0","5f4d40ca75b5258bf5af8cca","6213cd978ea0123540d0fc0f","1","0","53","61","","",""
"11920","key"," "," ","16.673443977591006","500","250","psychophysics","32","372184","0.0-32.0","5f4d40ca75b5258bf5af8cca","6213cd978ea0123540d0fc0f","1","5","33","36","","",""
"18724","key"," "," ","16.673476827094476","500","250","psychophysics","33","390912","0.0-33.0","5f4d40ca75b5258bf5af8cca","6213cd978ea0123540d0fc0f","1","0","57","67","","",""
"7512","key"," "," ","16.673575555555548","500","250","psychophysics","34","398427","0.0-34.0","5f4d40ca75b5258bf5af8cca","6213cd978ea0123540d0fc0f","1","5","27","27","","",""
"11552","key"," "," ","16.67333236994219","500","250","psychophysics","35","409982","0.0-35.0","5f4d40ca75b5258bf5af8cca","6213cd978ea0123540d0fc0f","1","0","55","73","","",""
"8593","key"," "," ","16.673379377431846","500","250","psychophysics","36","418579","0.0-36.0","5f4d40ca75b5258bf5af8cca","6213cd978ea0123540d0fc0f","1","5","22","25","","",""
"3801","key"," "," ","16.673486842105234","500","250","psychophysics","37","422388","0.0-37.0","5f4d40ca75b5258bf5af8cca","6213cd978ea0123540d0fc0f","","","","","","",""
"10757","key"," "," ","16.67338819875778","500","250","psychophysics","38","433150","0.0-38.0","5f4d40ca75b5258bf5af8cca","6213cd978ea0123540d0fc0f","","","","","","",""
"4758","key"," "," ","16.67347719298243","500","250","psychophysics","39","437911","0.0-39.0","5f4d40ca75b5258bf5af8cca","6213cd978ea0123540d0fc0f","","","","","","",""
"12385","key"," "," ","16.67347574123987","500","250","psychophysics","40","450299","0.0-40.0","5f4d40ca75b5258bf5af8cca","6213cd978ea0123540d0fc0f","2","0","33","42","","",""
"5667","key"," "," ","16.673457227138545","500","250","psychophysics","41","455971","0.0-41.0","5f4d40ca75b5258bf5af8cca","6213cd978ea0123540d0fc0f","","","","","","",""
"12850","key"," "," ","16.67342727272726","500","250","psychophysics","42","468823","0.0-42.0","5f4d40ca75b5258bf5af8cca","6213cd978ea0123540d0fc0f","2","0","28","30","","",""
"5307","key"," "," ","16.673441640378456","500","250","psychophysics","43","474132","0.0-43.0","5f4d40ca75b5258bf5af8cca","6213cd978ea0123540d0fc0f","","","","","","",""
"8327","key"," "," ","16.673488977955905","500","250","psychophysics","44","482463","0.0-44.0","5f4d40ca75b5258bf5af8cca","6213cd978ea0123540d0fc0f","2","0","51","57","","",""
"5454","key"," "," ","16.673598159509183","500","250","psychophysics","45","487919","0.0-45.0","5f4d40ca75b5258bf5af8cca","6213cd978ea0123540d0fc0f","","","","","","",""
"17174","key"," "," ","16.673446064139966","500","250","psychophysics","46","505096","0.0-46.0","5f4d40ca75b5258bf5af8cca","6213cd978ea0123540d0fc0f","2","0","54","60","","",""
"4053","key"," "," ","16.67367355371917","500","250","psychophysics","47","509151","0.0-47.0","5f4d40ca75b5258bf5af8cca","6213cd978ea0123540d0fc0f","","","","","","",""
"7872","key"," "," ","16.673584745762774","500","250","psychophysics","48","517032","0.0-48.0","5f4d40ca75b5258bf5af8cca","6213cd978ea0123540d0fc0f","2","0","31","33","","",""
"4449","key"," "," ","16.67346992481218","500","250","psychophysics","49","521483","0.0-49.0","5f4d40ca75b5258bf5af8cca","6213cd978ea0123540d0fc0f","","","","","","",""
"5495","key"," "," ","16.673878419452905","500","250","psychophysics","50","526981","0.0-50.0","5f4d40ca75b5258bf5af8cca","6213cd978ea0123540d0fc0f","2","0","55","51","","",""
"3331","key"," "," ","16.673442211055345","500","250","psychophysics","51","530316","0.0-51.0","5f4d40ca75b5258bf5af8cca","6213cd978ea0123540d0fc0f","","","","","","",""
"6420","key"," "," ","16.673325520833412","500","250","psychophysics","52","536740","0.0-52.0","5f4d40ca75b5258bf5af8cca","6213cd978ea0123540d0fc0f","2","0","52","54","","",""
"2677","key"," "," ","16.67346875000003","500","250","psychophysics","53","539420","0.0-53.0","5f4d40ca75b5258bf5af8cca","6213cd978ea0123540d0fc0f","","","","","","",""
"6938","key"," "," ","16.673431325301035","500","250","psychophysics","54","546364","0.0-54.0","5f4d40ca75b5258bf5af8cca","6213cd978ea0123540d0fc0f","2","0","51","55","","",""
"3310","key"," "," ","16.67356060606056","500","250","psychophysics","55","549677","0.0-55.0","5f4d40ca75b5258bf5af8cca","6213cd978ea0123540d0fc0f","","","","","","",""
"5504","key"," "," ","16.673212765957693","500","250","psychophysics","56","555183","0.0-56.0","5f4d40ca75b5258bf5af8cca","6213cd978ea0123540d0fc0f","2","0","56","54","","",""
"4312","key"," "," ","16.673546511627997","500","250","psychophysics","57","559498","0.0-57.0","5f4d40ca75b5258bf5af8cca","6213cd978ea0123540d0fc0f","","","","","","",""
"7869","key"," "," ","16.67355838641198","500","250","psychophysics","58","567370","0.0-58.0","5f4d40ca75b5258bf5af8cca","6213cd978ea0123540d0fc0f","2","0","45","50","","",""
"4906","key"," "," ","16.673590443686283","500","250","psychophysics","59","572280","0.0-59.0","5f4d40ca75b5258bf5af8cca","6213cd978ea0123540d0fc0f","","","","","","",""
"6603","key"," "," ","16.673565656565554","500","250","psychophysics","60","578893","0.0-60.0","5f4d40ca75b5258bf5af8cca","6213cd978ea0123540d0fc0f","2","0","47","47","","",""
"4242","key"," "," ","16.67366929133844","500","250","psychophysics","61","583138","0.0-61.0","5f4d40ca75b5258bf5af8cca","6213cd978ea0123540d0fc0f","","","","","","",""
"4518","key"," "," ","16.673640740740854","500","250","psychophysics","62","587660","0.0-62.0","5f4d40ca75b5258bf5af8cca","6213cd978ea0123540d0fc0f","2","0","30","29","","",""
"7441","key"," "," ","16.67352808988758","500","250","psychophysics","63","595104","0.0-63.0","5f4d40ca75b5258bf5af8cca","6213cd978ea0123540d0fc0f","","","","","","",""
"7304","key"," "," ","16.673420091324164","500","250","psychophysics","64","602418","0.0-64.0","5f4d40ca75b5258bf5af8cca","6213cd978ea0123540d0fc0f","2","0","31","31","","",""
"3733","key"," "," ","16.67319282511199","500","250","psychophysics","65","606153","0.0-65.0","5f4d40ca75b5258bf5af8cca","6213cd978ea0123540d0fc0f","","","","","","",""
"7011","key"," "," ","16.673492857142783","500","250","psychophysics","66","613167","0.0-66.0","5f4d40ca75b5258bf5af8cca","6213cd978ea0123540d0fc0f","2","0","30","30","","",""
"3094","key"," "," ","16.67338043478262","500","250","psychophysics","67","616264","0.0-67.0","5f4d40ca75b5258bf5af8cca","6213cd978ea0123540d0fc0f","","","","","","",""
"6026","key"," "," ","16.673781163435187","500","250","psychophysics","68","622299","0.0-68.0","5f4d40ca75b5258bf5af8cca","6213cd978ea0123540d0fc0f","2","0","43","44","","",""
"2558","key"," "," ","16.67305882352943","500","250","psychophysics","69","624864","0.0-69.0","5f4d40ca75b5258bf5af8cca","6213cd978ea0123540d0fc0f","","","","","","",""
"6891","key"," "," ","16.673400485436872","500","250","psychophysics","70","631759","0.0-70.0","5f4d40ca75b5258bf5af8cca","6213cd978ea0123540d0fc0f","","","","","","",""
"3922","key"," "," ","16.67341949152553","500","250","psychophysics","71","635694","0.0-71.0","5f4d40ca75b5258bf5af8cca","6213cd978ea0123540d0fc0f","","","","","","",""
"9871","key"," "," ","16.873452054794555","500","250","psychophysics","72","645569","0.0-72.0","5f4d40ca75b5258bf5af8cca","6213cd978ea0123540d0fc0f","3","5","54","52","","",""
"7235","key"," "," ","16.673545034642075","500","250","psychophysics","73","652808","0.0-73.0","5f4d40ca75b5258bf5af8cca","6213cd978ea0123540d0fc0f","3","0","52","53","","",""
"27424","key"," "," ","16.673481751824834","500","250","psychophysics","74","680235","0.0-74.0","5f4d40ca75b5258bf5af8cca","6213cd978ea0123540d0fc0f","3","5","59","58","","",""
"9872","key"," "," ","16.67334010152287","500","250","psychophysics","75","690110","0.0-75.0","5f4d40ca75b5258bf5af8cca","6213cd978ea0123540d0fc0f","3","0","43","50","","",""
"21227","key"," "," ","16.67350353495679","500","250","psychophysics","76","711345","0.0-76.0","5f4d40ca75b5258bf5af8cca","6213cd978ea0123540d0fc0f","3","5","35","37","","",""
"11823","key"," "," ","16.673563559322076","500","250","psychophysics","77","723171","0.0-77.0","5f4d40ca75b5258bf5af8cca","6213cd978ea0123540d0fc0f","3","0","34","47","","",""
"20617","key"," "," ","16.673502427184484","500","250","psychophysics","78","743791","0.0-78.0","5f4d40ca75b5258bf5af8cca","6213cd978ea0123540d0fc0f","3","5","56","58","","",""
"5536","key"," "," ","16.67336555891227","500","250","psychophysics","79","749331","0.0-79.0","5f4d40ca75b5258bf5af8cca","6213cd978ea0123540d0fc0f","3","0","53","61","","",""
"7101","key"," "," ","16.67333647058811","500","250","psychophysics","80","756435","0.0-80.0","5f4d40ca75b5258bf5af8cca","6213cd978ea0123540d0fc0f","3","5","47","51","","",""
"7609","key"," "," ","16.673436403508898","500","250","psychophysics","81","764046","0.0-81.0","5f4d40ca75b5258bf5af8cca","6213cd978ea0123540d0fc0f","3","0","25","29","","",""
"12002","key"," "," ","16.673382475660656","500","250","psychophysics","82","776052","0.0-82.0","5f4d40ca75b5258bf5af8cca","6213cd978ea0123540d0fc0f","3","5","42","40","","",""
"8765","key"," "," ","16.6733371428571","500","250","psychophysics","83","784822","0.0-83.0","5f4d40ca75b5258bf5af8cca","6213cd978ea0123540d0fc0f","3","0","40","50","","",""
"11145","key"," "," ","16.673299850074986","500","250","psychophysics","84","795971","0.0-84.0","5f4d40ca75b5258bf5af8cca","6213cd978ea0123540d0fc0f","3","5","21","24","","",""
"10739","key"," "," ","16.673509316770172","500","250","psychophysics","85","806721","0.0-85.0","5f4d40ca75b5258bf5af8cca","6213cd978ea0123540d0fc0f","3","0","53","66","","",""
"9747","key"," "," ","16.67329623287664","500","250","psychophysics","86","816471","0.0-86.0","5f4d40ca75b5258bf5af8cca","6213cd978ea0123540d0fc0f","3","5","21","23","","",""
"7090","key"," "," ","16.67353537735828","500","250","psychophysics","87","823565","0.0-87.0","5f4d40ca75b5258bf5af8cca","6213cd978ea0123540d0fc0f","3","0","41","51","","",""
"10492","key"," "," ","16.673387917329073","500","250","psychophysics","88","834060","0.0-88.0","5f4d40ca75b5258bf5af8cca","6213cd978ea0123540d0fc0f","3","5","32","32","","",""
"8667","key"," "," ","16.6734258188823","500","250","psychophysics","89","842731","0.0-89.0","5f4d40ca75b5258bf5af8cca","6213cd978ea0123540d0fc0f","3","0","50","53","","",""
"7199","key"," "," ","16.673502325581463","500","250","psychophysics","90","849933","0.0-90.0","5f4d40ca75b5258bf5af8cca","6213cd978ea0123540d0fc0f","3","5","28","27","","",""
"6856","key"," "," ","16.673598540146095","500","250","psychophysics","91","856795","0.0-91.0","5f4d40ca75b5258bf5af8cca","6213cd978ea0123540d0fc0f","3","0","57","62","","",""
"5540","key"," "," ","16.673484939759238","500","250","psychophysics","92","862339","0.0-92.0","5f4d40ca75b5258bf5af8cca","6213cd978ea0123540d0fc0f","","","","","","",""
"69332","","","v","","","","html-keyboard-response","93","931675","0.0-93.0","5f4d40ca75b5258bf5af8cca","6213cd978ea0123540d0fc0f","","","","","<p> In this part of the experiment, we are going present digits 1, 2, 3, 4, 6, 7, 8, and 9.  Notice that 5 is missing.  Your job is to say whether the presented digit is less than or greater than 5.  For example, 3 is less than 5 and 7 is greater than 5.  If the digit is less than 5, press the v key; if it is greater than 5, press the n key. We are going to do 200 of these in total, but only 50 righ now. They go real fast.</p>  <br><br>  Ready? (press v or n)","",""
"2665","key","v","v","16.657906832297837","500","250","psychophysics","94","934354","0.0-94.0","5f4d40ca75b5258bf5af8cca","6213cd978ea0123540d0fc0f","4","","","","","1","1"
"null","","","null","","","","html-keyboard-response","95","934857","0.0-95.0","5f4d40ca75b5258bf5af8cca","6213cd978ea0123540d0fc0f","","","","","<p style=""color:darkgreen;font-size:24px;"">Correct :)</p>","",""
"2571","key","n","n","16.789333333333595","500","250","psychophysics","96","937431","0.0-96.0","5f4d40ca75b5258bf5af8cca","6213cd978ea0123540d0fc0f","4","","","","","1","6"
"null","","","null","","","","html-keyboard-response","97","937934","0.0-97.0","5f4d40ca75b5258bf5af8cca","6213cd978ea0123540d0fc0f","","","","","<p style=""color:darkgreen;font-size:24px;"">Correct :)</p>","",""
"2556","key","n","n","16.67478431372529","500","250","psychophysics","98","940493","0.0-98.0","5f4d40ca75b5258bf5af8cca","6213cd978ea0123540d0fc0f","4","","","","","1","9"
"null","","","null","","","","html-keyboard-response","99","940995","0.0-99.0","5f4d40ca75b5258bf5af8cca","6213cd978ea0123540d0fc0f","","","","","<p style=""color:darkgreen;font-size:24px;"">Correct :)</p>","",""
"2460","key","n","n","16.676628378378794","500","250","psychophysics","100","943458","0.0-100.0","5f4d40ca75b5258bf5af8cca","6213cd978ea0123540d0fc0f","4","","","","","1","8"
"null","","","null","","","","html-keyboard-response","101","943960","0.0-101.0","5f4d40ca75b5258bf5af8cca","6213cd978ea0123540d0fc0f","","","","","<p style=""color:darkgreen;font-size:24px;"">Correct :)</p>","",""
"2599","key","v","v","16.67599358974332","500","250","psychophysics","102","946563","0.0-102.0","5f4d40ca75b5258bf5af8cca","6213cd978ea0123540d0fc0f","4","","","","","1","2"
"null","","","null","","","","html-keyboard-response","103","947065","0.0-103.0","5f4d40ca75b5258bf5af8cca","6213cd978ea0123540d0fc0f","","","","","<p style=""color:darkgreen;font-size:24px;"">Correct :)</p>","",""
"2532","key","v","v","16.676947368421487","500","250","psychophysics","104","949600","0.0-104.0","5f4d40ca75b5258bf5af8cca","6213cd978ea0123540d0fc0f","4","","","","","1","1"
"null","","","null","","","","html-keyboard-response","105","950101","0.0-105.0","5f4d40ca75b5258bf5af8cca","6213cd978ea0123540d0fc0f","","","","","<p style=""color:darkgreen;font-size:24px;"">Correct :)</p>","",""
"2674","key","n","n","16.679627329192808","500","250","psychophysics","106","952781","0.0-106.0","5f4d40ca75b5258bf5af8cca","6213cd978ea0123540d0fc0f","4","","","","","1","9"
"null","","","null","","","","html-keyboard-response","107","953283","0.0-107.0","5f4d40ca75b5258bf5af8cca","6213cd978ea0123540d0fc0f","","","","","<p style=""color:darkgreen;font-size:24px;"">Correct :)</p>","",""
"2574","key","v","v","16.674025806451155","500","250","psychophysics","108","955861","0.0-108.0","5f4d40ca75b5258bf5af8cca","6213cd978ea0123540d0fc0f","4","","","","","1","2"
"null","","","null","","","","html-keyboard-response","109","956364","0.0-109.0","5f4d40ca75b5258bf5af8cca","6213cd978ea0123540d0fc0f","","","","","<p style=""color:darkgreen;font-size:24px;"">Correct :)</p>","",""
"2687","key","n","n","16.67847826086948","500","250","psychophysics","110","959056","0.0-110.0","5f4d40ca75b5258bf5af8cca","6213cd978ea0123540d0fc0f","4","","","","","1","7"
"null","","","null","","","","html-keyboard-response","111","959557","0.0-111.0","5f4d40ca75b5258bf5af8cca","6213cd978ea0123540d0fc0f","","","","","<p style=""color:darkgreen;font-size:24px;"">Correct :)</p>","",""
"2729","key","n","n","16.679122699386056","500","250","psychophysics","112","962290","0.0-112.0","5f4d40ca75b5258bf5af8cca","6213cd978ea0123540d0fc0f","4","","","","","1","8"
"null","","","null","","","","html-keyboard-response","113","962792","0.0-113.0","5f4d40ca75b5258bf5af8cca","6213cd978ea0123540d0fc0f","","","","","<p style=""color:darkgreen;font-size:24px;"">Correct :)</p>","",""
"2584","key","n","n","16.67808387096776","500","250","psychophysics","114","965381","0.0-114.0","5f4d40ca75b5258bf5af8cca","6213cd978ea0123540d0fc0f","4","","","","","1","8"
"null","","","null","","","","html-keyboard-response","115","965883","0.0-115.0","5f4d40ca75b5258bf5af8cca","6213cd978ea0123540d0fc0f","","","","","<p style=""color:darkgreen;font-size:24px;"">Correct :)</p>","",""
"2614","key","n","n","16.676757961783","500","250","psychophysics","116","968502","0.0-116.0","5f4d40ca75b5258bf5af8cca","6213cd978ea0123540d0fc0f","4","","","","","1","6"
"null","","","null","","","","html-keyboard-response","117","969004","0.0-117.0","5f4d40ca75b5258bf5af8cca","6213cd978ea0123540d0fc0f","","","","","<p style=""color:darkgreen;font-size:24px;"">Correct :)</p>","",""
"2710","key","n","n","16.674165644172287","500","250","psychophysics","118","971718","0.0-118.0","5f4d40ca75b5258bf5af8cca","6213cd978ea0123540d0fc0f","4","","","","","1","7"
"null","","","null","","","","html-keyboard-response","119","972220","0.0-119.0","5f4d40ca75b5258bf5af8cca","6213cd978ea0123540d0fc0f","","","","","<p style=""color:darkgreen;font-size:24px;"">Correct :)</p>","",""
"2528","key","n","n","16.67108552631582","500","250","psychophysics","120","974752","0.0-120.0","5f4d40ca75b5258bf5af8cca","6213cd978ea0123540d0fc0f","4","","","","","1","6"
"null","","","null","","","","html-keyboard-response","121","975255","0.0-121.0","5f4d40ca75b5258bf5af8cca","6213cd978ea0123540d0fc0f","","","","","<p style=""color:darkgreen;font-size:24px;"">Correct :)</p>","",""
"2527","key","n","n","16.67169736842104","500","250","psychophysics","122","977786","0.0-122.0","5f4d40ca75b5258bf5af8cca","6213cd978ea0123540d0fc0f","4","","","","","1","8"
"null","","","null","","","","html-keyboard-response","123","978289","0.0-123.0","5f4d40ca75b5258bf5af8cca","6213cd978ea0123540d0fc0f","","","","","<p style=""color:darkgreen;font-size:24px;"">Correct :)</p>","",""
"2508","key","v","v","16.674353333333663","500","250","psychophysics","124","980802","0.0-124.0","5f4d40ca75b5258bf5af8cca","6213cd978ea0123540d0fc0f","4","","","","","1","1"
"null","","","null","","","","html-keyboard-response","125","981305","0.0-125.0","5f4d40ca75b5258bf5af8cca","6213cd978ea0123540d0fc0f","","","","","<p style=""color:darkgreen;font-size:24px;"">Correct :)</p>","",""
"2688","key","n","n","16.6784161490689","500","250","psychophysics","126","983997","0.0-126.0","5f4d40ca75b5258bf5af8cca","6213cd978ea0123540d0fc0f","4","","","","","1","9"
"null","","","null","","","","html-keyboard-response","127","984498","0.0-127.0","5f4d40ca75b5258bf5af8cca","6213cd978ea0123540d0fc0f","","","","","<p style=""color:darkgreen;font-size:24px;"">Correct :)</p>","",""
"2709","key","n","n","16.677736196318424","500","250","psychophysics","128","987211","0.0-128.0","5f4d40ca75b5258bf5af8cca","6213cd978ea0123540d0fc0f","4","","","","","1","6"
"null","","","null","","","","html-keyboard-response","129","987712","0.0-129.0","5f4d40ca75b5258bf5af8cca","6213cd978ea0123540d0fc0f","","","","","<p style=""color:darkgreen;font-size:24px;"">Correct :)</p>","",""
"2545","key","n","n","16.67451298701299","500","250","psychophysics","130","990276","0.0-130.0","5f4d40ca75b5258bf5af8cca","6213cd978ea0123540d0fc0f","4","","","","","1","7"
"null","","","null","","","","html-keyboard-response","131","990779","0.0-131.0","5f4d40ca75b5258bf5af8cca","6213cd978ea0123540d0fc0f","","","","","<p style=""color:darkgreen;font-size:24px;"">Correct :)</p>","",""
"2548","key","n","n","16.67356209150284","500","250","psychophysics","132","993332","0.0-132.0","5f4d40ca75b5258bf5af8cca","6213cd978ea0123540d0fc0f","4","","","","","1","7"
"null","","","null","","","","html-keyboard-response","133","993833","0.0-133.0","5f4d40ca75b5258bf5af8cca","6213cd978ea0123540d0fc0f","","","","","<p style=""color:darkgreen;font-size:24px;"">Correct :)</p>","",""
"2577","key","v","v","16.679380645161313","500","250","psychophysics","134","996414","0.0-134.0","5f4d40ca75b5258bf5af8cca","6213cd978ea0123540d0fc0f","4","","","","","1","3"
"null","","","null","","","","html-keyboard-response","135","996916","0.0-135.0","5f4d40ca75b5258bf5af8cca","6213cd978ea0123540d0fc0f","","","","","<p style=""color:darkgreen;font-size:24px;"">Correct :)</p>","",""
"2583","key","n","n","16.677587096773898","500","250","psychophysics","136","999503","0.0-136.0","5f4d40ca75b5258bf5af8cca","6213cd978ea0123540d0fc0f","4","","","","","1","8"
"null","","","null","","","","html-keyboard-response","137","1000005","0.0-137.0","5f4d40ca75b5258bf5af8cca","6213cd978ea0123540d0fc0f","","","","","<p style=""color:darkgreen;font-size:24px;"">Correct :)</p>","",""
"2563","key","n","n","16.67762987012975","500","250","psychophysics","138","1002573","0.0-138.0","5f4d40ca75b5258bf5af8cca","6213cd978ea0123540d0fc0f","4","","","","","1","9"
"null","","","null","","","","html-keyboard-response","139","1003075","0.0-139.0","5f4d40ca75b5258bf5af8cca","6213cd978ea0123540d0fc0f","","","","","<p style=""color:darkgreen;font-size:24px;"">Correct :)</p>","",""
"2456","key","n","n","16.66906756756755","500","250","psychophysics","140","1005537","0.0-140.0","5f4d40ca75b5258bf5af8cca","6213cd978ea0123540d0fc0f","4","","","","","1","9"
"null","","","null","","","","html-keyboard-response","141","1006039","0.0-141.0","5f4d40ca75b5258bf5af8cca","6213cd978ea0123540d0fc0f","","","","","<p style=""color:darkgreen;font-size:24px;"">Correct :)</p>","",""
"2673","key","n","n","16.781654088049923","500","250","psychophysics","142","1008716","0.0-142.0","5f4d40ca75b5258bf5af8cca","6213cd978ea0123540d0fc0f","4","","","","","1","6"
"null","","","null","","","","html-keyboard-response","143","1009218","0.0-143.0","5f4d40ca75b5258bf5af8cca","6213cd978ea0123540d0fc0f","","","","","<p style=""color:darkgreen;font-size:24px;"">Correct :)</p>","",""
"3113","key","v","v","16.68014438502692","500","250","psychophysics","144","1012334","0.0-144.0","5f4d40ca75b5258bf5af8cca","6213cd978ea0123540d0fc0f","4","","","","","1","4"
"null","","","null","","","","html-keyboard-response","145","1012837","0.0-145.0","5f4d40ca75b5258bf5af8cca","6213cd978ea0123540d0fc0f","","","","","<p style=""color:darkgreen;font-size:24px;"">Correct :)</p>","",""
"2613","key","v","v","16.674044585986966","500","250","psychophysics","146","1015454","0.0-146.0","5f4d40ca75b5258bf5af8cca","6213cd978ea0123540d0fc0f","4","","","","","1","3"
"null","","","null","","","","html-keyboard-response","147","1015957","0.0-147.0","5f4d40ca75b5258bf5af8cca","6213cd978ea0123540d0fc0f","","","","","<p style=""color:darkgreen;font-size:24px;"">Correct :)</p>","",""
"2498","key","v","v","16.674860000000336","500","250","psychophysics","148","1018459","0.0-148.0","5f4d40ca75b5258bf5af8cca","6213cd978ea0123540d0fc0f","4","","","","","1","3"
"null","","","null","","","","html-keyboard-response","149","1018961","0.0-149.0","5f4d40ca75b5258bf5af8cca","6213cd978ea0123540d0fc0f","","","","","<p style=""color:darkgreen;font-size:24px;"">Correct :)</p>","",""
"2623","key","n","n","16.678348101265847","500","250","psychophysics","150","1021588","0.0-150.0","5f4d40ca75b5258bf5af8cca","6213cd978ea0123540d0fc0f","4","","","","","1","7"
"null","","","null","","","","html-keyboard-response","151","1022090","0.0-151.0","5f4d40ca75b5258bf5af8cca","6213cd978ea0123540d0fc0f","","","","","<p style=""color:darkgreen;font-size:24px;"">Correct :)</p>","",""
"2883","key","n","n","16.674289017340378","500","250","psychophysics","152","1024977","0.0-152.0","5f4d40ca75b5258bf5af8cca","6213cd978ea0123540d0fc0f","4","","","","","1","8"
"null","","","null","","","","html-keyboard-response","153","1025479","0.0-153.0","5f4d40ca75b5258bf5af8cca","6213cd978ea0123540d0fc0f","","","","","<p style=""color:darkgreen;font-size:24px;"">Correct :)</p>","",""
"2567","key","v","v","16.680305194805147","500","250","psychophysics","154","1028050","0.0-154.0","5f4d40ca75b5258bf5af8cca","6213cd978ea0123540d0fc0f","4","","","","","1","2"
"null","","","null","","","","html-keyboard-response","155","1028551","0.0-155.0","5f4d40ca75b5258bf5af8cca","6213cd978ea0123540d0fc0f","","","","","<p style=""color:darkgreen;font-size:24px;"">Correct :)</p>","",""
"2735","key","v","v","16.680060975609926","500","250","psychophysics","156","1031290","0.0-156.0","5f4d40ca75b5258bf5af8cca","6213cd978ea0123540d0fc0f","4","","","","","1","2"
"null","","","null","","","","html-keyboard-response","157","1031792","0.0-157.0","5f4d40ca75b5258bf5af8cca","6213cd978ea0123540d0fc0f","","","","","<p style=""color:darkgreen;font-size:24px;"">Correct :)</p>","",""
"2887","key","n","n","16.67944508670517","500","250","psychophysics","158","1034683","0.0-158.0","5f4d40ca75b5258bf5af8cca","6213cd978ea0123540d0fc0f","4","","","","","1","7"
"null","","","null","","","","html-keyboard-response","159","1035185","0.0-159.0","5f4d40ca75b5258bf5af8cca","6213cd978ea0123540d0fc0f","","","","","<p style=""color:darkgreen;font-size:24px;"">Correct :)</p>","",""
"2610","key","v","v","16.67852866242026","500","250","psychophysics","160","1037799","0.0-160.0","5f4d40ca75b5258bf5af8cca","6213cd978ea0123540d0fc0f","4","","","","","1","1"
"null","","","null","","","","html-keyboard-response","161","1038301","0.0-161.0","5f4d40ca75b5258bf5af8cca","6213cd978ea0123540d0fc0f","","","","","<p style=""color:darkgreen;font-size:24px;"">Correct :)</p>","",""
"2494","key","v","v","16.678513333334124","500","250","psychophysics","162","1040799","0.0-162.0","5f4d40ca75b5258bf5af8cca","6213cd978ea0123540d0fc0f","4","","","","","1","1"
"null","","","null","","","","html-keyboard-response","163","1041302","0.0-163.0","5f4d40ca75b5258bf5af8cca","6213cd978ea0123540d0fc0f","","","","","<p style=""color:darkgreen;font-size:24px;"">Correct :)</p>","",""
"2528","key","n","n","16.675953947369155","500","250","psychophysics","164","1043834","0.0-164.0","5f4d40ca75b5258bf5af8cca","6213cd978ea0123540d0fc0f","4","","","","","1","8"
"null","","","null","","","","html-keyboard-response","165","1044336","0.0-165.0","5f4d40ca75b5258bf5af8cca","6213cd978ea0123540d0fc0f","","","","","<p style=""color:darkgreen;font-size:24px;"">Correct :)</p>","",""
"2728","key","n","n","16.67636585365782","500","250","psychophysics","166","1047067","0.0-166.0","5f4d40ca75b5258bf5af8cca","6213cd978ea0123540d0fc0f","4","","","","","1","8"
"null","","","null","","","","html-keyboard-response","167","1047570","0.0-167.0","5f4d40ca75b5258bf5af8cca","6213cd978ea0123540d0fc0f","","","","","<p style=""color:darkgreen;font-size:24px;"">Correct :)</p>","",""
"2563","key","v","v","16.67450649350694","500","250","psychophysics","168","1050137","0.0-168.0","5f4d40ca75b5258bf5af8cca","6213cd978ea0123540d0fc0f","4","","","","","1","3"
"null","","","null","","","","html-keyboard-response","169","1050639","0.0-169.0","5f4d40ca75b5258bf5af8cca","6213cd978ea0123540d0fc0f","","","","","<p style=""color:darkgreen;font-size:24px;"">Correct :)</p>","",""
"2720","key","v","v","16.677226993865247","500","250","psychophysics","170","1053362","0.0-170.0","5f4d40ca75b5258bf5af8cca","6213cd978ea0123540d0fc0f","4","","","","","1","3"
"null","","","null","","","","html-keyboard-response","171","1053864","0.0-171.0","5f4d40ca75b5258bf5af8cca","6213cd978ea0123540d0fc0f","","","","","<p style=""color:darkgreen;font-size:24px;"">Correct :)</p>","",""
"2588","key","v","v","16.67882580645082","500","250","psychophysics","172","1056456","0.0-172.0","5f4d40ca75b5258bf5af8cca","6213cd978ea0123540d0fc0f","4","","","","","1","2"
"null","","","null","","","","html-keyboard-response","173","1056958","0.0-173.0","5f4d40ca75b5258bf5af8cca","6213cd978ea0123540d0fc0f","","","","","<p style=""color:darkgreen;font-size:24px;"">Correct :)</p>","",""
"2635","key","n","n","16.673303797468247","500","250","psychophysics","174","1059597","0.0-174.0","5f4d40ca75b5258bf5af8cca","6213cd978ea0123540d0fc0f","4","","","","","1","7"
"null","","","null","","","","html-keyboard-response","175","1060099","0.0-175.0","5f4d40ca75b5258bf5af8cca","6213cd978ea0123540d0fc0f","","","","","<p style=""color:darkgreen;font-size:24px;"">Correct :)</p>","",""
"2718","key","n","n","16.679629629630206","500","250","psychophysics","176","1062821","0.0-176.0","5f4d40ca75b5258bf5af8cca","6213cd978ea0123540d0fc0f","4","","","","","1","9"
"null","","","null","","","","html-keyboard-response","177","1063323","0.0-177.0","5f4d40ca75b5258bf5af8cca","6213cd978ea0123540d0fc0f","","","","","<p style=""color:darkgreen;font-size:24px;"">Correct :)</p>","",""
"2949","key","n","n","16.67935593220363","500","250","psychophysics","178","1066276","0.0-178.0","5f4d40ca75b5258bf5af8cca","6213cd978ea0123540d0fc0f","4","","","","","1","7"
"null","","","null","","","","html-keyboard-response","179","1066779","0.0-179.0","5f4d40ca75b5258bf5af8cca","6213cd978ea0123540d0fc0f","","","","","<p style=""color:darkgreen;font-size:24px;"">Correct :)</p>","",""
"2831","key","n","n","16.671729411765494","500","250","psychophysics","180","1069614","0.0-180.0","5f4d40ca75b5258bf5af8cca","6213cd978ea0123540d0fc0f","4","","","","","1","6"
"null","","","null","","","","html-keyboard-response","181","1070116","0.0-181.0","5f4d40ca75b5258bf5af8cca","6213cd978ea0123540d0fc0f","","","","","<p style=""color:darkgreen;font-size:24px;"">Correct :)</p>","",""
"3315","key","n","n","16.678306532663353","500","250","psychophysics","182","1073434","0.0-182.0","5f4d40ca75b5258bf5af8cca","6213cd978ea0123540d0fc0f","4","","","","","1","6"
"null","","","null","","","","html-keyboard-response","183","1073937","0.0-183.0","5f4d40ca75b5258bf5af8cca","6213cd978ea0123540d0fc0f","","","","","<p style=""color:darkgreen;font-size:24px;"">Correct :)</p>","",""
"3127","key","v","v","16.67622872340453","500","250","psychophysics","184","1077067","0.0-184.0","5f4d40ca75b5258bf5af8cca","6213cd978ea0123540d0fc0f","4","","","","","1","1"
"null","","","null","","","","html-keyboard-response","185","1077569","0.0-185.0","5f4d40ca75b5258bf5af8cca","6213cd978ea0123540d0fc0f","","","","","<p style=""color:darkgreen;font-size:24px;"">Correct :)</p>","",""
"3068","key","v","v","16.671027173912","500","250","psychophysics","186","1080640","0.0-186.0","5f4d40ca75b5258bf5af8cca","6213cd978ea0123540d0fc0f","4","","","","","1","2"
"null","","","null","","","","html-keyboard-response","187","1081142","0.0-187.0","5f4d40ca75b5258bf5af8cca","6213cd978ea0123540d0fc0f","","","","","<p style=""color:darkgreen;font-size:24px;"">Correct :)</p>","",""
"2814","key","n","n","16.680702380952425","500","250","psychophysics","188","1083959","0.0-188.0","5f4d40ca75b5258bf5af8cca","6213cd978ea0123540d0fc0f","4","","","","","1","7"
"null","","","null","","","","html-keyboard-response","189","1084462","0.0-189.0","5f4d40ca75b5258bf5af8cca","6213cd978ea0123540d0fc0f","","","","","<p style=""color:darkgreen;font-size:24px;"">Correct :)</p>","",""
"2918","key","n","n","16.772471264368672","500","250","psychophysics","190","1087384","0.0-190.0","5f4d40ca75b5258bf5af8cca","6213cd978ea0123540d0fc0f","4","","","","","1","6"
"null","","","null","","","","html-keyboard-response","191","1087887","0.0-191.0","5f4d40ca75b5258bf5af8cca","6213cd978ea0123540d0fc0f","","","","","<p style=""color:darkgreen;font-size:24px;"">Correct :)</p>","",""
"2818","key","n","n","16.876976047903245","500","250","psychophysics","192","1090709","0.0-192.0","5f4d40ca75b5258bf5af8cca","6213cd978ea0123540d0fc0f","4","","","","","1","9"
"null","","","null","","","","html-keyboard-response","193","1091211","0.0-193.0","5f4d40ca75b5258bf5af8cca","6213cd978ea0123540d0fc0f","","","","","<p style=""color:darkgreen;font-size:24px;"">Correct :)</p>","",""
"23909","","","n","","","","html-keyboard-response","194","1115122","0.0-194.0","5f4d40ca75b5258bf5af8cca","6213cd978ea0123540d0fc0f","","","","","<p> Ok, now we are going present the same digits as before.  Your job is to say whether the digit is even or odd  If the digit is odd, press to v key; if it is even, press the n key. We are going to do 50 of these.  </p>  <br><br>  Ready? (press v or n)","",""
"2958","key","n","n","16.644853932584187","500","250","psychophysics","195","1118085","0.0-195.0","5f4d40ca75b5258bf5af8cca","6213cd978ea0123540d0fc0f","5","","","","","0","6"
"null","","","null","","","","html-keyboard-response","196","1118587","0.0-196.0","5f4d40ca75b5258bf5af8cca","6213cd978ea0123540d0fc0f","","","","","<p style=""color:darkgreen;font-size:24px;"">Correct :)</p>","",""
"3227","key","v","v","16.67672680412328","500","250","psychophysics","197","1121818","0.0-197.0","5f4d40ca75b5258bf5af8cca","6213cd978ea0123540d0fc0f","5","","","","","0","3"
"null","","","null","","","","html-keyboard-response","198","1122320","0.0-198.0","5f4d40ca75b5258bf5af8cca","6213cd978ea0123540d0fc0f","","","","","<p style=""color:darkgreen;font-size:24px;"">Correct :)</p>","",""
"2910","key","n","n","16.675331428571205","500","250","psychophysics","199","1125234","0.0-199.0","5f4d40ca75b5258bf5af8cca","6213cd978ea0123540d0fc0f","5","","","","","0","8"
"null","","","null","","","","html-keyboard-response","200","1125737","0.0-200.0","5f4d40ca75b5258bf5af8cca","6213cd978ea0123540d0fc0f","","","","","<p style=""color:darkgreen;font-size:24px;"">Correct :)</p>","",""
"2649","key","v","v","16.677761006289096","500","250","psychophysics","201","1128389","0.0-201.0","5f4d40ca75b5258bf5af8cca","6213cd978ea0123540d0fc0f","5","","","","","0","3"
"null","","","null","","","","html-keyboard-response","202","1128891","0.0-202.0","5f4d40ca75b5258bf5af8cca","6213cd978ea0123540d0fc0f","","","","","<p style=""color:darkgreen;font-size:24px;"">Correct :)</p>","",""
"2763","key","v","v","16.677445783132566","500","250","psychophysics","203","1131657","0.0-203.0","5f4d40ca75b5258bf5af8cca","6213cd978ea0123540d0fc0f","5","","","","","0","7"
"null","","","null","","","","html-keyboard-response","204","1132159","0.0-204.0","5f4d40ca75b5258bf5af8cca","6213cd978ea0123540d0fc0f","","","","","<p style=""color:darkgreen;font-size:24px;"">Correct :)</p>","",""
"2862","key","v","v","16.67721511627856","500","250","psychophysics","205","1135024","0.0-205.0","5f4d40ca75b5258bf5af8cca","6213cd978ea0123540d0fc0f","5","","","","","0","7"
"null","","","null","","","","html-keyboard-response","206","1135526","0.0-206.0","5f4d40ca75b5258bf5af8cca","6213cd978ea0123540d0fc0f","","","","","<p style=""color:darkgreen;font-size:24px;"">Correct :)</p>","",""
"2687","key","n","n","16.679155279501913","500","250","psychophysics","207","1138217","0.0-207.0","5f4d40ca75b5258bf5af8cca","6213cd978ea0123540d0fc0f","5","","","","","0","6"
"null","","","null","","","","html-keyboard-response","208","1138719","0.0-208.0","5f4d40ca75b5258bf5af8cca","6213cd978ea0123540d0fc0f","","","","","<p style=""color:darkgreen;font-size:24px;"">Correct :)</p>","",""
"2717","key","v","v","16.67510429447934","500","250","psychophysics","209","1141440","0.0-209.0","5f4d40ca75b5258bf5af8cca","6213cd978ea0123540d0fc0f","5","","","","","0","3"
"null","","","null","","","","html-keyboard-response","210","1141942","0.0-210.0","5f4d40ca75b5258bf5af8cca","6213cd978ea0123540d0fc0f","","","","","<p style=""color:darkgreen;font-size:24px;"">Correct :)</p>","",""
"2818","key","v","v","16.67573964497014","500","250","psychophysics","211","1144764","0.0-211.0","5f4d40ca75b5258bf5af8cca","6213cd978ea0123540d0fc0f","5","","","","","0","3"
"null","","","null","","","","html-keyboard-response","212","1145265","0.0-212.0","5f4d40ca75b5258bf5af8cca","6213cd978ea0123540d0fc0f","","","","","<p style=""color:darkgreen;font-size:24px;"">Correct :)</p>","",""
"3128","key","n","n","16.679808510638317","500","250","psychophysics","213","1148398","0.0-213.0","5f4d40ca75b5258bf5af8cca","6213cd978ea0123540d0fc0f","5","","","","","0","4"
"null","","","null","","","","html-keyboard-response","214","1148899","0.0-214.0","5f4d40ca75b5258bf5af8cca","6213cd978ea0123540d0fc0f","","","","","<p style=""color:darkgreen;font-size:24px;"">Correct :)</p>","",""
"2695","key","v","v","16.67387654320883","500","250","psychophysics","215","1151599","0.0-215.0","5f4d40ca75b5258bf5af8cca","6213cd978ea0123540d0fc0f","5","","","","","0","1"
"null","","","null","","","","html-keyboard-response","216","1152100","0.0-216.0","5f4d40ca75b5258bf5af8cca","6213cd978ea0123540d0fc0f","","","","","<p style=""color:darkgreen;font-size:24px;"">Correct :)</p>","",""
"2602","key","v","v","16.67418589743708","500","250","psychophysics","217","1154706","0.0-217.0","5f4d40ca75b5258bf5af8cca","6213cd978ea0123540d0fc0f","5","","","","","0","3"
"null","","","null","","","","html-keyboard-response","218","1155209","0.0-218.0","5f4d40ca75b5258bf5af8cca","6213cd978ea0123540d0fc0f","","","","","<p style=""color:darkgreen;font-size:24px;"">Correct :)</p>","",""
"2855","key","v","v","16.67847368421104","500","250","psychophysics","219","1158068","0.0-219.0","5f4d40ca75b5258bf5af8cca","6213cd978ea0123540d0fc0f","5","","","","","0","7"
"null","","","null","","","","html-keyboard-response","220","1158570","0.0-220.0","5f4d40ca75b5258bf5af8cca","6213cd978ea0123540d0fc0f","","","","","<p style=""color:darkgreen;font-size:24px;"">Correct :)</p>","",""
"3083","key","n","n","16.677005405405637","500","250","psychophysics","221","1161657","0.0-221.0","5f4d40ca75b5258bf5af8cca","6213cd978ea0123540d0fc0f","5","","","","","0","2"
"null","","","null","","","","html-keyboard-response","222","1162158","0.0-222.0","5f4d40ca75b5258bf5af8cca","6213cd978ea0123540d0fc0f","","","","","<p style=""color:darkgreen;font-size:24px;"">Correct :)</p>","",""
"2848","key","v","v","16.67136257309984","500","250","psychophysics","223","1165010","0.0-223.0","5f4d40ca75b5258bf5af8cca","6213cd978ea0123540d0fc0f","5","","","","","0","9"
"null","","","null","","","","html-keyboard-response","224","1165511","0.0-224.0","5f4d40ca75b5258bf5af8cca","6213cd978ea0123540d0fc0f","","","","","<p style=""color:darkgreen;font-size:24px;"">Correct :)</p>","",""
"2660","key","v","v","16.673779874214166","500","250","psychophysics","225","1168175","0.0-225.0","5f4d40ca75b5258bf5af8cca","6213cd978ea0123540d0fc0f","5","","","","","0","1"
"null","","","null","","","","html-keyboard-response","226","1168676","0.0-226.0","5f4d40ca75b5258bf5af8cca","6213cd978ea0123540d0fc0f","","","","","<p style=""color:darkgreen;font-size:24px;"">Correct :)</p>","",""
"2679","key","v","v","16.678670807452352","500","250","psychophysics","227","1171360","0.0-227.0","5f4d40ca75b5258bf5af8cca","6213cd978ea0123540d0fc0f","5","","","","","0","1"
"null","","","null","","","","html-keyboard-response","228","1171862","0.0-228.0","5f4d40ca75b5258bf5af8cca","6213cd978ea0123540d0fc0f","","","","","<p style=""color:darkgreen;font-size:24px;"">Correct :)</p>","",""
"2893","key","n","n","16.674448275862357","500","250","psychophysics","229","1174760","0.0-229.0","5f4d40ca75b5258bf5af8cca","6213cd978ea0123540d0fc0f","5","","","","","0","2"
"null","","","null","","","","html-keyboard-response","230","1175263","0.0-230.0","5f4d40ca75b5258bf5af8cca","6213cd978ea0123540d0fc0f","","","","","<p style=""color:darkgreen;font-size:24px;"">Correct :)</p>","",""
"3127","key","v","v","16.67429255319145","500","250","psychophysics","231","1178393","0.0-231.0","5f4d40ca75b5258bf5af8cca","6213cd978ea0123540d0fc0f","5","","","","","0","3"
"null","","","null","","","","html-keyboard-response","232","1178895","0.0-232.0","5f4d40ca75b5258bf5af8cca","6213cd978ea0123540d0fc0f","","","","","<p style=""color:darkgreen;font-size:24px;"">Correct :)</p>","",""
"3090","key","n","n","16.67803763440855","500","250","psychophysics","233","1181991","0.0-233.0","5f4d40ca75b5258bf5af8cca","6213cd978ea0123540d0fc0f","5","","","","","0","6"
"null","","","null","","","","html-keyboard-response","234","1182493","0.0-234.0","5f4d40ca75b5258bf5af8cca","6213cd978ea0123540d0fc0f","","","","","<p style=""color:darkgreen;font-size:24px;"">Correct :)</p>","",""
"3032","key","n","n","16.67870879120828","500","250","psychophysics","235","1185529","0.0-235.0","5f4d40ca75b5258bf5af8cca","6213cd978ea0123540d0fc0f","5","","","","","0","2"
"null","","","null","","","","html-keyboard-response","236","1186031","0.0-236.0","5f4d40ca75b5258bf5af8cca","6213cd978ea0123540d0fc0f","","","","","<p style=""color:darkgreen;font-size:24px;"">Correct :)</p>","",""
"2798","key","v","v","16.679005952381495","500","250","psychophysics","237","1188833","0.0-237.0","5f4d40ca75b5258bf5af8cca","6213cd978ea0123540d0fc0f","5","","","","","0","9"
"null","","","null","","","","html-keyboard-response","238","1189334","0.0-238.0","5f4d40ca75b5258bf5af8cca","6213cd978ea0123540d0fc0f","","","","","<p style=""color:darkgreen;font-size:24px;"">Correct :)</p>","",""
"3172","key","v","v","16.67588947368418","500","250","psychophysics","239","1192510","0.0-239.0","5f4d40ca75b5258bf5af8cca","6213cd978ea0123540d0fc0f","5","","","","","0","7"
"null","","","null","","","","html-keyboard-response","240","1193012","0.0-240.0","5f4d40ca75b5258bf5af8cca","6213cd978ea0123540d0fc0f","","","","","<p style=""color:darkgreen;font-size:24px;"">Correct :)</p>","",""
"2684","key","v","v","16.677701863353228","500","250","psychophysics","241","1195699","0.0-241.0","5f4d40ca75b5258bf5af8cca","6213cd978ea0123540d0fc0f","5","","","","","0","1"
"null","","","null","","","","html-keyboard-response","242","1196201","0.0-242.0","5f4d40ca75b5258bf5af8cca","6213cd978ea0123540d0fc0f","","","","","<p style=""color:darkgreen;font-size:24px;"">Correct :)</p>","",""
"2609","key","v","v","16.67970700636892","500","250","psychophysics","243","1198813","0.0-243.0","5f4d40ca75b5258bf5af8cca","6213cd978ea0123540d0fc0f","5","","","","","0","3"
"null","","","null","","","","html-keyboard-response","244","1199316","0.0-244.0","5f4d40ca75b5258bf5af8cca","6213cd978ea0123540d0fc0f","","","","","<p style=""color:darkgreen;font-size:24px;"">Correct :)</p>","",""
"3278","key","v","v","16.67426395939006","500","250","psychophysics","245","1202598","0.0-245.0","5f4d40ca75b5258bf5af8cca","6213cd978ea0123540d0fc0f","5","","","","","0","7"
"null","","","null","","","","html-keyboard-response","246","1203101","0.0-246.0","5f4d40ca75b5258bf5af8cca","6213cd978ea0123540d0fc0f","","","","","<p style=""color:darkgreen;font-size:24px;"">Correct :)</p>","",""
"2606","key","v","v","16.675615384615064","500","250","psychophysics","247","1205711","0.0-247.0","5f4d40ca75b5258bf5af8cca","6213cd978ea0123540d0fc0f","5","","","","","0","7"
"null","","","null","","","","html-keyboard-response","248","1206212","0.0-248.0","5f4d40ca75b5258bf5af8cca","6213cd978ea0123540d0fc0f","","","","","<p style=""color:darkgreen;font-size:24px;"">Correct :)</p>","",""
"3028","key","n","n","16.679734806629227","500","250","psychophysics","249","1209244","0.0-249.0","5f4d40ca75b5258bf5af8cca","6213cd978ea0123540d0fc0f","5","","","","","0","6"
"null","","","null","","","","html-keyboard-response","250","1209746","0.0-250.0","5f4d40ca75b5258bf5af8cca","6213cd978ea0123540d0fc0f","","","","","<p style=""color:darkgreen;font-size:24px;"">Correct :)</p>","",""
"2833","key","v","v","16.67958579881712","500","250","psychophysics","251","1212583","0.0-251.0","5f4d40ca75b5258bf5af8cca","6213cd978ea0123540d0fc0f","5","","","","","0","7"
"null","","","null","","","","html-keyboard-response","252","1213084","0.0-252.0","5f4d40ca75b5258bf5af8cca","6213cd978ea0123540d0fc0f","","","","","<p style=""color:darkgreen;font-size:24px;"">Correct :)</p>","",""
"2685","key","v","v","16.673006211180436","500","250","psychophysics","253","1215774","0.0-253.0","5f4d40ca75b5258bf5af8cca","6213cd978ea0123540d0fc0f","5","","","","","0","3"
"null","","","null","","","","html-keyboard-response","254","1216275","0.0-254.0","5f4d40ca75b5258bf5af8cca","6213cd978ea0123540d0fc0f","","","","","<p style=""color:darkgreen;font-size:24px;"">Correct :)</p>","",""
"2724","key","v","v","16.670601226995053","500","250","psychophysics","255","1219003","0.0-255.0","5f4d40ca75b5258bf5af8cca","6213cd978ea0123540d0fc0f","5","","","","","0","1"
"null","","","null","","","","html-keyboard-response","256","1219505","0.0-256.0","5f4d40ca75b5258bf5af8cca","6213cd978ea0123540d0fc0f","","","","","<p style=""color:darkgreen;font-size:24px;"">Correct :)</p>","",""
"2776","key","n","n","16.677090361446467","500","250","psychophysics","257","1222285","0.0-257.0","5f4d40ca75b5258bf5af8cca","6213cd978ea0123540d0fc0f","5","","","","","0","8"
"null","","","null","","","","html-keyboard-response","258","1222788","0.0-258.0","5f4d40ca75b5258bf5af8cca","6213cd978ea0123540d0fc0f","","","","","<p style=""color:darkgreen;font-size:24px;"">Correct :)</p>","",""
"2799","key","v","v","16.676279761904706","500","250","psychophysics","259","1225591","0.0-259.0","5f4d40ca75b5258bf5af8cca","6213cd978ea0123540d0fc0f","5","","","","","0","9"
"null","","","null","","","","html-keyboard-response","260","1226095","0.0-260.0","5f4d40ca75b5258bf5af8cca","6213cd978ea0123540d0fc0f","","","","","<p style=""color:darkgreen;font-size:24px;"">Correct :)</p>","",""
"2731","key","v","v","16.676396341463438","500","250","psychophysics","261","1228830","0.0-261.0","5f4d40ca75b5258bf5af8cca","6213cd978ea0123540d0fc0f","5","","","","","0","9"
"null","","","null","","","","html-keyboard-response","262","1229332","0.0-262.0","5f4d40ca75b5258bf5af8cca","6213cd978ea0123540d0fc0f","","","","","<p style=""color:darkgreen;font-size:24px;"">Correct :)</p>","",""
"2900","key","v","v","16.678097701149767","500","250","psychophysics","263","1232235","0.0-263.0","5f4d40ca75b5258bf5af8cca","6213cd978ea0123540d0fc0f","5","","","","","0","3"
"null","","","null","","","","html-keyboard-response","264","1232738","0.0-264.0","5f4d40ca75b5258bf5af8cca","6213cd978ea0123540d0fc0f","","","","","<p style=""color:darkgreen;font-size:24px;"">Correct :)</p>","",""
"2639","key","v","v","16.674062893081622","500","250","psychophysics","265","1235381","0.0-265.0","5f4d40ca75b5258bf5af8cca","6213cd978ea0123540d0fc0f","5","","","","","0","1"
"null","","","null","","","","html-keyboard-response","266","1235883","0.0-266.0","5f4d40ca75b5258bf5af8cca","6213cd978ea0123540d0fc0f","","","","","<p style=""color:darkgreen;font-size:24px;"">Correct :)</p>","",""
"2637","key","v","v","16.67458227847974","500","250","psychophysics","267","1238524","0.0-267.0","5f4d40ca75b5258bf5af8cca","6213cd978ea0123540d0fc0f","5","","","","","0","1"
"null","","","null","","","","html-keyboard-response","268","1239026","0.0-268.0","5f4d40ca75b5258bf5af8cca","6213cd978ea0123540d0fc0f","","","","","<p style=""color:darkgreen;font-size:24px;"">Correct :)</p>","",""
"2525","key","v","v","16.679801324502694","500","250","psychophysics","269","1241554","0.0-269.0","5f4d40ca75b5258bf5af8cca","6213cd978ea0123540d0fc0f","5","","","","","0","1"
"null","","","null","","","","html-keyboard-response","270","1242056","0.0-270.0","5f4d40ca75b5258bf5af8cca","6213cd978ea0123540d0fc0f","","","","","<p style=""color:darkgreen;font-size:24px;"">Correct :)</p>","",""
"3431","key","v","v","16.676567961165716","500","250","psychophysics","271","1245490","0.0-271.0","5f4d40ca75b5258bf5af8cca","6213cd978ea0123540d0fc0f","5","","","","","0","7"
"null","","","null","","","","html-keyboard-response","272","1245992","0.0-272.0","5f4d40ca75b5258bf5af8cca","6213cd978ea0123540d0fc0f","","","","","<p style=""color:darkgreen;font-size:24px;"">Correct :)</p>","",""
"3158","key","n","n","16.67166842105308","500","250","psychophysics","273","1249154","0.0-273.0","5f4d40ca75b5258bf5af8cca","6213cd978ea0123540d0fc0f","5","","","","","0","6"
"null","","","null","","","","html-keyboard-response","274","1249655","0.0-274.0","5f4d40ca75b5258bf5af8cca","6213cd978ea0123540d0fc0f","","","","","<p style=""color:darkgreen;font-size:24px;"">Correct :)</p>","",""
"2810","key","v","v","16.675420118344274","500","250","psychophysics","275","1252468","0.0-275.0","5f4d40ca75b5258bf5af8cca","6213cd978ea0123540d0fc0f","5","","","","","0","9"
"null","","","null","","","","html-keyboard-response","276","1252971","0.0-276.0","5f4d40ca75b5258bf5af8cca","6213cd978ea0123540d0fc0f","","","","","<p style=""color:darkgreen;font-size:24px;"">Correct :)</p>","",""
"2759","key","v","v","16.67654545454619","500","250","psychophysics","277","1255734","0.0-277.0","5f4d40ca75b5258bf5af8cca","6213cd978ea0123540d0fc0f","5","","","","","0","1"
"null","","","null","","","","html-keyboard-response","278","1256237","0.0-278.0","5f4d40ca75b5258bf5af8cca","6213cd978ea0123540d0fc0f","","","","","<p style=""color:darkgreen;font-size:24px;"">Correct :)</p>","",""
"2789","key","v","v","16.67501796407257","500","250","psychophysics","279","1259030","0.0-279.0","5f4d40ca75b5258bf5af8cca","6213cd978ea0123540d0fc0f","5","","","","","0","9"
"null","","","null","","","","html-keyboard-response","280","1259532","0.0-280.0","5f4d40ca75b5258bf5af8cca","6213cd978ea0123540d0fc0f","","","","","<p style=""color:darkgreen;font-size:24px;"">Correct :)</p>","",""
"2803","key","v","v","16.679029585799125","500","250","psychophysics","281","1262339","0.0-281.0","5f4d40ca75b5258bf5af8cca","6213cd978ea0123540d0fc0f","5","","","","","0","3"
"null","","","null","","","","html-keyboard-response","282","1262842","0.0-282.0","5f4d40ca75b5258bf5af8cca","6213cd978ea0123540d0fc0f","","","","","<p style=""color:darkgreen;font-size:24px;"">Correct :)</p>","",""
"3288","key","n","n","16.67326903553339","500","250","psychophysics","283","1266133","0.0-283.0","5f4d40ca75b5258bf5af8cca","6213cd978ea0123540d0fc0f","5","","","","","0","8"
"null","","","null","","","","html-keyboard-response","284","1266635","0.0-284.0","5f4d40ca75b5258bf5af8cca","6213cd978ea0123540d0fc0f","","","","","<p style=""color:darkgreen;font-size:24px;"">Correct :)</p>","",""
"2652","key","v","v","16.678955974842204","500","250","psychophysics","285","1269290","0.0-285.0","5f4d40ca75b5258bf5af8cca","6213cd978ea0123540d0fc0f","5","","","","","0","3"
"null","","","null","","","","html-keyboard-response","286","1269793","0.0-286.0","5f4d40ca75b5258bf5af8cca","6213cd978ea0123540d0fc0f","","","","","<p style=""color:darkgreen;font-size:24px;"">Correct :)</p>","",""
"3086","key","n","n","16.678086486486468","500","250","psychophysics","287","1272882","0.0-287.0","5f4d40ca75b5258bf5af8cca","6213cd978ea0123540d0fc0f","5","","","","","0","2"
"null","","","null","","","","html-keyboard-response","288","1273384","0.0-288.0","5f4d40ca75b5258bf5af8cca","6213cd978ea0123540d0fc0f","","","","","<p style=""color:darkgreen;font-size:24px;"">Correct :)</p>","",""
"2643","key","n","n","16.67843396226442","500","250","psychophysics","289","1276031","0.0-289.0","5f4d40ca75b5258bf5af8cca","6213cd978ea0123540d0fc0f","5","","","","","0","2"
"null","","","null","","","","html-keyboard-response","290","1276533","0.0-290.0","5f4d40ca75b5258bf5af8cca","6213cd978ea0123540d0fc0f","","","","","<p style=""color:darkgreen;font-size:24px;"">Correct :)</p>","",""
"2683","key","n","n","16.68029192546585","500","250","psychophysics","291","1279220","0.0-291.0","5f4d40ca75b5258bf5af8cca","6213cd978ea0123540d0fc0f","5","","","","","0","8"
"null","","","null","","","","html-keyboard-response","292","1279721","0.0-292.0","5f4d40ca75b5258bf5af8cca","6213cd978ea0123540d0fc0f","","","","","<p style=""color:darkgreen;font-size:24px;"">Correct :)</p>","",""
"3448","key","v","v","16.678086956522026","500","250","psychophysics","293","1283173","0.0-293.0","5f4d40ca75b5258bf5af8cca","6213cd978ea0123540d0fc0f","5","","","","","0","7"
"null","","","null","","","","html-keyboard-response","294","1283675","0.0-294.0","5f4d40ca75b5258bf5af8cca","6213cd978ea0123540d0fc0f","","","","","<p style=""color:darkgreen;font-size:24px;"">Correct :)</p>","",""
"25385","","","v","","","","html-keyboard-response","295","1309063","0.0-295.0","5f4d40ca75b5258bf5af8cca","6213cd978ea0123540d0fc0f","","","","","<p> Here, the tasks are going to switch.  For some trials, your job is to decide if the digit is less than or greater than 5.  For others, it is to decide if the digit is even or odd.  You will be told which type of trial the current one is.  But, pay attention, the type of trial changes too.  We are going to do 50 of these.  </p>  <br><br>  Ready? (press v or n)","",""
"3838","key","v","v","16.689621739129983","500","250","psychophysics","296","1312905","0.0-296.0","5f4d40ca75b5258bf5af8cca","6213cd978ea0123540d0fc0f","6","","","","","1","4"
"null","","","null","","","","html-keyboard-response","297","1313407","0.0-297.0","5f4d40ca75b5258bf5af8cca","6213cd978ea0123540d0fc0f","","","","","<p style=""color:darkgreen;font-size:24px;"">Correct :)</p>","",""
"3111","key","v","v","16.67675806451664","500","250","psychophysics","298","1316522","0.0-298.0","5f4d40ca75b5258bf5af8cca","6213cd978ea0123540d0fc0f","6","","","","","0","7"
"null","","","null","","","","html-keyboard-response","299","1317024","0.0-299.0","5f4d40ca75b5258bf5af8cca","6213cd978ea0123540d0fc0f","","","","","<p style=""color:darkgreen;font-size:24px;"">Correct :)</p>","",""
"3105","key","n","n","16.671935828877015","500","250","psychophysics","300","1320133","0.0-300.0","5f4d40ca75b5258bf5af8cca","6213cd978ea0123540d0fc0f","6","","","","","0","6"
"null","","","null","","","","html-keyboard-response","301","1320636","0.0-301.0","5f4d40ca75b5258bf5af8cca","6213cd978ea0123540d0fc0f","","","","","<p style=""color:darkgreen;font-size:24px;"">Correct :)</p>","",""
"2829","key","n","n","16.673788235294086","500","250","psychophysics","302","1323469","0.0-302.0","5f4d40ca75b5258bf5af8cca","6213cd978ea0123540d0fc0f","6","","","","","0","4"
"null","","","null","","","","html-keyboard-response","303","1323971","0.0-303.0","5f4d40ca75b5258bf5af8cca","6213cd978ea0123540d0fc0f","","","","","<p style=""color:darkgreen;font-size:24px;"">Correct :)</p>","",""
"2565","key","n","n","16.67437662337695","500","250","psychophysics","304","1326539","0.0-304.0","5f4d40ca75b5258bf5af8cca","6213cd978ea0123540d0fc0f","6","","","","","1","6"
"null","","","null","","","","html-keyboard-response","305","1327041","0.0-305.0","5f4d40ca75b5258bf5af8cca","6213cd978ea0123540d0fc0f","","","","","<p style=""color:darkgreen;font-size:24px;"">Correct :)</p>","",""
"3115","key","v","v","16.855599999999175","500","250","psychophysics","306","1330161","0.0-306.0","5f4d40ca75b5258bf5af8cca","6213cd978ea0123540d0fc0f","6","","","","","0","3"
"null","","","null","","","","html-keyboard-response","307","1330663","0.0-307.0","5f4d40ca75b5258bf5af8cca","6213cd978ea0123540d0fc0f","","","","","<p style=""color:darkgreen;font-size:24px;"">Correct :)</p>","",""
"2652","key","n","n","16.676693749999686","500","250","psychophysics","308","1333318","0.0-308.0","5f4d40ca75b5258bf5af8cca","6213cd978ea0123540d0fc0f","6","","","","","1","9"
"null","","","null","","","","html-keyboard-response","309","1333821","0.0-309.0","5f4d40ca75b5258bf5af8cca","6213cd978ea0123540d0fc0f","","","","","<p style=""color:darkgreen;font-size:24px;"">Correct :)</p>","",""
"3098","key","v","v","16.67555376344175","500","250","psychophysics","310","1336923","0.0-310.0","5f4d40ca75b5258bf5af8cca","6213cd978ea0123540d0fc0f","6","","","","","0","1"
"null","","","null","","","","html-keyboard-response","311","1337426","0.0-311.0","5f4d40ca75b5258bf5af8cca","6213cd978ea0123540d0fc0f","","","","","<p style=""color:darkgreen;font-size:24px;"">Correct :)</p>","",""
"3271","key","n","n","16.67677551020431","500","250","psychophysics","312","1340701","0.0-312.0","5f4d40ca75b5258bf5af8cca","6213cd978ea0123540d0fc0f","6","","","","","1","9"
"null","","","null","","","","html-keyboard-response","313","1341204","0.0-313.0","5f4d40ca75b5258bf5af8cca","6213cd978ea0123540d0fc0f","","","","","<p style=""color:darkgreen;font-size:24px;"">Correct :)</p>","",""
"3320","key","n","n","16.67840703517601","500","250","psychophysics","314","1344528","0.0-314.0","5f4d40ca75b5258bf5af8cca","6213cd978ea0123540d0fc0f","6","","","","","0","2"
"null","","","null","","","","html-keyboard-response","315","1345030","0.0-315.0","5f4d40ca75b5258bf5af8cca","6213cd978ea0123540d0fc0f","","","","","<p style=""color:darkgreen;font-size:24px;"">Correct :)</p>","",""
"2674","key","v","v","16.67509316770296","500","250","psychophysics","316","1347708","0.0-316.0","5f4d40ca75b5258bf5af8cca","6213cd978ea0123540d0fc0f","6","","","","","1","4"
"null","","","null","","","","html-keyboard-response","317","1348211","0.0-317.0","5f4d40ca75b5258bf5af8cca","6213cd978ea0123540d0fc0f","","","","","<p style=""color:darkgreen;font-size:24px;"">Correct :)</p>","",""
"3202","key","n","n","16.67353125000106","500","250","psychophysics","318","1351416","0.0-318.0","5f4d40ca75b5258bf5af8cca","6213cd978ea0123540d0fc0f","6","","","","","0","2"
"null","","","null","","","","html-keyboard-response","319","1351918","0.0-319.0","5f4d40ca75b5258bf5af8cca","6213cd978ea0123540d0fc0f","","","","","<p style=""color:darkgreen;font-size:24px;"">Correct :)</p>","",""
"2874","key","v","v","16.680473988439694","500","250","psychophysics","320","1354795","0.0-320.0","5f4d40ca75b5258bf5af8cca","6213cd978ea0123540d0fc0f","6","","","","","1","2"
"null","","","null","","","","html-keyboard-response","321","1355298","0.0-321.0","5f4d40ca75b5258bf5af8cca","6213cd978ea0123540d0fc0f","","","","","<p style=""color:darkgreen;font-size:24px;"">Correct :)</p>","",""
"2614","key","n","n","16.67646496815334","500","250","psychophysics","322","1357915","0.0-322.0","5f4d40ca75b5258bf5af8cca","6213cd978ea0123540d0fc0f","6","","","","","1","9"
"null","","","null","","","","html-keyboard-response","323","1358417","0.0-323.0","5f4d40ca75b5258bf5af8cca","6213cd978ea0123540d0fc0f","","","","","<p style=""color:darkgreen;font-size:24px;"">Correct :)</p>","",""
"2826","key","v","v","16.67618235294187","500","250","psychophysics","324","1361248","0.0-324.0","5f4d40ca75b5258bf5af8cca","6213cd978ea0123540d0fc0f","6","","","","","0","3"
"null","","","null","","","","html-keyboard-response","325","1361749","0.0-325.0","5f4d40ca75b5258bf5af8cca","6213cd978ea0123540d0fc0f","","","","","<p style=""color:darkgreen;font-size:24px;"">Correct :)</p>","",""
"2755","key","v","v","16.673872727272805","500","250","psychophysics","326","1364508","0.0-326.0","5f4d40ca75b5258bf5af8cca","6213cd978ea0123540d0fc0f","6","","","","","1","2"
"null","","","null","","","","html-keyboard-response","327","1365009","0.0-327.0","5f4d40ca75b5258bf5af8cca","6213cd978ea0123540d0fc0f","","","","","<p style=""color:darkgreen;font-size:24px;"">Correct :)</p>","",""
"2761","key","n","n","16.676445783132756","500","250","psychophysics","328","1367775","0.0-328.0","5f4d40ca75b5258bf5af8cca","6213cd978ea0123540d0fc0f","6","","","","","1","8"
"null","","","null","","","","html-keyboard-response","329","1368276","0.0-329.0","5f4d40ca75b5258bf5af8cca","6213cd978ea0123540d0fc0f","","","","","<p style=""color:darkgreen;font-size:24px;"">Correct :)</p>","",""
"2652","key","v","v","16.67318238993761","500","250","psychophysics","330","1370934","0.0-330.0","5f4d40ca75b5258bf5af8cca","6213cd978ea0123540d0fc0f","6","","","","","0","1"
"null","","","null","","","","html-keyboard-response","331","1371435","0.0-331.0","5f4d40ca75b5258bf5af8cca","6213cd978ea0123540d0fc0f","","","","","<p style=""color:darkgreen;font-size:24px;"">Correct :)</p>","",""
"2698","key","n","n","16.678975308641654","500","250","psychophysics","332","1374137","0.0-332.0","5f4d40ca75b5258bf5af8cca","6213cd978ea0123540d0fc0f","6","","","","","0","6"
"null","","","null","","","","html-keyboard-response","333","1374639","0.0-333.0","5f4d40ca75b5258bf5af8cca","6213cd978ea0123540d0fc0f","","","","","<p style=""color:darkgreen;font-size:24px;"">Correct :)</p>","",""
"2834","key","v","v","16.678482352940858","500","250","psychophysics","334","1377478","0.0-334.0","5f4d40ca75b5258bf5af8cca","6213cd978ea0123540d0fc0f","6","","","","","0","3"
"null","","","null","","","","html-keyboard-response","335","1377979","0.0-335.0","5f4d40ca75b5258bf5af8cca","6213cd978ea0123540d0fc0f","","","","","<p style=""color:darkgreen;font-size:24px;"">Correct :)</p>","",""
"2568","key","v","v","16.679538961038805","500","250","psychophysics","336","1380551","0.0-336.0","5f4d40ca75b5258bf5af8cca","6213cd978ea0123540d0fc0f","6","","","","","0","3"
"null","","","null","","","","html-keyboard-response","337","1381054","0.0-337.0","5f4d40ca75b5258bf5af8cca","6213cd978ea0123540d0fc0f","","","","","<p style=""color:darkgreen;font-size:24px;"">Correct :)</p>","",""
"2511","key","v","v","16.6803800000002","500","250","psychophysics","338","1383569","0.0-338.0","5f4d40ca75b5258bf5af8cca","6213cd978ea0123540d0fc0f","6","","","","","0","3"
"null","","","null","","","","html-keyboard-response","339","1384070","0.0-339.0","5f4d40ca75b5258bf5af8cca","6213cd978ea0123540d0fc0f","","","","","<p style=""color:darkgreen;font-size:24px;"">Correct :)</p>","",""
"2610","key","v","v","16.678551282051604","500","250","psychophysics","340","1386684","0.0-340.0","5f4d40ca75b5258bf5af8cca","6213cd978ea0123540d0fc0f","6","","","","","0","3"
"null","","","null","","","","html-keyboard-response","341","1387186","0.0-341.0","5f4d40ca75b5258bf5af8cca","6213cd978ea0123540d0fc0f","","","","","<p style=""color:darkgreen;font-size:24px;"">Correct :)</p>","",""
"2763","key","v","v","16.676192771083766","500","250","psychophysics","342","1389953","0.0-342.0","5f4d40ca75b5258bf5af8cca","6213cd978ea0123540d0fc0f","6","","","","","0","1"
"null","","","null","","","","html-keyboard-response","343","1390454","0.0-343.0","5f4d40ca75b5258bf5af8cca","6213cd978ea0123540d0fc0f","","","","","<p style=""color:darkgreen;font-size:24px;"">Correct :)</p>","",""
"2827","key","n","n","16.673229411764837","500","250","psychophysics","344","1393286","0.0-344.0","5f4d40ca75b5258bf5af8cca","6213cd978ea0123540d0fc0f","6","","","","","0","9"
"null","","","null","","","","html-keyboard-response","345","1393787","0.0-345.0","5f4d40ca75b5258bf5af8cca","6213cd978ea0123540d0fc0f","","","","","<p style=""color:red;font-size:24px;"">Error :(</p>","",""
"3973","key","n","n","16.67257322175779","500","250","psychophysics","346","1397764","0.0-346.0","5f4d40ca75b5258bf5af8cca","6213cd978ea0123540d0fc0f","6","","","","","1","8"
"null","","","null","","","","html-keyboard-response","347","1398266","0.0-347.0","5f4d40ca75b5258bf5af8cca","6213cd978ea0123540d0fc0f","","","","","<p style=""color:darkgreen;font-size:24px;"">Correct :)</p>","",""
"2845","key","n","n","16.66986549707614","500","250","psychophysics","348","1401115","0.0-348.0","5f4d40ca75b5258bf5af8cca","6213cd978ea0123540d0fc0f","6","","","","","0","8"
"null","","","null","","","","html-keyboard-response","349","1401618","0.0-349.0","5f4d40ca75b5258bf5af8cca","6213cd978ea0123540d0fc0f","","","","","<p style=""color:darkgreen;font-size:24px;"">Correct :)</p>","",""
"2635","key","v","v","16.673791139240706","500","250","psychophysics","350","1404257","0.0-350.0","5f4d40ca75b5258bf5af8cca","6213cd978ea0123540d0fc0f","6","","","","","1","1"
"null","","","null","","","","html-keyboard-response","351","1404759","0.0-351.0","5f4d40ca75b5258bf5af8cca","6213cd978ea0123540d0fc0f","","","","","<p style=""color:darkgreen;font-size:24px;"">Correct :)</p>","",""
"2794","key","n","n","16.68004166666651","500","250","psychophysics","352","1407558","0.0-352.0","5f4d40ca75b5258bf5af8cca","6213cd978ea0123540d0fc0f","6","","","","","0","2"
"null","","","null","","","","html-keyboard-response","353","1408060","0.0-353.0","5f4d40ca75b5258bf5af8cca","6213cd978ea0123540d0fc0f","","","","","<p style=""color:darkgreen;font-size:24px;"">Correct :)</p>","",""
"2603","key","v","v","16.672935897436663","500","250","psychophysics","354","1410667","0.0-354.0","5f4d40ca75b5258bf5af8cca","6213cd978ea0123540d0fc0f","6","","","","","1","2"
"null","","","null","","","","html-keyboard-response","355","1411169","0.0-355.0","5f4d40ca75b5258bf5af8cca","6213cd978ea0123540d0fc0f","","","","","<p style=""color:darkgreen;font-size:24px;"">Correct :)</p>","",""
"2519","key","n","n","16.678185430464847","500","250","psychophysics","356","1413692","0.0-356.0","5f4d40ca75b5258bf5af8cca","6213cd978ea0123540d0fc0f","6","","","","","1","8"
"null","","","null","","","","html-keyboard-response","357","1414194","0.0-357.0","5f4d40ca75b5258bf5af8cca","6213cd978ea0123540d0fc0f","","","","","<p style=""color:darkgreen;font-size:24px;"">Correct :)</p>","",""
"3173","key","v","v","16.67566492146549","500","250","psychophysics","358","1417371","0.0-358.0","5f4d40ca75b5258bf5af8cca","6213cd978ea0123540d0fc0f","6","","","","","0","3"
"null","","","null","","","","html-keyboard-response","359","1417873","0.0-359.0","5f4d40ca75b5258bf5af8cca","6213cd978ea0123540d0fc0f","","","","","<p style=""color:darkgreen;font-size:24px;"">Correct :)</p>","",""
"3041","key","v","v","16.674708791207625","500","250","psychophysics","360","1420917","0.0-360.0","5f4d40ca75b5258bf5af8cca","6213cd978ea0123540d0fc0f","6","","","","","1","1"
"null","","","null","","","","html-keyboard-response","361","1421419","0.0-361.0","5f4d40ca75b5258bf5af8cca","6213cd978ea0123540d0fc0f","","","","","<p style=""color:darkgreen;font-size:24px;"">Correct :)</p>","",""
"2806","key","v","v","16.67711309523743","500","250","psychophysics","362","1424229","0.0-362.0","5f4d40ca75b5258bf5af8cca","6213cd978ea0123540d0fc0f","6","","","","","0","7"
"null","","","null","","","","html-keyboard-response","363","1424731","0.0-363.0","5f4d40ca75b5258bf5af8cca","6213cd978ea0123540d0fc0f","","","","","<p style=""color:darkgreen;font-size:24px;"">Correct :)</p>","",""
"3117","key","v","v","16.674786096256984","500","250","psychophysics","364","1427851","0.0-364.0","5f4d40ca75b5258bf5af8cca","6213cd978ea0123540d0fc0f","6","","","","","1","2"
"null","","","null","","","","html-keyboard-response","365","1428354","0.0-365.0","5f4d40ca75b5258bf5af8cca","6213cd978ea0123540d0fc0f","","","","","<p style=""color:darkgreen;font-size:24px;"">Correct :)</p>","",""
"2959","key","n","n","16.67964971751385","500","250","psychophysics","366","1431317","0.0-366.0","5f4d40ca75b5258bf5af8cca","6213cd978ea0123540d0fc0f","6","","","","","0","6"
"null","","","null","","","","html-keyboard-response","367","1431819","0.0-367.0","5f4d40ca75b5258bf5af8cca","6213cd978ea0123540d0fc0f","","","","","<p style=""color:darkgreen;font-size:24px;"">Correct :)</p>","",""
"4550","key","v","v","16.67507326007384","500","250","psychophysics","368","1436373","0.0-368.0","5f4d40ca75b5258bf5af8cca","6213cd978ea0123540d0fc0f","6","","","","","0","9"
"null","","","null","","","","html-keyboard-response","369","1436875","0.0-369.0","5f4d40ca75b5258bf5af8cca","6213cd978ea0123540d0fc0f","","","","","<p style=""color:darkgreen;font-size:24px;"">Correct :)</p>","",""
"2754","key","v","v","16.676824242424107","500","250","psychophysics","370","1439633","0.0-370.0","5f4d40ca75b5258bf5af8cca","6213cd978ea0123540d0fc0f","6","","","","","0","9"
"null","","","null","","","","html-keyboard-response","371","1440136","0.0-371.0","5f4d40ca75b5258bf5af8cca","6213cd978ea0123540d0fc0f","","","","","<p style=""color:darkgreen;font-size:24px;"">Correct :)</p>","",""
"2883","key","v","v","16.675543352600855","500","250","psychophysics","372","1443023","0.0-372.0","5f4d40ca75b5258bf5af8cca","6213cd978ea0123540d0fc0f","6","","","","","0","1"
"null","","","null","","","","html-keyboard-response","373","1443525","0.0-373.0","5f4d40ca75b5258bf5af8cca","6213cd978ea0123540d0fc0f","","","","","<p style=""color:darkgreen;font-size:24px;"">Correct :)</p>","",""
"3055","key","v","v","16.678603260870265","500","250","psychophysics","374","1446585","0.0-374.0","5f4d40ca75b5258bf5af8cca","6213cd978ea0123540d0fc0f","6","","","","","1","1"
"null","","","null","","","","html-keyboard-response","375","1447088","0.0-375.0","5f4d40ca75b5258bf5af8cca","6213cd978ea0123540d0fc0f","","","","","<p style=""color:darkgreen;font-size:24px;"">Correct :)</p>","",""
"3228","key","n","n","16.67395876288611","500","250","psychophysics","376","1450320","0.0-376.0","5f4d40ca75b5258bf5af8cca","6213cd978ea0123540d0fc0f","6","","","","","0","8"
"null","","","null","","","","html-keyboard-response","377","1450822","0.0-377.0","5f4d40ca75b5258bf5af8cca","6213cd978ea0123540d0fc0f","","","","","<p style=""color:darkgreen;font-size:24px;"">Correct :)</p>","",""
"3534","key","v","v","16.67612264150938","500","250","psychophysics","378","1454360","0.0-378.0","5f4d40ca75b5258bf5af8cca","6213cd978ea0123540d0fc0f","6","","","","","1","9"
"null","","","null","","","","html-keyboard-response","379","1454861","0.0-379.0","5f4d40ca75b5258bf5af8cca","6213cd978ea0123540d0fc0f","","","","","<p style=""color:red;font-size:24px;"">Error :(</p>","",""
"2817","key","v","v","16.67856804733771","500","250","psychophysics","380","1457682","0.0-380.0","5f4d40ca75b5258bf5af8cca","6213cd978ea0123540d0fc0f","6","","","","","1","3"
"null","","","null","","","","html-keyboard-response","381","1458183","0.0-381.0","5f4d40ca75b5258bf5af8cca","6213cd978ea0123540d0fc0f","","","","","<p style=""color:darkgreen;font-size:24px;"">Correct :)</p>","",""
"3223","key","n","n","16.679243523316273","500","250","psychophysics","382","1461410","0.0-382.0","5f4d40ca75b5258bf5af8cca","6213cd978ea0123540d0fc0f","6","","","","","0","4"
"null","","","null","","","","html-keyboard-response","383","1461912","0.0-383.0","5f4d40ca75b5258bf5af8cca","6213cd978ea0123540d0fc0f","","","","","<p style=""color:darkgreen;font-size:24px;"">Correct :)</p>","",""
"3098","key","v","v","16.67556451612918","500","250","psychophysics","384","1465014","0.0-384.0","5f4d40ca75b5258bf5af8cca","6213cd978ea0123540d0fc0f","6","","","","","1","4"
"null","","","null","","","","html-keyboard-response","385","1465516","0.0-385.0","5f4d40ca75b5258bf5af8cca","6213cd978ea0123540d0fc0f","","","","","<p style=""color:darkgreen;font-size:24px;"">Correct :)</p>","",""
"2594","key","v","v","16.68003846153778","500","250","psychophysics","386","1468114","0.0-386.0","5f4d40ca75b5258bf5af8cca","6213cd978ea0123540d0fc0f","6","","","","","1","3"
"null","","","null","","","","html-keyboard-response","387","1468616","0.0-387.0","5f4d40ca75b5258bf5af8cca","6213cd978ea0123540d0fc0f","","","","","<p style=""color:darkgreen;font-size:24px;"">Correct :)</p>","",""
"3576","key","n","n","16.672609302325736","500","250","psychophysics","388","1472196","0.0-388.0","5f4d40ca75b5258bf5af8cca","6213cd978ea0123540d0fc0f","6","","","","","0","8"
"null","","","null","","","","html-keyboard-response","389","1472699","0.0-389.0","5f4d40ca75b5258bf5af8cca","6213cd978ea0123540d0fc0f","","","","","<p style=""color:darkgreen;font-size:24px;"">Correct :)</p>","",""
"3886","key","n","n","16.676369098712623","500","250","psychophysics","390","1476589","0.0-390.0","5f4d40ca75b5258bf5af8cca","6213cd978ea0123540d0fc0f","6","","","","","1","6"
"null","","","null","","","","html-keyboard-response","391","1477092","0.0-391.0","5f4d40ca75b5258bf5af8cca","6213cd978ea0123540d0fc0f","","","","","<p style=""color:darkgreen;font-size:24px;"">Correct :)</p>","",""
"2751","key","v","v","16.679975757575736","500","250","psychophysics","392","1479846","0.0-392.0","5f4d40ca75b5258bf5af8cca","6213cd978ea0123540d0fc0f","6","","","","","1","4"
"null","","","null","","","","html-keyboard-response","393","1480348","0.0-393.0","5f4d40ca75b5258bf5af8cca","6213cd978ea0123540d0fc0f","","","","","<p style=""color:darkgreen;font-size:24px;"">Correct :)</p>","",""
"2905","key","n","n","16.676270114943044","500","250","psychophysics","394","1483256","0.0-394.0","5f4d40ca75b5258bf5af8cca","6213cd978ea0123540d0fc0f","6","","","","","0","2"
"null","","","null","","","","html-keyboard-response","395","1483757","0.0-395.0","5f4d40ca75b5258bf5af8cca","6213cd978ea0123540d0fc0f","","","","","<p style=""color:darkgreen;font-size:24px;"">Correct :)</p>","",""
"15073","","","v","","","","html-keyboard-response","396","1498833","0.0-396.0","5f4d40ca75b5258bf5af8cca","6213cd978ea0123540d0fc0f","","","","","<p> Last set of trials.  Here, the tasks are going to switch once again.  We are going to do 50 of these.  And then you are done with the experiment.  </p>  <br><br>  Ready? (press v or n)","",""
"2943","key","v","v","16.691147727272686","500","250","psychophysics","397","1501780","0.0-397.0","5f4d40ca75b5258bf5af8cca","6213cd978ea0123540d0fc0f","7","","","","","1","4"
"null","","","null","","","","html-keyboard-response","398","1502281","0.0-398.0","5f4d40ca75b5258bf5af8cca","6213cd978ea0123540d0fc0f","","","","","<p style=""color:darkgreen;font-size:24px;"">Correct :)</p>","",""
"2990","key","v","v","16.677377777778183","500","250","psychophysics","399","1505275","0.0-399.0","5f4d40ca75b5258bf5af8cca","6213cd978ea0123540d0fc0f","7","","","","","0","1"
"null","","","null","","","","html-keyboard-response","400","1505779","0.0-400.0","5f4d40ca75b5258bf5af8cca","6213cd978ea0123540d0fc0f","","","","","<p style=""color:darkgreen;font-size:24px;"">Correct :)</p>","",""
"2892","key","v","v","16.67427745664686","500","250","psychophysics","401","1508675","0.0-401.0","5f4d40ca75b5258bf5af8cca","6213cd978ea0123540d0fc0f","7","","","","","1","2"
"null","","","null","","","","html-keyboard-response","402","1509178","0.0-402.0","5f4d40ca75b5258bf5af8cca","6213cd978ea0123540d0fc0f","","","","","<p style=""color:darkgreen;font-size:24px;"">Correct :)</p>","",""
"2604","key","n","n","16.672814102562814","500","250","psychophysics","403","1511786","0.0-403.0","5f4d40ca75b5258bf5af8cca","6213cd978ea0123540d0fc0f","7","","","","","1","6"
"null","","","null","","","","html-keyboard-response","404","1512289","0.0-404.0","5f4d40ca75b5258bf5af8cca","6213cd978ea0123540d0fc0f","","","","","<p style=""color:darkgreen;font-size:24px;"">Correct :)</p>","",""
"3624","key","n","n","16.67497706422027","500","250","psychophysics","405","1515917","0.0-405.0","5f4d40ca75b5258bf5af8cca","6213cd978ea0123540d0fc0f","7","","","","","1","7"
"null","","","null","","","","html-keyboard-response","406","1516419","0.0-406.0","5f4d40ca75b5258bf5af8cca","6213cd978ea0123540d0fc0f","","","","","<p style=""color:darkgreen;font-size:24px;"">Correct :)</p>","",""
"2541","key","v","v","16.677248366014254","500","250","psychophysics","407","1518964","0.0-407.0","5f4d40ca75b5258bf5af8cca","6213cd978ea0123540d0fc0f","7","","","","","1","1"
"null","","","null","","","","html-keyboard-response","408","1519466","0.0-408.0","5f4d40ca75b5258bf5af8cca","6213cd978ea0123540d0fc0f","","","","","<p style=""color:darkgreen;font-size:24px;"">Correct :)</p>","",""
"2767","key","n","n","16.668957831325425","500","250","psychophysics","409","1522237","0.0-409.0","5f4d40ca75b5258bf5af8cca","6213cd978ea0123540d0fc0f","7","","","","","0","2"
"null","","","null","","","","html-keyboard-response","410","1522739","0.0-410.0","5f4d40ca75b5258bf5af8cca","6213cd978ea0123540d0fc0f","","","","","<p style=""color:darkgreen;font-size:24px;"">Correct :)</p>","",""
"2514","key","n","n","16.677960264900488","500","250","psychophysics","411","1525257","0.0-411.0","5f4d40ca75b5258bf5af8cca","6213cd978ea0123540d0fc0f","7","","","","","0","2"
"null","","","null","","","","html-keyboard-response","412","1525759","0.0-412.0","5f4d40ca75b5258bf5af8cca","6213cd978ea0123540d0fc0f","","","","","<p style=""color:darkgreen;font-size:24px;"">Correct :)</p>","",""
"3005","key","v","v","16.678889502762193","500","250","psychophysics","413","1528768","0.0-413.0","5f4d40ca75b5258bf5af8cca","6213cd978ea0123540d0fc0f","7","","","","","1","3"
"null","","","null","","","","html-keyboard-response","414","1529271","0.0-414.0","5f4d40ca75b5258bf5af8cca","6213cd978ea0123540d0fc0f","","","","","<p style=""color:darkgreen;font-size:24px;"">Correct :)</p>","",""
"3416","key","v","v","16.674765853658773","500","250","psychophysics","415","1532691","0.0-415.0","5f4d40ca75b5258bf5af8cca","6213cd978ea0123540d0fc0f","7","","","","","1","4"
"null","","","null","","","","html-keyboard-response","416","1533193","0.0-416.0","5f4d40ca75b5258bf5af8cca","6213cd978ea0123540d0fc0f","","","","","<p style=""color:darkgreen;font-size:24px;"">Correct :)</p>","",""
"2844","key","n","n","16.678269005847593","500","250","psychophysics","417","1536040","0.0-417.0","5f4d40ca75b5258bf5af8cca","6213cd978ea0123540d0fc0f","7","","","","","0","2"
"null","","","null","","","","html-keyboard-response","418","1536543","0.0-418.0","5f4d40ca75b5258bf5af8cca","6213cd978ea0123540d0fc0f","","","","","<p style=""color:darkgreen;font-size:24px;"">Correct :)</p>","",""
"2863","key","n","n","16.675255813952642","500","250","psychophysics","419","1539410","0.0-419.0","5f4d40ca75b5258bf5af8cca","6213cd978ea0123540d0fc0f","7","","","","","0","7"
"null","","","null","","","","html-keyboard-response","420","1539912","0.0-420.0","5f4d40ca75b5258bf5af8cca","6213cd978ea0123540d0fc0f","","","","","<p style=""color:red;font-size:24px;"">Error :(</p>","",""
"300","key","v","v","16.727166666675153","500","250","psychophysics","421","1540217","0.0-421.0","5f4d40ca75b5258bf5af8cca","6213cd978ea0123540d0fc0f","7","","","","","1","6"
"null","","","null","","","","html-keyboard-response","422","1540718","0.0-422.0","5f4d40ca75b5258bf5af8cca","6213cd978ea0123540d0fc0f","","","","","<p style=""color:red;font-size:24px;"">Error :(</p>","",""
"3561","key","v","v","16.674469483568128","500","250","psychophysics","423","1544283","0.0-423.0","5f4d40ca75b5258bf5af8cca","6213cd978ea0123540d0fc0f","7","","","","","0","7"
"null","","","null","","","","html-keyboard-response","424","1544784","0.0-424.0","5f4d40ca75b5258bf5af8cca","6213cd978ea0123540d0fc0f","","","","","<p style=""color:darkgreen;font-size:24px;"">Correct :)</p>","",""
"3008","key","v","v","16.678342541436617","500","250","psychophysics","425","1547797","0.0-425.0","5f4d40ca75b5258bf5af8cca","6213cd978ea0123540d0fc0f","7","","","","","1","1"
"null","","","null","","","","html-keyboard-response","426","1548298","0.0-426.0","5f4d40ca75b5258bf5af8cca","6213cd978ea0123540d0fc0f","","","","","<p style=""color:darkgreen;font-size:24px;"">Correct :)</p>","",""
"2944","key","n","n","16.675322033897686","500","250","psychophysics","427","1551247","0.0-427.0","5f4d40ca75b5258bf5af8cca","6213cd978ea0123540d0fc0f","7","","","","","0","6"
"null","","","null","","","","html-keyboard-response","428","1551749","0.0-428.0","5f4d40ca75b5258bf5af8cca","6213cd978ea0123540d0fc0f","","","","","<p style=""color:darkgreen;font-size:24px;"">Correct :)</p>","",""
"2720","key","n","n","16.678466257669225","500","250","psychophysics","429","1554474","0.0-429.0","5f4d40ca75b5258bf5af8cca","6213cd978ea0123540d0fc0f","7","","","","","0","6"
"null","","","null","","","","html-keyboard-response","430","1554975","0.0-430.0","5f4d40ca75b5258bf5af8cca","6213cd978ea0123540d0fc0f","","","","","<p style=""color:darkgreen;font-size:24px;"">Correct :)</p>","",""
"3000","key","n","n","16.680472222222793","500","250","psychophysics","431","1557980","0.0-431.0","5f4d40ca75b5258bf5af8cca","6213cd978ea0123540d0fc0f","7","","","","","0","2"
"null","","","null","","","","html-keyboard-response","432","1558482","0.0-432.0","5f4d40ca75b5258bf5af8cca","6213cd978ea0123540d0fc0f","","","","","<p style=""color:darkgreen;font-size:24px;"">Correct :)</p>","",""
"3057","key","v","v","16.674644808742965","500","250","psychophysics","433","1561544","0.0-433.0","5f4d40ca75b5258bf5af8cca","6213cd978ea0123540d0fc0f","7","","","","","0","3"
"null","","","null","","","","html-keyboard-response","434","1562046","0.0-434.0","5f4d40ca75b5258bf5af8cca","6213cd978ea0123540d0fc0f","","","","","<p style=""color:darkgreen;font-size:24px;"">Correct :)</p>","",""
"2604","key","v","v","16.676576923077498","500","250","psychophysics","435","1564654","0.0-435.0","5f4d40ca75b5258bf5af8cca","6213cd978ea0123540d0fc0f","7","","","","","0","3"
"null","","","null","","","","html-keyboard-response","436","1565156","0.0-436.0","5f4d40ca75b5258bf5af8cca","6213cd978ea0123540d0fc0f","","","","","<p style=""color:darkgreen;font-size:24px;"">Correct :)</p>","",""
"3624","key","n","n","16.678743119265054","500","250","psychophysics","437","1568785","0.0-437.0","5f4d40ca75b5258bf5af8cca","6213cd978ea0123540d0fc0f","7","","","","","1","6"
"null","","","null","","","","html-keyboard-response","438","1569288","0.0-438.0","5f4d40ca75b5258bf5af8cca","6213cd978ea0123540d0fc0f","","","","","<p style=""color:darkgreen;font-size:24px;"">Correct :)</p>","",""
"3127","key","n","n","16.6751968085102","500","250","psychophysics","439","1572420","0.0-439.0","5f4d40ca75b5258bf5af8cca","6213cd978ea0123540d0fc0f","7","","","","","1","7"
"null","","","null","","","","html-keyboard-response","440","1572922","0.0-440.0","5f4d40ca75b5258bf5af8cca","6213cd978ea0123540d0fc0f","","","","","<p style=""color:darkgreen;font-size:24px;"">Correct :)</p>","",""
"3335","key","v","v","16.674429999999703","500","250","psychophysics","441","1576261","0.0-441.0","5f4d40ca75b5258bf5af8cca","6213cd978ea0123540d0fc0f","7","","","","","1","2"
"null","","","null","","","","html-keyboard-response","442","1576763","0.0-442.0","5f4d40ca75b5258bf5af8cca","6213cd978ea0123540d0fc0f","","","","","<p style=""color:darkgreen;font-size:24px;"">Correct :)</p>","",""
"4118","key","v","v","16.67822672064729","500","250","psychophysics","443","1580885","0.0-443.0","5f4d40ca75b5258bf5af8cca","6213cd978ea0123540d0fc0f","7","","","","","1","4"
"null","","","null","","","","html-keyboard-response","444","1581386","0.0-444.0","5f4d40ca75b5258bf5af8cca","6213cd978ea0123540d0fc0f","","","","","<p style=""color:darkgreen;font-size:24px;"">Correct :)</p>","",""
"3224","key","v","v","16.67515544041417","500","250","psychophysics","445","1584613","0.0-445.0","5f4d40ca75b5258bf5af8cca","6213cd978ea0123540d0fc0f","7","","","","","1","1"
"null","","","null","","","","html-keyboard-response","446","1585115","0.0-446.0","5f4d40ca75b5258bf5af8cca","6213cd978ea0123540d0fc0f","","","","","<p style=""color:darkgreen;font-size:24px;"">Correct :)</p>","",""
"4317","key","v","v","17.07182608695568","500","250","psychophysics","447","1589435","0.0-447.0","5f4d40ca75b5258bf5af8cca","6213cd978ea0123540d0fc0f","7","","","","","1","2"
"null","","","null","","","","html-keyboard-response","448","1589937","0.0-448.0","5f4d40ca75b5258bf5af8cca","6213cd978ea0123540d0fc0f","","","","","<p style=""color:darkgreen;font-size:24px;"">Correct :)</p>","",""
"3054","key","n","n","16.677641304347755","500","250","psychophysics","449","1592996","0.0-449.0","5f4d40ca75b5258bf5af8cca","6213cd978ea0123540d0fc0f","7","","","","","1","6"
"null","","","null","","","","html-keyboard-response","450","1593499","0.0-450.0","5f4d40ca75b5258bf5af8cca","6213cd978ea0123540d0fc0f","","","","","<p style=""color:darkgreen;font-size:24px;"">Correct :)</p>","",""
"2831","key","v","v","16.67100588235292","500","250","psychophysics","451","1596334","0.0-451.0","5f4d40ca75b5258bf5af8cca","6213cd978ea0123540d0fc0f","7","","","","","1","2"
"null","","","null","","","","html-keyboard-response","452","1596836","0.0-452.0","5f4d40ca75b5258bf5af8cca","6213cd978ea0123540d0fc0f","","","","","<p style=""color:darkgreen;font-size:24px;"">Correct :)</p>","",""
"2919","key","v","v","16.674874285714967","500","250","psychophysics","453","1599758","0.0-453.0","5f4d40ca75b5258bf5af8cca","6213cd978ea0123540d0fc0f","7","","","","","0","7"
"null","","","null","","","","html-keyboard-response","454","1600260","0.0-454.0","5f4d40ca75b5258bf5af8cca","6213cd978ea0123540d0fc0f","","","","","<p style=""color:darkgreen;font-size:24px;"">Correct :)</p>","",""
"2959","key","v","v","16.67761016949106","500","250","psychophysics","455","1603223","0.0-455.0","5f4d40ca75b5258bf5af8cca","6213cd978ea0123540d0fc0f","7","","","","","0","7"
"null","","","null","","","","html-keyboard-response","456","1603725","0.0-456.0","5f4d40ca75b5258bf5af8cca","6213cd978ea0123540d0fc0f","","","","","<p style=""color:darkgreen;font-size:24px;"">Correct :)</p>","",""
"3817","key","v","v","16.67765502183389","500","250","psychophysics","457","1607547","0.0-457.0","5f4d40ca75b5258bf5af8cca","6213cd978ea0123540d0fc0f","7","","","","","1","1"
"null","","","null","","","","html-keyboard-response","458","1608051","0.0-458.0","5f4d40ca75b5258bf5af8cca","6213cd978ea0123540d0fc0f","","","","","<p style=""color:darkgreen;font-size:24px;"">Correct :)</p>","",""
"3205","key","v","v","16.673552083332954","500","250","psychophysics","459","1611259","0.0-459.0","5f4d40ca75b5258bf5af8cca","6213cd978ea0123540d0fc0f","7","","","","","1","2"
"null","","","null","","","","html-keyboard-response","460","1611761","0.0-460.0","5f4d40ca75b5258bf5af8cca","6213cd978ea0123540d0fc0f","","","","","<p style=""color:darkgreen;font-size:24px;"">Correct :)</p>","",""
"2825","key","v","v","16.679782352941658","500","250","psychophysics","461","1614589","0.0-461.0","5f4d40ca75b5258bf5af8cca","6213cd978ea0123540d0fc0f","7","","","","","0","3"
"null","","","null","","","","html-keyboard-response","462","1615091","0.0-462.0","5f4d40ca75b5258bf5af8cca","6213cd978ea0123540d0fc0f","","","","","<p style=""color:darkgreen;font-size:24px;"">Correct :)</p>","",""
"2960","key","v","v","16.675870786516487","500","250","psychophysics","463","1618055","0.0-463.0","5f4d40ca75b5258bf5af8cca","6213cd978ea0123540d0fc0f","7","","","","","1","4"
"null","","","null","","","","html-keyboard-response","464","1618557","0.0-464.0","5f4d40ca75b5258bf5af8cca","6213cd978ea0123540d0fc0f","","","","","<p style=""color:darkgreen;font-size:24px;"">Correct :)</p>","",""
"3230","key","v","v","16.672675257731115","500","250","psychophysics","465","1621793","0.0-465.0","5f4d40ca75b5258bf5af8cca","6213cd978ea0123540d0fc0f","7","","","","","1","3"
"null","","","null","","","","html-keyboard-response","466","1622296","0.0-466.0","5f4d40ca75b5258bf5af8cca","6213cd978ea0123540d0fc0f","","","","","<p style=""color:darkgreen;font-size:24px;"">Correct :)</p>","",""
"2632","key","n","n","16.673841772151558","500","250","psychophysics","467","1624932","0.0-467.0","5f4d40ca75b5258bf5af8cca","6213cd978ea0123540d0fc0f","7","","","","","1","6"
"null","","","null","","","","html-keyboard-response","468","1625434","0.0-468.0","5f4d40ca75b5258bf5af8cca","6213cd978ea0123540d0fc0f","","","","","<p style=""color:darkgreen;font-size:24px;"">Correct :)</p>","",""
"2574","key","v","v","16.68227096774255","500","250","psychophysics","469","1628013","0.0-469.0","5f4d40ca75b5258bf5af8cca","6213cd978ea0123540d0fc0f","7","","","","","1","3"
"null","","","null","","","","html-keyboard-response","470","1628515","0.0-470.0","5f4d40ca75b5258bf5af8cca","6213cd978ea0123540d0fc0f","","","","","<p style=""color:darkgreen;font-size:24px;"">Correct :)</p>","",""
"2495","key","v","v","16.67299999999969","500","250","psychophysics","471","1631014","0.0-471.0","5f4d40ca75b5258bf5af8cca","6213cd978ea0123540d0fc0f","7","","","","","0","3"
"null","","","null","","","","html-keyboard-response","472","1631517","0.0-472.0","5f4d40ca75b5258bf5af8cca","6213cd978ea0123540d0fc0f","","","","","<p style=""color:darkgreen;font-size:24px;"">Correct :)</p>","",""
"3118","key","v","v","16.676700534759696","500","250","psychophysics","473","1634640","0.0-473.0","5f4d40ca75b5258bf5af8cca","6213cd978ea0123540d0fc0f","7","","","","","0","7"
"null","","","null","","","","html-keyboard-response","474","1635142","0.0-474.0","5f4d40ca75b5258bf5af8cca","6213cd978ea0123540d0fc0f","","","","","<p style=""color:darkgreen;font-size:24px;"">Correct :)</p>","",""
"2802","key","n","n","16.67952380952331","500","250","psychophysics","475","1637949","0.0-475.0","5f4d40ca75b5258bf5af8cca","6213cd978ea0123540d0fc0f","7","","","","","0","6"
"null","","","null","","","","html-keyboard-response","476","1638452","0.0-476.0","5f4d40ca75b5258bf5af8cca","6213cd978ea0123540d0fc0f","","","","","<p style=""color:darkgreen;font-size:24px;"">Correct :)</p>","",""
"2543","key","v","v","16.670457516340356","500","250","psychophysics","477","1640999","0.0-477.0","5f4d40ca75b5258bf5af8cca","6213cd978ea0123540d0fc0f","7","","","","","0","3"
"null","","","null","","","","html-keyboard-response","478","1641501","0.0-478.0","5f4d40ca75b5258bf5af8cca","6213cd978ea0123540d0fc0f","","","","","<p style=""color:darkgreen;font-size:24px;"">Correct :)</p>","",""
"2770","key","v","v","16.673018072288574","500","250","psychophysics","479","1644275","0.0-479.0","5f4d40ca75b5258bf5af8cca","6213cd978ea0123540d0fc0f","7","","","","","0","3"
"null","","","null","","","","html-keyboard-response","480","1644777","0.0-480.0","5f4d40ca75b5258bf5af8cca","6213cd978ea0123540d0fc0f","","","","","<p style=""color:darkgreen;font-size:24px;"">Correct :)</p>","",""
"2544","key","n","n","16.67823529411777","500","250","psychophysics","481","1647326","0.0-481.0","5f4d40ca75b5258bf5af8cca","6213cd978ea0123540d0fc0f","7","","","","","1","7"
"null","","","null","","","","html-keyboard-response","482","1647828","0.0-482.0","5f4d40ca75b5258bf5af8cca","6213cd978ea0123540d0fc0f","","","","","<p style=""color:darkgreen;font-size:24px;"">Correct :)</p>","",""
"2815","key","v","v","16.670840236686235","500","250","psychophysics","483","1650646","0.0-483.0","5f4d40ca75b5258bf5af8cca","6213cd978ea0123540d0fc0f","7","","","","","1","4"
"null","","","null","","","","html-keyboard-response","484","1651148","0.0-484.0","5f4d40ca75b5258bf5af8cca","6213cd978ea0123540d0fc0f","","","","","<p style=""color:darkgreen;font-size:24px;"">Correct :)</p>","",""
"2741","key","n","n","16.675436363635924","500","250","psychophysics","485","1653894","0.0-485.0","5f4d40ca75b5258bf5af8cca","6213cd978ea0123540d0fc0f","7","","","","","0","2"
"null","","","null","","","","html-keyboard-response","486","1654396","0.0-486.0","5f4d40ca75b5258bf5af8cca","6213cd978ea0123540d0fc0f","","","","","<p style=""color:darkgreen;font-size:24px;"">Correct :)</p>","",""
"2660","key","n","n","16.674825000000418","500","250","psychophysics","487","1657060","0.0-487.0","5f4d40ca75b5258bf5af8cca","6213cd978ea0123540d0fc0f","7","","","","","0","4"
"null","","","null","","","","html-keyboard-response","488","1657562","0.0-488.0","5f4d40ca75b5258bf5af8cca","6213cd978ea0123540d0fc0f","","","","","<p style=""color:darkgreen;font-size:24px;"">Correct :)</p>","",""
"2574","key","v","v","16.67712258064609","500","250","psychophysics","489","1660140","0.0-489.0","5f4d40ca75b5258bf5af8cca","6213cd978ea0123540d0fc0f","7","","","","","1","2"
"null","","","null","","","","html-keyboard-response","490","1660644","0.0-490.0","5f4d40ca75b5258bf5af8cca","6213cd978ea0123540d0fc0f","","","","","<p style=""color:darkgreen;font-size:24px;"">Correct :)</p>","",""
"2719","key","v","v","16.675233128834858","500","250","psychophysics","491","1663367","0.0-491.0","5f4d40ca75b5258bf5af8cca","6213cd978ea0123540d0fc0f","7","","","","","0","7"
"null","","","null","","","","html-keyboard-response","492","1663869","0.0-492.0","5f4d40ca75b5258bf5af8cca","6213cd978ea0123540d0fc0f","","","","","<p style=""color:darkgreen;font-size:24px;"">Correct :)</p>","",""
"3163","key","n","n","16.677468421052847","500","250","psychophysics","493","1667037","0.0-493.0","5f4d40ca75b5258bf5af8cca","6213cd978ea0123540d0fc0f","7","","","","","0","4"
"null","","","null","","","","html-keyboard-response","494","1667539","0.0-494.0","5f4d40ca75b5258bf5af8cca","6213cd978ea0123540d0fc0f","","","","","<p style=""color:darkgreen;font-size:24px;"">Correct :)</p>","",""
"2657","key","n","n","16.674056603773877","500","250","psychophysics","495","1670200","0.0-495.0","5f4d40ca75b5258bf5af8cca","6213cd978ea0123540d0fc0f","7","","","","","0","2"
"null","","","null","","","","html-keyboard-response","496","1670701","0.0-496.0","5f4d40ca75b5258bf5af8cca","6213cd978ea0123540d0fc0f","","","","","<p style=""color:darkgreen;font-size:24px;"">Correct :)</p>","",""
