"rt","response_type","key_press","response","avg_frame_time","center_x","center_y","trial_type","trial_index","time_elapsed","internal_node_id","pid","sid","phase","guide","targ","resp","stimulus","is5","stim"
"4305","key"," "," ","8.415762645914395","500","250","psychophysics","0","4330","0.0-0.0","59306fc35f170a00014358da","6213d4965183f52faaa88798","","","","","","",""
"129923","key"," "," ","21.008922056921087","500","250","psychophysics","1","134255","0.0-1.0","59306fc35f170a00014358da","6213d4965183f52faaa88798","","","","","","",""
"1440","key"," "," ","8.318447674418525","500","250","psychophysics","2","135699","0.0-2.0","59306fc35f170a00014358da","6213d4965183f52faaa88798","","","","","","",""
"643","key"," "," ","8.31863636363641","500","250","psychophysics","3","136348","0.0-3.0","59306fc35f170a00014358da","6213d4965183f52faaa88798","","","","","","",""
"709","key"," "," ","8.317399999999907","500","250","psychophysics","4","137061","0.0-4.0","59306fc35f170a00014358da","6213d4965183f52faaa88798","","","","","","",""
"7327","key"," "," ","8.318589772727268","500","250","psychophysics","5","144391","0.0-5.0","59306fc35f170a00014358da","6213d4965183f52faaa88798","","","","","","",""
"7114","key"," "," ","8.318532786885248","500","250","psychophysics","6","151507","0.0-6.0","59306fc35f170a00014358da","6213d4965183f52faaa88798","","","","","","",""
"3585","key"," "," ","8.318635730858524","500","250","psychophysics","7","155097","0.0-7.0","59306fc35f170a00014358da","6213d4965183f52faaa88798","","","","","","",""
"13039","key"," "," ","8.318491071428571","500","250","psychophysics","8","168148","0.0-8.0","59306fc35f170a00014358da","6213d4965183f52faaa88798","0","0","52","58","","",""
"1516","key"," "," ","8.318686813186915","500","250","psychophysics","9","169667","0.0-9.0","59306fc35f170a00014358da","6213d4965183f52faaa88798","","","","","","",""
"1145","key"," "," ","8.379198529411738","500","250","psychophysics","10","170817","0.0-10.0","59306fc35f170a00014358da","6213d4965183f52faaa88798","","","","","","",""
"817","key"," "," ","8.318278350515385","500","250","psychophysics","11","171637","0.0-11.0","59306fc35f170a00014358da","6213d4965183f52faaa88798","","","","","","",""
"1783","key"," "," ","8.318551401869218","500","250","psychophysics","12","173425","0.0-12.0","59306fc35f170a00014358da","6213d4965183f52faaa88798","","","","","","",""
"884","key"," "," ","8.396626168224149","500","250","psychophysics","13","174331","0.0-13.0","59306fc35f170a00014358da","6213d4965183f52faaa88798","","","","","","",""
"1536","key"," "," ","8.318266304347755","500","250","psychophysics","14","175871","0.0-14.0","59306fc35f170a00014358da","6213d4965183f52faaa88798","","","","","","",""
"2612","key"," "," ","8.3185350318471","500","250","psychophysics","15","178489","0.0-15.0","59306fc35f170a00014358da","6213d4965183f52faaa88798","","","","","","",""
"1092","key"," "," ","8.31744274809154","500","250","psychophysics","16","179583","0.0-16.0","59306fc35f170a00014358da","6213d4965183f52faaa88798","","","","","","",""
"3816","key"," "," ","8.318417030567668","500","250","psychophysics","17","183402","0.0-17.0","59306fc35f170a00014358da","6213d4965183f52faaa88798","1","0","39","40","","",""
"3368","key"," "," ","8.318393564356422","500","250","psychophysics","18","186772","0.0-18.0","59306fc35f170a00014358da","6213d4965183f52faaa88798","1","5","22","22","","",""
"5107","key"," "," ","8.31853344208809","500","250","psychophysics","19","191882","0.0-19.0","59306fc35f170a00014358da","6213d4965183f52faaa88798","1","0","50","55","","",""
"2688","key"," "," ","8.317829721362273","500","250","psychophysics","20","194574","0.0-20.0","59306fc35f170a00014358da","6213d4965183f52faaa88798","1","5","27","26","","",""
"4859","key"," "," ","8.318571183533422","500","250","psychophysics","21","199436","0.0-21.0","59306fc35f170a00014358da","6213d4965183f52faaa88798","1","0","59","57","","",""
"3803","key"," "," ","8.31864770240701","500","250","psychophysics","22","203244","0.0-22.0","59306fc35f170a00014358da","6213d4965183f52faaa88798","1","5","49","47","","",""
"2440","key"," "," ","8.318313993174073","500","250","psychophysics","23","205687","0.0-23.0","59306fc35f170a00014358da","6213d4965183f52faaa88798","1","0","41","38","","",""
"3921","key"," "," ","8.3184425531915","500","250","psychophysics","24","209610","0.0-24.0","59306fc35f170a00014358da","6213d4965183f52faaa88798","1","5","25","30","","",""
"2787","key"," "," ","8.318483582089582","500","250","psychophysics","25","212401","0.0-25.0","59306fc35f170a00014358da","6213d4965183f52faaa88798","1","0","36","38","","",""
"3461","key"," "," ","8.318568674698808","500","250","psychophysics","26","215864","0.0-26.0","59306fc35f170a00014358da","6213d4965183f52faaa88798","1","5","24","25","","",""
"4760","key"," "," ","8.318465034965055","500","250","psychophysics","27","220627","0.0-27.0","59306fc35f170a00014358da","6213d4965183f52faaa88798","1","0","58","63","","",""
"3697","key"," "," ","8.318909706546279","500","250","psychophysics","28","224327","0.0-28.0","59306fc35f170a00014358da","6213d4965183f52faaa88798","1","5","46","50","","",""
"3725","key"," "," ","8.318377232142861","500","250","psychophysics","29","228056","0.0-29.0","59306fc35f170a00014358da","6213d4965183f52faaa88798","1","0","52","55","","",""
"7567","key"," "," ","8.318514851485148","500","250","psychophysics","30","235626","0.0-30.0","59306fc35f170a00014358da","6213d4965183f52faaa88798","1","5","49","55","","",""
"4294","key"," "," ","8.318782524271864","500","250","psychophysics","31","239923","0.0-31.0","59306fc35f170a00014358da","6213d4965183f52faaa88798","1","0","32","35","","",""
"4274","key"," "," ","8.318266536964995","500","250","psychophysics","32","244203","0.0-32.0","59306fc35f170a00014358da","6213d4965183f52faaa88798","1","5","53","52","","",""
"3338","key"," "," ","8.318480000000054","500","250","psychophysics","33","247544","0.0-33.0","59306fc35f170a00014358da","6213d4965183f52faaa88798","1","0","31","36","","",""
"2347","key"," "," ","8.31876241134753","500","250","psychophysics","34","249895","0.0-34.0","59306fc35f170a00014358da","6213d4965183f52faaa88798","1","5","26","30","","",""
"4203","key"," "," ","8.318493069306944","500","250","psychophysics","35","254101","0.0-35.0","59306fc35f170a00014358da","6213d4965183f52faaa88798","1","0","54","64","","",""
"4909","key"," "," ","8.318478777589139","500","250","psychophysics","36","259013","0.0-36.0","59306fc35f170a00014358da","6213d4965183f52faaa88798","1","5","54","59","","",""
"1649","key"," "," ","8.318712121212174","500","250","psychophysics","37","260665","0.0-37.0","59306fc35f170a00014358da","6213d4965183f52faaa88798","","","","","","",""
"2818","key"," "," ","8.317893491124359","500","250","psychophysics","38","263485","0.0-38.0","59306fc35f170a00014358da","6213d4965183f52faaa88798","","","","","","",""
"633","key"," "," ","8.317933333333738","500","250","psychophysics","39","264120","0.0-39.0","59306fc35f170a00014358da","6213d4965183f52faaa88798","","","","","","",""
"2506","key"," "," ","8.317794019933611","500","250","psychophysics","40","266629","0.0-40.0","59306fc35f170a00014358da","6213d4965183f52faaa88798","2","0","31","38","","",""
"1490","key"," "," ","8.318722222222195","500","250","psychophysics","41","268135","0.0-41.0","59306fc35f170a00014358da","6213d4965183f52faaa88798","","","","","","",""
"2239","key"," "," ","8.318317164179136","500","250","psychophysics","42","270376","0.0-42.0","59306fc35f170a00014358da","6213d4965183f52faaa88798","2","0","36","37","","",""
"1214","key"," "," ","8.318324137931079","500","250","psychophysics","43","271592","0.0-43.0","59306fc35f170a00014358da","6213d4965183f52faaa88798","","","","","","",""
"5945","key"," "," ","8.318475524475472","500","250","psychophysics","44","277543","0.0-44.0","59306fc35f170a00014358da","6213d4965183f52faaa88798","2","0","45","45","","",""
"1046","key"," "," ","8.317535999999848","500","250","psychophysics","45","278591","0.0-45.0","59306fc35f170a00014358da","6213d4965183f52faaa88798","","","","","","",""
"5947","key"," "," ","8.31851960784315","500","250","psychophysics","46","284540","0.0-46.0","59306fc35f170a00014358da","6213d4965183f52faaa88798","2","0","59","61","","",""
"920","key"," "," ","8.318500000000297","500","250","psychophysics","47","285463","0.0-47.0","59306fc35f170a00014358da","6213d4965183f52faaa88798","","","","","","",""
"3216","key"," "," ","8.31875906735758","500","250","psychophysics","48","288681","0.0-48.0","59306fc35f170a00014358da","6213d4965183f52faaa88798","2","0","31","34","","",""
"783","key"," "," ","8.31792473118259","500","250","psychophysics","49","289467","0.0-49.0","59306fc35f170a00014358da","6213d4965183f52faaa88798","","","","","","",""
"6727","key"," "," ","8.328628252788079","500","250","psychophysics","50","296196","0.0-50.0","59306fc35f170a00014358da","6213d4965183f52faaa88798","2","0","57","56","","",""
"948","key"," "," ","8.319061946902687","500","250","psychophysics","51","297146","0.0-51.0","59306fc35f170a00014358da","6213d4965183f52faaa88798","","","","","","",""
"1678","key"," "," ","8.318123762376231","500","250","psychophysics","52","298835","0.0-52.0","59306fc35f170a00014358da","6213d4965183f52faaa88798","2","0","34","25","","",""
"770","key"," "," ","8.318532608695577","500","250","psychophysics","53","299608","0.0-53.0","59306fc35f170a00014358da","6213d4965183f52faaa88798","","","","","","",""
"2721","key"," "," ","8.318519877675715","500","250","psychophysics","54","302333","0.0-54.0","59306fc35f170a00014358da","6213d4965183f52faaa88798","2","0","26","30","","",""
"712","key"," "," ","8.318729411764755","500","250","psychophysics","55","303048","0.0-55.0","59306fc35f170a00014358da","6213d4965183f52faaa88798","","","","","","",""
"4281","key"," "," ","8.318507782101145","500","250","psychophysics","56","307333","0.0-56.0","59306fc35f170a00014358da","6213d4965183f52faaa88798","2","0","42","44","","",""
"823","key"," "," ","8.319071428571133","500","250","psychophysics","57","308158","0.0-57.0","59306fc35f170a00014358da","6213d4965183f52faaa88798","","","","","","",""
"2286","key"," "," ","8.318467153284706","500","250","psychophysics","58","310446","0.0-58.0","59306fc35f170a00014358da","6213d4965183f52faaa88798","2","0","46","44","","",""
"867","key"," "," ","8.317576923077398","500","250","psychophysics","59","311316","0.0-59.0","59306fc35f170a00014358da","6213d4965183f52faaa88798","","","","","","",""
"2038","key"," "," ","8.318385245901586","500","250","psychophysics","60","313358","0.0-60.0","59306fc35f170a00014358da","6213d4965183f52faaa88798","2","0","33","35","","",""
"578","key"," "," ","8.31908695652163","500","250","psychophysics","61","313938","0.0-61.0","59306fc35f170a00014358da","6213d4965183f52faaa88798","","","","","","",""
"1551","key"," "," ","8.318403225806442","500","250","psychophysics","62","315492","0.0-62.0","59306fc35f170a00014358da","6213d4965183f52faaa88798","2","0","35","31","","",""
"651","key"," "," ","8.31854545454534","500","250","psychophysics","63","316146","0.0-63.0","59306fc35f170a00014358da","6213d4965183f52faaa88798","","","","","","",""
"1497","key"," "," ","8.318516666666579","500","250","psychophysics","64","317646","0.0-64.0","59306fc35f170a00014358da","6213d4965183f52faaa88798","2","0","36","33","","",""
"555","key"," "," ","8.318530303030098","500","250","psychophysics","65","318204","0.0-65.0","59306fc35f170a00014358da","6213d4965183f52faaa88798","","","","","","",""
"1219","key"," "," ","8.318465753424553","500","250","psychophysics","66","319426","0.0-66.0","59306fc35f170a00014358da","6213d4965183f52faaa88798","2","0","26","28","","",""
"596","key"," "," ","8.319323943661441","500","250","psychophysics","67","320025","0.0-67.0","59306fc35f170a00014358da","6213d4965183f52faaa88798","","","","","","",""
"1192","key"," "," ","8.318154929577156","500","250","psychophysics","68","321220","0.0-68.0","59306fc35f170a00014358da","6213d4965183f52faaa88798","2","0","28","29","","",""
"595","key"," "," ","8.31819718309865","500","250","psychophysics","69","321819","0.0-69.0","59306fc35f170a00014358da","6213d4965183f52faaa88798","","","","","","",""
"1016","key"," "," ","8.318295081967172","500","250","psychophysics","70","322839","0.0-70.0","59306fc35f170a00014358da","6213d4965183f52faaa88798","","","","","","",""
"1242","key"," "," ","8.318731543624027","500","250","psychophysics","71","324085","0.0-71.0","59306fc35f170a00014358da","6213d4965183f52faaa88798","","","","","","",""
"3990","key"," "," ","8.318484342379966","500","250","psychophysics","72","328077","0.0-72.0","59306fc35f170a00014358da","6213d4965183f52faaa88798","3","5","53","56","","",""
"2776","key"," "," ","8.318627627627636","500","250","psychophysics","73","330855","0.0-73.0","59306fc35f170a00014358da","6213d4965183f52faaa88798","3","0","47","60","","",""
"2012","key"," "," ","8.318742738589133","500","250","psychophysics","74","332871","0.0-74.0","59306fc35f170a00014358da","6213d4965183f52faaa88798","3","5","53","49","","",""
"2274","key"," "," ","8.31875091575081","500","250","psychophysics","75","335149","0.0-75.0","59306fc35f170a00014358da","6213d4965183f52faaa88798","3","0","39","55","","",""
"1695","key"," "," ","8.318522167487846","500","250","psychophysics","76","336847","0.0-76.0","59306fc35f170a00014358da","6213d4965183f52faaa88798","3","5","35","35","","",""
"2102","key"," "," ","8.318484126984249","500","250","psychophysics","77","338952","0.0-77.0","59306fc35f170a00014358da","6213d4965183f52faaa88798","3","0","54","46","","",""
"1937","key"," "," ","8.31853017241369","500","250","psychophysics","78","340893","0.0-78.0","59306fc35f170a00014358da","6213d4965183f52faaa88798","3","5","37","41","","",""
"2407","key"," "," ","8.318581314878918","500","250","psychophysics","79","343304","0.0-79.0","59306fc35f170a00014358da","6213d4965183f52faaa88798","3","0","51","63","","",""
"1684","key"," "," ","8.318386138613926","500","250","psychophysics","80","344991","0.0-80.0","59306fc35f170a00014358da","6213d4965183f52faaa88798","3","5","30","34","","",""
"2445","key"," "," ","8.318638225255889","500","250","psychophysics","81","347439","0.0-81.0","59306fc35f170a00014358da","6213d4965183f52faaa88798","3","0","59","63","","",""
"2101","key"," "," ","8.318436507936678","500","250","psychophysics","82","349544","0.0-82.0","59306fc35f170a00014358da","6213d4965183f52faaa88798","3","5","48","50","","",""
"2760","key"," "," ","8.318750000000035","500","250","psychophysics","83","352309","0.0-83.0","59306fc35f170a00014358da","6213d4965183f52faaa88798","3","0","27","38","","",""
"5366","key"," "," ","8.318559006211183","500","250","psychophysics","84","357678","0.0-84.0","59306fc35f170a00014358da","6213d4965183f52faaa88798","3","5","41","45","","",""
"2486","key"," "," ","8.31864093959737","500","250","psychophysics","85","360167","0.0-85.0","59306fc35f170a00014358da","6213d4965183f52faaa88798","3","0","29","31","","",""
"2664","key"," "," ","8.318343749999986","500","250","psychophysics","86","362836","0.0-86.0","59306fc35f170a00014358da","6213d4965183f52faaa88798","3","5","29","30","","",""
"4016","key"," "," ","8.318287784679104","500","250","psychophysics","87","366858","0.0-87.0","59306fc35f170a00014358da","6213d4965183f52faaa88798","3","0","49","53","","",""
"2343","key"," "," ","8.318416370106887","500","250","psychophysics","88","369204","0.0-88.0","59306fc35f170a00014358da","6213d4965183f52faaa88798","3","5","30","33","","",""
"2427","key"," "," ","8.318635738831608","500","250","psychophysics","89","371633","0.0-89.0","59306fc35f170a00014358da","6213d4965183f52faaa88798","3","0","33","35","","",""
"2313","key"," "," ","8.318444043321204","500","250","psychophysics","90","373949","0.0-90.0","59306fc35f170a00014358da","6213d4965183f52faaa88798","3","5","30","38","","",""
"2348","key"," "," ","8.31854964539009","500","250","psychophysics","91","376300","0.0-91.0","59306fc35f170a00014358da","6213d4965183f52faaa88798","3","0","47","50","","",""
"1041","key"," "," ","8.318491935484007","500","250","psychophysics","92","377344","0.0-92.0","59306fc35f170a00014358da","6213d4965183f52faaa88798","","","","","","",""
"52937","","","v","","","","html-keyboard-response","93","430282","0.0-93.0","59306fc35f170a00014358da","6213d4965183f52faaa88798","","","","","<p> In this part of the experiment, we are going present digits 1, 2, 3, 4, 6, 7, 8, and 9.  Notice that 5 is missing.  Your job is to say whether the presented digit is less than or greater than 5.  For example, 3 is less than 5 and 7 is greater than 5.  If the digit is less than 5, press the v key; if it is greater than 5, press the n key. We are going to do 200 of these in total, but only 50 righ now. They go real fast.</p>  <br><br>  Ready? (press v or n)","",""
"2888","key","n","n","8.319249999999965","500","250","psychophysics","94","433178","0.0-94.0","59306fc35f170a00014358da","6213d4965183f52faaa88798","4","","","","","1","7"
"null","","","null","","","","html-keyboard-response","95","433681","0.0-95.0","59306fc35f170a00014358da","6213d4965183f52faaa88798","","","","","<p style=""color:darkgreen;font-size:24px;"">Correct :)</p>","",""
"2470","key","v","v","8.31872727272731","500","250","psychophysics","96","436153","0.0-96.0","59306fc35f170a00014358da","6213d4965183f52faaa88798","4","","","","","1","3"
"null","","","null","","","","html-keyboard-response","97","436655","0.0-97.0","59306fc35f170a00014358da","6213d4965183f52faaa88798","","","","","<p style=""color:darkgreen;font-size:24px;"">Correct :)</p>","",""
"2550","key","v","v","8.318563517915306","500","250","psychophysics","98","439208","0.0-98.0","59306fc35f170a00014358da","6213d4965183f52faaa88798","4","","","","","1","3"
"null","","","null","","","","html-keyboard-response","99","439711","0.0-99.0","59306fc35f170a00014358da","6213d4965183f52faaa88798","","","","","<p style=""color:darkgreen;font-size:24px;"">Correct :)</p>","",""
"2603","key","v","v","8.313253205128348","500","250","psychophysics","100","442317","0.0-100.0","59306fc35f170a00014358da","6213d4965183f52faaa88798","4","","","","","1","2"
"null","","","null","","","","html-keyboard-response","101","442818","0.0-101.0","59306fc35f170a00014358da","6213d4965183f52faaa88798","","","","","<p style=""color:darkgreen;font-size:24px;"">Correct :)</p>","",""
"2668","key","v","v","8.318383177570096","500","250","psychophysics","102","445489","0.0-102.0","59306fc35f170a00014358da","6213d4965183f52faaa88798","4","","","","","1","3"
"null","","","null","","","","html-keyboard-response","103","445992","0.0-103.0","59306fc35f170a00014358da","6213d4965183f52faaa88798","","","","","<p style=""color:darkgreen;font-size:24px;"">Correct :)</p>","",""
"2540","key","n","n","8.31852131147533","500","250","psychophysics","104","448535","0.0-104.0","59306fc35f170a00014358da","6213d4965183f52faaa88798","4","","","","","1","9"
"null","","","null","","","","html-keyboard-response","105","449036","0.0-105.0","59306fc35f170a00014358da","6213d4965183f52faaa88798","","","","","<p style=""color:darkgreen;font-size:24px;"">Correct :)</p>","",""
"2451","key","v","v","8.318833898305025","500","250","psychophysics","106","451491","0.0-106.0","59306fc35f170a00014358da","6213d4965183f52faaa88798","4","","","","","1","1"
"null","","","null","","","","html-keyboard-response","107","451993","0.0-107.0","59306fc35f170a00014358da","6213d4965183f52faaa88798","","","","","<p style=""color:darkgreen;font-size:24px;"">Correct :)</p>","",""
"8867","key","v","v","8.318599437148197","500","250","psychophysics","108","460863","0.0-108.0","59306fc35f170a00014358da","6213d4965183f52faaa88798","4","","","","","1","6"
"null","","","null","","","","html-keyboard-response","109","461364","0.0-109.0","59306fc35f170a00014358da","6213d4965183f52faaa88798","","","","","<p style=""color:red;font-size:24px;"">Error :(</p>","",""
"2573","key","v","v","8.400078175895839","500","250","psychophysics","110","463939","0.0-110.0","59306fc35f170a00014358da","6213d4965183f52faaa88798","4","","","","","1","1"
"null","","","null","","","","html-keyboard-response","111","464442","0.0-111.0","59306fc35f170a00014358da","6213d4965183f52faaa88798","","","","","<p style=""color:darkgreen;font-size:24px;"">Correct :)</p>","",""
"2545","key","n","n","8.318643790849688","500","250","psychophysics","112","466989","0.0-112.0","59306fc35f170a00014358da","6213d4965183f52faaa88798","4","","","","","1","7"
"null","","","null","","","","html-keyboard-response","113","467492","0.0-113.0","59306fc35f170a00014358da","6213d4965183f52faaa88798","","","","","<p style=""color:darkgreen;font-size:24px;"">Correct :)</p>","",""
"2729","key","v","v","8.319048780487941","500","250","psychophysics","114","470223","0.0-114.0","59306fc35f170a00014358da","6213d4965183f52faaa88798","4","","","","","1","9"
"null","","","null","","","","html-keyboard-response","115","470725","0.0-115.0","59306fc35f170a00014358da","6213d4965183f52faaa88798","","","","","<p style=""color:red;font-size:24px;"">Error :(</p>","",""
"2611","key","v","v","8.31848407643317","500","250","psychophysics","116","473339","0.0-116.0","59306fc35f170a00014358da","6213d4965183f52faaa88798","4","","","","","1","1"
"null","","","null","","","","html-keyboard-response","117","473841","0.0-117.0","59306fc35f170a00014358da","6213d4965183f52faaa88798","","","","","<p style=""color:darkgreen;font-size:24px;"">Correct :)</p>","",""
"2454","key","v","v","8.347016949152527","500","250","psychophysics","118","476297","0.0-118.0","59306fc35f170a00014358da","6213d4965183f52faaa88798","4","","","","","1","1"
"null","","","null","","","","html-keyboard-response","119","476798","0.0-119.0","59306fc35f170a00014358da","6213d4965183f52faaa88798","","","","","<p style=""color:darkgreen;font-size:24px;"">Correct :)</p>","",""
"2452","key","v","v","8.318671186440584","500","250","psychophysics","120","479253","0.0-120.0","59306fc35f170a00014358da","6213d4965183f52faaa88798","4","","","","","1","4"
"null","","","null","","","","html-keyboard-response","121","479754","0.0-121.0","59306fc35f170a00014358da","6213d4965183f52faaa88798","","","","","<p style=""color:darkgreen;font-size:24px;"">Correct :)</p>","",""
"2584","key","n","n","8.318401929260407","500","250","psychophysics","122","482341","0.0-122.0","59306fc35f170a00014358da","6213d4965183f52faaa88798","4","","","","","1","9"
"null","","","null","","","","html-keyboard-response","123","482842","0.0-123.0","59306fc35f170a00014358da","6213d4965183f52faaa88798","","","","","<p style=""color:darkgreen;font-size:24px;"">Correct :)</p>","",""
"2480","key","v","v","8.346909395973206","500","250","psychophysics","124","485325","0.0-124.0","59306fc35f170a00014358da","6213d4965183f52faaa88798","4","","","","","1","8"
"null","","","null","","","","html-keyboard-response","125","485826","0.0-125.0","59306fc35f170a00014358da","6213d4965183f52faaa88798","","","","","<p style=""color:red;font-size:24px;"">Error :(</p>","",""
"2529","key","n","n","8.318973684210505","500","250","psychophysics","126","488357","0.0-126.0","59306fc35f170a00014358da","6213d4965183f52faaa88798","4","","","","","1","6"
"null","","","null","","","","html-keyboard-response","127","488860","0.0-127.0","59306fc35f170a00014358da","6213d4965183f52faaa88798","","","","","<p style=""color:darkgreen;font-size:24px;"">Correct :)</p>","",""
"2677","key","v","v","8.344834890965673","500","250","psychophysics","128","491539","0.0-128.0","59306fc35f170a00014358da","6213d4965183f52faaa88798","4","","","","","1","3"
"null","","","null","","","","html-keyboard-response","129","492040","0.0-129.0","59306fc35f170a00014358da","6213d4965183f52faaa88798","","","","","<p style=""color:darkgreen;font-size:24px;"">Correct :)</p>","",""
"2521","key","n","n","8.318435643564467","500","250","psychophysics","130","494563","0.0-130.0","59306fc35f170a00014358da","6213d4965183f52faaa88798","4","","","","","1","7"
"null","","","null","","","","html-keyboard-response","131","495064","0.0-131.0","59306fc35f170a00014358da","6213d4965183f52faaa88798","","","","","<p style=""color:darkgreen;font-size:24px;"">Correct :)</p>","",""
"2721","key","v","v","8.318700305810475","500","250","psychophysics","132","497787","0.0-132.0","59306fc35f170a00014358da","6213d4965183f52faaa88798","4","","","","","1","3"
"null","","","null","","","","html-keyboard-response","133","498289","0.0-133.0","59306fc35f170a00014358da","6213d4965183f52faaa88798","","","","","<p style=""color:darkgreen;font-size:24px;"">Correct :)</p>","",""
"2520","key","v","v","8.34584437086095","500","250","psychophysics","134","500811","0.0-134.0","59306fc35f170a00014358da","6213d4965183f52faaa88798","4","","","","","1","2"
"null","","","null","","","","html-keyboard-response","135","501313","0.0-135.0","59306fc35f170a00014358da","6213d4965183f52faaa88798","","","","","<p style=""color:darkgreen;font-size:24px;"">Correct :)</p>","",""
"2430","key","v","v","8.318318493150562","500","250","psychophysics","136","503745","0.0-136.0","59306fc35f170a00014358da","6213d4965183f52faaa88798","4","","","","","1","3"
"null","","","null","","","","html-keyboard-response","137","504247","0.0-137.0","59306fc35f170a00014358da","6213d4965183f52faaa88798","","","","","<p style=""color:darkgreen;font-size:24px;"">Correct :)</p>","",""
"2490","key","n","n","8.319297658862977","500","250","psychophysics","138","506739","0.0-138.0","59306fc35f170a00014358da","6213d4965183f52faaa88798","4","","","","","1","7"
"null","","","null","","","","html-keyboard-response","139","507241","0.0-139.0","59306fc35f170a00014358da","6213d4965183f52faaa88798","","","","","<p style=""color:darkgreen;font-size:24px;"">Correct :)</p>","",""
"3760","key","n","n","8.336446902654917","500","250","psychophysics","140","511003","0.0-140.0","59306fc35f170a00014358da","6213d4965183f52faaa88798","4","","","","","1","9"
"null","","","null","","","","html-keyboard-response","141","511504","0.0-141.0","59306fc35f170a00014358da","6213d4965183f52faaa88798","","","","","<p style=""color:darkgreen;font-size:24px;"">Correct :)</p>","",""
"2436","key","v","v","8.318174061433368","500","250","psychophysics","142","513943","0.0-142.0","59306fc35f170a00014358da","6213d4965183f52faaa88798","4","","","","","1","2"
"null","","","null","","","","html-keyboard-response","143","514444","0.0-143.0","59306fc35f170a00014358da","6213d4965183f52faaa88798","","","","","<p style=""color:darkgreen;font-size:24px;"">Correct :)</p>","",""
"659","key","v","v","8.425050632910997","500","250","psychophysics","144","515104","0.0-144.0","59306fc35f170a00014358da","6213d4965183f52faaa88798","4","","","","","1","8"
"null","","","null","","","","html-keyboard-response","145","515605","0.0-145.0","59306fc35f170a00014358da","6213d4965183f52faaa88798","","","","","<p style=""color:red;font-size:24px;"">Error :(</p>","",""
"2487","key","v","v","8.319053511705675","500","250","psychophysics","146","518095","0.0-146.0","59306fc35f170a00014358da","6213d4965183f52faaa88798","4","","","","","1","1"
"null","","","null","","","","html-keyboard-response","147","518597","0.0-147.0","59306fc35f170a00014358da","6213d4965183f52faaa88798","","","","","<p style=""color:darkgreen;font-size:24px;"">Correct :)</p>","",""
"835","key","n","n","8.321479999999864","500","250","psychophysics","148","519435","0.0-148.0","59306fc35f170a00014358da","6213d4965183f52faaa88798","4","","","","","1","6"
"null","","","null","","","","html-keyboard-response","149","519936","0.0-149.0","59306fc35f170a00014358da","6213d4965183f52faaa88798","","","","","<p style=""color:darkgreen;font-size:24px;"">Correct :)</p>","",""
"2513","key","v","v","8.318705298013281","500","250","psychophysics","150","522451","0.0-150.0","59306fc35f170a00014358da","6213d4965183f52faaa88798","4","","","","","1","1"
"null","","","null","","","","html-keyboard-response","151","522952","0.0-151.0","59306fc35f170a00014358da","6213d4965183f52faaa88798","","","","","<p style=""color:darkgreen;font-size:24px;"">Correct :)</p>","",""
"2746","key","v","v","8.318389728096465","500","250","psychophysics","152","525701","0.0-152.0","59306fc35f170a00014358da","6213d4965183f52faaa88798","4","","","","","1","3"
"null","","","null","","","","html-keyboard-response","153","526202","0.0-153.0","59306fc35f170a00014358da","6213d4965183f52faaa88798","","","","","<p style=""color:darkgreen;font-size:24px;"">Correct :)</p>","",""
"2476","key","v","v","8.31887919463072","500","250","psychophysics","154","528681","0.0-154.0","59306fc35f170a00014358da","6213d4965183f52faaa88798","4","","","","","1","1"
"null","","","null","","","","html-keyboard-response","155","529181","0.0-155.0","59306fc35f170a00014358da","6213d4965183f52faaa88798","","","","","<p style=""color:darkgreen;font-size:24px;"">Correct :)</p>","",""
"2550","key","v","v","8.318407166123933","500","250","psychophysics","156","531733","0.0-156.0","59306fc35f170a00014358da","6213d4965183f52faaa88798","4","","","","","1","2"
"null","","","null","","","","html-keyboard-response","157","532235","0.0-157.0","59306fc35f170a00014358da","6213d4965183f52faaa88798","","","","","<p style=""color:darkgreen;font-size:24px;"">Correct :)</p>","",""
"2520","key","n","n","8.318858085808778","500","250","psychophysics","158","534757","0.0-158.0","59306fc35f170a00014358da","6213d4965183f52faaa88798","4","","","","","1","6"
"null","","","null","","","","html-keyboard-response","159","535258","0.0-159.0","59306fc35f170a00014358da","6213d4965183f52faaa88798","","","","","<p style=""color:darkgreen;font-size:24px;"">Correct :)</p>","",""
"2562","key","v","v","8.318324675324657","500","250","psychophysics","160","537823","0.0-160.0","59306fc35f170a00014358da","6213d4965183f52faaa88798","4","","","","","1","1"
"null","","","null","","","","html-keyboard-response","161","538324","0.0-161.0","59306fc35f170a00014358da","6213d4965183f52faaa88798","","","","","<p style=""color:darkgreen;font-size:24px;"">Correct :)</p>","",""
"2764","key","n","n","8.318537537537463","500","250","psychophysics","162","541091","0.0-162.0","59306fc35f170a00014358da","6213d4965183f52faaa88798","4","","","","","1","8"
"null","","","null","","","","html-keyboard-response","163","541592","0.0-163.0","59306fc35f170a00014358da","6213d4965183f52faaa88798","","","","","<p style=""color:darkgreen;font-size:24px;"">Correct :)</p>","",""
"40331","key","n","n","8.323732714138284","500","250","psychophysics","164","581924","0.0-164.0","59306fc35f170a00014358da","6213d4965183f52faaa88798","4","","","","","1","9"
"null","","","null","","","","html-keyboard-response","165","582427","0.0-165.0","59306fc35f170a00014358da","6213d4965183f52faaa88798","","","","","<p style=""color:darkgreen;font-size:24px;"">Correct :)</p>","",""
"3517","key","n","n","8.318895981087564","500","250","psychophysics","166","585946","0.0-166.0","59306fc35f170a00014358da","6213d4965183f52faaa88798","4","","","","","1","6"
"null","","","null","","","","html-keyboard-response","167","586448","0.0-167.0","59306fc35f170a00014358da","6213d4965183f52faaa88798","","","","","<p style=""color:darkgreen;font-size:24px;"">Correct :)</p>","",""
"3159","key","n","n","8.318721052631735","500","250","psychophysics","168","589610","0.0-168.0","59306fc35f170a00014358da","6213d4965183f52faaa88798","4","","","","","1","8"
"null","","","null","","","","html-keyboard-response","169","590111","0.0-169.0","59306fc35f170a00014358da","6213d4965183f52faaa88798","","","","","<p style=""color:darkgreen;font-size:24px;"">Correct :)</p>","",""
"3099","key","v","v","8.318704301075476","500","250","psychophysics","170","593213","0.0-170.0","59306fc35f170a00014358da","6213d4965183f52faaa88798","4","","","","","1","1"
"null","","","null","","","","html-keyboard-response","171","593714","0.0-171.0","59306fc35f170a00014358da","6213d4965183f52faaa88798","","","","","<p style=""color:darkgreen;font-size:24px;"">Correct :)</p>","",""
"2785","key","n","n","8.31865671641791","500","250","psychophysics","172","596500","0.0-172.0","59306fc35f170a00014358da","6213d4965183f52faaa88798","4","","","","","1","8"
"null","","","null","","","","html-keyboard-response","173","597001","0.0-173.0","59306fc35f170a00014358da","6213d4965183f52faaa88798","","","","","<p style=""color:darkgreen;font-size:24px;"">Correct :)</p>","",""
"2668","key","n","n","8.318657320872243","500","250","psychophysics","174","599671","0.0-174.0","59306fc35f170a00014358da","6213d4965183f52faaa88798","4","","","","","1","8"
"null","","","null","","","","html-keyboard-response","175","600172","0.0-175.0","59306fc35f170a00014358da","6213d4965183f52faaa88798","","","","","<p style=""color:darkgreen;font-size:24px;"">Correct :)</p>","",""
"2689","key","n","n","8.319052631578959","500","250","psychophysics","176","602863","0.0-176.0","59306fc35f170a00014358da","6213d4965183f52faaa88798","4","","","","","1","8"
"null","","","null","","","","html-keyboard-response","177","603364","0.0-177.0","59306fc35f170a00014358da","6213d4965183f52faaa88798","","","","","<p style=""color:darkgreen;font-size:24px;"">Correct :)</p>","",""
"3370","key","v","v","8.318387654320809","500","250","psychophysics","178","606737","0.0-178.0","59306fc35f170a00014358da","6213d4965183f52faaa88798","4","","","","","1","2"
"null","","","null","","","","html-keyboard-response","179","607239","0.0-179.0","59306fc35f170a00014358da","6213d4965183f52faaa88798","","","","","<p style=""color:darkgreen;font-size:24px;"">Correct :)</p>","",""
"4944","key","v","v","11.598105633802966","500","250","psychophysics","180","612185","0.0-180.0","59306fc35f170a00014358da","6213d4965183f52faaa88798","4","","","","","1","4"
"null","","","null","","","","html-keyboard-response","181","612688","0.0-181.0","59306fc35f170a00014358da","6213d4965183f52faaa88798","","","","","<p style=""color:darkgreen;font-size:24px;"">Correct :)</p>","",""
"3605","key","v","v","8.317972286374204","500","250","psychophysics","182","616295","0.0-182.0","59306fc35f170a00014358da","6213d4965183f52faaa88798","4","","","","","1","3"
"null","","","null","","","","html-keyboard-response","183","616796","0.0-183.0","59306fc35f170a00014358da","6213d4965183f52faaa88798","","","","","<p style=""color:darkgreen;font-size:24px;"">Correct :)</p>","",""
"2522","key","v","v","8.318643564356433","500","250","psychophysics","184","619320","0.0-184.0","59306fc35f170a00014358da","6213d4965183f52faaa88798","4","","","","","1","2"
"null","","","null","","","","html-keyboard-response","185","619821","0.0-185.0","59306fc35f170a00014358da","6213d4965183f52faaa88798","","","","","<p style=""color:darkgreen;font-size:24px;"">Correct :)</p>","",""
"3415","key","v","v","8.31850608272496","500","250","psychophysics","186","623239","0.0-186.0","59306fc35f170a00014358da","6213d4965183f52faaa88798","4","","","","","1","4"
"null","","","null","","","","html-keyboard-response","187","623740","0.0-187.0","59306fc35f170a00014358da","6213d4965183f52faaa88798","","","","","<p style=""color:darkgreen;font-size:24px;"">Correct :)</p>","",""
"2629","key","v","v","8.318677215189659","500","250","psychophysics","188","626371","0.0-188.0","59306fc35f170a00014358da","6213d4965183f52faaa88798","4","","","","","1","1"
"null","","","null","","","","html-keyboard-response","189","626873","0.0-189.0","59306fc35f170a00014358da","6213d4965183f52faaa88798","","","","","<p style=""color:darkgreen;font-size:24px;"">Correct :)</p>","",""
"1023","key","n","n","8.318520325203842","500","250","psychophysics","190","627898","0.0-190.0","59306fc35f170a00014358da","6213d4965183f52faaa88798","4","","","","","1","7"
"null","","","null","","","","html-keyboard-response","191","628401","0.0-191.0","59306fc35f170a00014358da","6213d4965183f52faaa88798","","","","","<p style=""color:darkgreen;font-size:24px;"">Correct :)</p>","",""
"3260","key","v","v","8.318535714285515","500","250","psychophysics","192","631662","0.0-192.0","59306fc35f170a00014358da","6213d4965183f52faaa88798","4","","","","","1","1"
"null","","","null","","","","html-keyboard-response","193","632165","0.0-193.0","59306fc35f170a00014358da","6213d4965183f52faaa88798","","","","","<p style=""color:darkgreen;font-size:24px;"">Correct :)</p>","",""
"6413","","","n","","","","html-keyboard-response","194","638578","0.0-194.0","59306fc35f170a00014358da","6213d4965183f52faaa88798","","","","","<p> Ok, now we are going present the same digits as before.  Your job is to say whether the digit is even or odd  If the digit is odd, press to v key; if it is even, press the n key. We are going to do 50 of these.  </p>  <br><br>  Ready? (press v or n)","",""
"2804","key","v","v","8.319543026706192","500","250","psychophysics","195","641385","0.0-195.0","59306fc35f170a00014358da","6213d4965183f52faaa88798","5","","","","","0","7"
"null","","","null","","","","html-keyboard-response","196","641887","0.0-196.0","59306fc35f170a00014358da","6213d4965183f52faaa88798","","","","","<p style=""color:darkgreen;font-size:24px;"">Correct :)</p>","",""
"2555","key","v","v","8.318951140064973","500","250","psychophysics","197","644444","0.0-197.0","59306fc35f170a00014358da","6213d4965183f52faaa88798","5","","","","","0","3"
"null","","","null","","","","html-keyboard-response","198","644945","0.0-198.0","59306fc35f170a00014358da","6213d4965183f52faaa88798","","","","","<p style=""color:darkgreen;font-size:24px;"">Correct :)</p>","",""
"2411","key","v","v","8.347148788927338","500","250","psychophysics","199","647358","0.0-199.0","59306fc35f170a00014358da","6213d4965183f52faaa88798","5","","","","","0","3"
"null","","","null","","","","html-keyboard-response","200","647859","0.0-200.0","59306fc35f170a00014358da","6213d4965183f52faaa88798","","","","","<p style=""color:darkgreen;font-size:24px;"">Correct :)</p>","",""
"2536","key","v","v","8.318924590163926","500","250","psychophysics","201","650397","0.0-201.0","59306fc35f170a00014358da","6213d4965183f52faaa88798","5","","","","","0","1"
"null","","","null","","","","html-keyboard-response","202","650898","0.0-202.0","59306fc35f170a00014358da","6213d4965183f52faaa88798","","","","","<p style=""color:darkgreen;font-size:24px;"">Correct :)</p>","",""
"2342","key","n","n","8.31835106382987","500","250","psychophysics","203","653242","0.0-203.0","59306fc35f170a00014358da","6213d4965183f52faaa88798","5","","","","","0","4"
"null","","","null","","","","html-keyboard-response","204","653743","0.0-204.0","59306fc35f170a00014358da","6213d4965183f52faaa88798","","","","","<p style=""color:darkgreen;font-size:24px;"">Correct :)</p>","",""
"2693","key","v","v","8.318648148148053","500","250","psychophysics","205","656438","0.0-205.0","59306fc35f170a00014358da","6213d4965183f52faaa88798","5","","","","","0","9"
"null","","","null","","","","html-keyboard-response","206","656941","0.0-206.0","59306fc35f170a00014358da","6213d4965183f52faaa88798","","","","","<p style=""color:darkgreen;font-size:24px;"">Correct :)</p>","",""
"128917","key","v","v","8.320704724409445","500","250","psychophysics","207","785860","0.0-207.0","59306fc35f170a00014358da","6213d4965183f52faaa88798","5","","","","","0","3"
"null","","","null","","","","html-keyboard-response","208","786362","0.0-208.0","59306fc35f170a00014358da","6213d4965183f52faaa88798","","","","","<p style=""color:darkgreen;font-size:24px;"">Correct :)</p>","",""
"2608","key","v","v","8.318747603833621","500","250","psychophysics","209","788972","0.0-209.0","59306fc35f170a00014358da","6213d4965183f52faaa88798","5","","","","","0","3"
"null","","","null","","","","html-keyboard-response","210","789473","0.0-210.0","59306fc35f170a00014358da","6213d4965183f52faaa88798","","","","","<p style=""color:darkgreen;font-size:24px;"">Correct :)</p>","",""
"2511","key","n","n","8.318039735099562","500","250","psychophysics","211","791986","0.0-211.0","59306fc35f170a00014358da","6213d4965183f52faaa88798","5","","","","","0","9"
"null","","","null","","","","html-keyboard-response","212","792487","0.0-212.0","59306fc35f170a00014358da","6213d4965183f52faaa88798","","","","","<p style=""color:red;font-size:24px;"">Error :(</p>","",""
"2739","key","n","n","8.31879027355618","500","250","psychophysics","213","795228","0.0-213.0","59306fc35f170a00014358da","6213d4965183f52faaa88798","5","","","","","0","2"
"null","","","null","","","","html-keyboard-response","214","795729","0.0-214.0","59306fc35f170a00014358da","6213d4965183f52faaa88798","","","","","<p style=""color:darkgreen;font-size:24px;"">Correct :)</p>","",""
"2514","key","v","v","8.31828807947027","500","250","psychophysics","215","798246","0.0-215.0","59306fc35f170a00014358da","6213d4965183f52faaa88798","5","","","","","0","2"
"null","","","null","","","","html-keyboard-response","216","798747","0.0-216.0","59306fc35f170a00014358da","6213d4965183f52faaa88798","","","","","<p style=""color:red;font-size:24px;"">Error :(</p>","",""
"2525","key","n","n","8.318838283828407","500","250","psychophysics","217","801275","0.0-217.0","59306fc35f170a00014358da","6213d4965183f52faaa88798","5","","","","","0","2"
"null","","","null","","","","html-keyboard-response","218","801777","0.0-218.0","59306fc35f170a00014358da","6213d4965183f52faaa88798","","","","","<p style=""color:darkgreen;font-size:24px;"">Correct :)</p>","",""
"2475","key","v","v","8.318747474747688","500","250","psychophysics","219","804254","0.0-219.0","59306fc35f170a00014358da","6213d4965183f52faaa88798","5","","","","","0","1"
"null","","","null","","","","html-keyboard-response","220","804755","0.0-220.0","59306fc35f170a00014358da","6213d4965183f52faaa88798","","","","","<p style=""color:darkgreen;font-size:24px;"">Correct :)</p>","",""
"2721","key","n","n","8.318657492354744","500","250","psychophysics","221","807478","0.0-221.0","59306fc35f170a00014358da","6213d4965183f52faaa88798","5","","","","","0","4"
"null","","","null","","","","html-keyboard-response","222","807981","0.0-222.0","59306fc35f170a00014358da","6213d4965183f52faaa88798","","","","","<p style=""color:darkgreen;font-size:24px;"">Correct :)</p>","",""
"2666","key","n","n","8.34482187499998","500","250","psychophysics","223","810648","0.0-223.0","59306fc35f170a00014358da","6213d4965183f52faaa88798","5","","","","","0","2"
"null","","","null","","","","html-keyboard-response","224","811150","0.0-224.0","59306fc35f170a00014358da","6213d4965183f52faaa88798","","","","","<p style=""color:darkgreen;font-size:24px;"">Correct :)</p>","",""
"2733","key","v","v","8.344164634146514","500","250","psychophysics","225","813885","0.0-225.0","59306fc35f170a00014358da","6213d4965183f52faaa88798","5","","","","","0","1"
"null","","","null","","","","html-keyboard-response","226","814385","0.0-226.0","59306fc35f170a00014358da","6213d4965183f52faaa88798","","","","","<p style=""color:darkgreen;font-size:24px;"">Correct :)</p>","",""
"2374","key","n","n","8.347540350877189","500","250","psychophysics","227","816762","0.0-227.0","59306fc35f170a00014358da","6213d4965183f52faaa88798","5","","","","","0","2"
"null","","","null","","","","html-keyboard-response","228","817263","0.0-228.0","59306fc35f170a00014358da","6213d4965183f52faaa88798","","","","","<p style=""color:darkgreen;font-size:24px;"">Correct :)</p>","",""
"2577","key","n","n","8.319012903225714","500","250","psychophysics","229","819843","0.0-229.0","59306fc35f170a00014358da","6213d4965183f52faaa88798","5","","","","","0","4"
"null","","","null","","","","html-keyboard-response","230","820344","0.0-230.0","59306fc35f170a00014358da","6213d4965183f52faaa88798","","","","","<p style=""color:darkgreen;font-size:24px;"">Correct :)</p>","",""
"2564","key","v","v","8.319090909090999","500","250","psychophysics","231","822910","0.0-231.0","59306fc35f170a00014358da","6213d4965183f52faaa88798","5","","","","","0","9"
"null","","","null","","","","html-keyboard-response","232","823412","0.0-232.0","59306fc35f170a00014358da","6213d4965183f52faaa88798","","","","","<p style=""color:darkgreen;font-size:24px;"">Correct :)</p>","",""
"2762","key","n","n","8.343515060241026","500","250","psychophysics","233","826176","0.0-233.0","59306fc35f170a00014358da","6213d4965183f52faaa88798","5","","","","","0","2"
"null","","","null","","","","html-keyboard-response","234","826677","0.0-234.0","59306fc35f170a00014358da","6213d4965183f52faaa88798","","","","","<p style=""color:darkgreen;font-size:24px;"">Correct :)</p>","",""
"2544","key","n","n","8.318633986928035","500","250","psychophysics","235","829224","0.0-235.0","59306fc35f170a00014358da","6213d4965183f52faaa88798","5","","","","","0","2"
"null","","","null","","","","html-keyboard-response","236","829726","0.0-236.0","59306fc35f170a00014358da","6213d4965183f52faaa88798","","","","","<p style=""color:darkgreen;font-size:24px;"">Correct :)</p>","",""
"2560","key","n","n","8.318791530944456","500","250","psychophysics","237","832288","0.0-237.0","59306fc35f170a00014358da","6213d4965183f52faaa88798","5","","","","","0","4"
"null","","","null","","","","html-keyboard-response","238","832791","0.0-238.0","59306fc35f170a00014358da","6213d4965183f52faaa88798","","","","","<p style=""color:darkgreen;font-size:24px;"">Correct :)</p>","",""
"2474","key","n","n","8.318610738255021","500","250","psychophysics","239","835267","0.0-239.0","59306fc35f170a00014358da","6213d4965183f52faaa88798","5","","","","","0","2"
"null","","","null","","","","html-keyboard-response","240","835769","0.0-240.0","59306fc35f170a00014358da","6213d4965183f52faaa88798","","","","","<p style=""color:darkgreen;font-size:24px;"">Correct :)</p>","",""
"2579","key","n","n","8.318880645161299","500","250","psychophysics","241","838350","0.0-241.0","59306fc35f170a00014358da","6213d4965183f52faaa88798","5","","","","","0","4"
"null","","","null","","","","html-keyboard-response","242","838851","0.0-242.0","59306fc35f170a00014358da","6213d4965183f52faaa88798","","","","","<p style=""color:darkgreen;font-size:24px;"">Correct :)</p>","",""
"2490","key","n","n","8.346040133779313","500","250","psychophysics","243","841344","0.0-243.0","59306fc35f170a00014358da","6213d4965183f52faaa88798","5","","","","","0","2"
"null","","","null","","","","html-keyboard-response","244","841846","0.0-244.0","59306fc35f170a00014358da","6213d4965183f52faaa88798","","","","","<p style=""color:darkgreen;font-size:24px;"">Correct :)</p>","",""
"2752","key","v","v","8.318615151515273","500","250","psychophysics","245","844600","0.0-245.0","59306fc35f170a00014358da","6213d4965183f52faaa88798","5","","","","","0","1"
"null","","","null","","","","html-keyboard-response","246","845103","0.0-246.0","59306fc35f170a00014358da","6213d4965183f52faaa88798","","","","","<p style=""color:darkgreen;font-size:24px;"">Correct :)</p>","",""
"2659","key","n","n","8.318565625000337","500","250","psychophysics","247","847764","0.0-247.0","59306fc35f170a00014358da","6213d4965183f52faaa88798","5","","","","","0","8"
"null","","","null","","","","html-keyboard-response","248","848266","0.0-248.0","59306fc35f170a00014358da","6213d4965183f52faaa88798","","","","","<p style=""color:darkgreen;font-size:24px;"">Correct :)</p>","",""
"2713","key","n","n","8.318278287461565","500","250","psychophysics","249","850982","0.0-249.0","59306fc35f170a00014358da","6213d4965183f52faaa88798","5","","","","","0","2"
"null","","","null","","","","html-keyboard-response","250","851483","0.0-250.0","59306fc35f170a00014358da","6213d4965183f52faaa88798","","","","","<p style=""color:darkgreen;font-size:24px;"">Correct :)</p>","",""
"2862","key","v","v","8.318276162790934","500","250","psychophysics","251","854348","0.0-251.0","59306fc35f170a00014358da","6213d4965183f52faaa88798","5","","","","","0","9"
"null","","","null","","","","html-keyboard-response","252","854849","0.0-252.0","59306fc35f170a00014358da","6213d4965183f52faaa88798","","","","","<p style=""color:darkgreen;font-size:24px;"">Correct :)</p>","",""
"2605","key","n","n","8.318412140575267","500","250","psychophysics","253","857456","0.0-253.0","59306fc35f170a00014358da","6213d4965183f52faaa88798","5","","","","","0","4"
"null","","","null","","","","html-keyboard-response","254","857957","0.0-254.0","59306fc35f170a00014358da","6213d4965183f52faaa88798","","","","","<p style=""color:darkgreen;font-size:24px;"">Correct :)</p>","",""
"2498","key","n","n","8.31923255813927","500","250","psychophysics","255","860457","0.0-255.0","59306fc35f170a00014358da","6213d4965183f52faaa88798","5","","","","","0","8"
"null","","","null","","","","html-keyboard-response","256","860959","0.0-256.0","59306fc35f170a00014358da","6213d4965183f52faaa88798","","","","","<p style=""color:darkgreen;font-size:24px;"">Correct :)</p>","",""
"2892","key","v","v","8.318649425287397","500","250","psychophysics","257","863854","0.0-257.0","59306fc35f170a00014358da","6213d4965183f52faaa88798","5","","","","","0","9"
"null","","","null","","","","html-keyboard-response","258","864355","0.0-258.0","59306fc35f170a00014358da","6213d4965183f52faaa88798","","","","","<p style=""color:darkgreen;font-size:24px;"">Correct :)</p>","",""
"2384","key","n","n","8.347902097902098","500","250","psychophysics","259","866742","0.0-259.0","59306fc35f170a00014358da","6213d4965183f52faaa88798","5","","","","","0","6"
"null","","","null","","","","html-keyboard-response","260","867244","0.0-260.0","59306fc35f170a00014358da","6213d4965183f52faaa88798","","","","","<p style=""color:darkgreen;font-size:24px;"">Correct :)</p>","",""
"2632","key","n","n","8.318550632911428","500","250","psychophysics","261","869878","0.0-261.0","59306fc35f170a00014358da","6213d4965183f52faaa88798","5","","","","","0","4"
"null","","","null","","","","html-keyboard-response","262","870380","0.0-262.0","59306fc35f170a00014358da","6213d4965183f52faaa88798","","","","","<p style=""color:darkgreen;font-size:24px;"">Correct :)</p>","",""
"2688","key","n","n","8.319204334365335","500","250","psychophysics","263","873070","0.0-263.0","59306fc35f170a00014358da","6213d4965183f52faaa88798","5","","","","","0","6"
"null","","","null","","","","html-keyboard-response","264","873571","0.0-264.0","59306fc35f170a00014358da","6213d4965183f52faaa88798","","","","","<p style=""color:darkgreen;font-size:24px;"">Correct :)</p>","",""
"2677","key","v","v","8.31896894409933","500","250","psychophysics","265","876250","0.0-265.0","59306fc35f170a00014358da","6213d4965183f52faaa88798","5","","","","","0","3"
"null","","","null","","","","html-keyboard-response","266","876751","0.0-266.0","59306fc35f170a00014358da","6213d4965183f52faaa88798","","","","","<p style=""color:darkgreen;font-size:24px;"">Correct :)</p>","",""
"3094","key","n","n","8.318513440860432","500","250","psychophysics","267","879848","0.0-267.0","59306fc35f170a00014358da","6213d4965183f52faaa88798","5","","","","","0","1"
"null","","","null","","","","html-keyboard-response","268","880349","0.0-268.0","59306fc35f170a00014358da","6213d4965183f52faaa88798","","","","","<p style=""color:red;font-size:24px;"">Error :(</p>","",""
"2667","key","n","n","8.318364485981512","500","250","psychophysics","269","883018","0.0-269.0","59306fc35f170a00014358da","6213d4965183f52faaa88798","5","","","","","0","2"
"null","","","null","","","","html-keyboard-response","270","883518","0.0-270.0","59306fc35f170a00014358da","6213d4965183f52faaa88798","","","","","<p style=""color:darkgreen;font-size:24px;"">Correct :)</p>","",""
"3325","key","n","n","8.318862842892917","500","250","psychophysics","271","886851","0.0-271.0","59306fc35f170a00014358da","6213d4965183f52faaa88798","5","","","","","0","6"
"null","","","null","","","","html-keyboard-response","272","887352","0.0-272.0","59306fc35f170a00014358da","6213d4965183f52faaa88798","","","","","<p style=""color:darkgreen;font-size:24px;"">Correct :)</p>","",""
"2298","key","n","n","8.318568840579879","500","250","psychophysics","273","889652","0.0-273.0","59306fc35f170a00014358da","6213d4965183f52faaa88798","5","","","","","0","9"
"null","","","null","","","","html-keyboard-response","274","890154","0.0-274.0","59306fc35f170a00014358da","6213d4965183f52faaa88798","","","","","<p style=""color:red;font-size:24px;"">Error :(</p>","",""
"2524","key","n","n","8.318396039604112","500","250","psychophysics","275","892680","0.0-275.0","59306fc35f170a00014358da","6213d4965183f52faaa88798","5","","","","","0","2"
"null","","","null","","","","html-keyboard-response","276","893181","0.0-276.0","59306fc35f170a00014358da","6213d4965183f52faaa88798","","","","","<p style=""color:darkgreen;font-size:24px;"">Correct :)</p>","",""
"590","key","v","v","8.318985915493588","500","250","psychophysics","277","893774","0.0-277.0","59306fc35f170a00014358da","6213d4965183f52faaa88798","5","","","","","0","3"
"null","","","null","","","","html-keyboard-response","278","894276","0.0-278.0","59306fc35f170a00014358da","6213d4965183f52faaa88798","","","","","<p style=""color:darkgreen;font-size:24px;"">Correct :)</p>","",""
"483","key","v","v","8.320169491525661","500","250","psychophysics","279","894762","0.0-279.0","59306fc35f170a00014358da","6213d4965183f52faaa88798","5","","","","","0","1"
"null","","","null","","","","html-keyboard-response","280","895263","0.0-280.0","59306fc35f170a00014358da","6213d4965183f52faaa88798","","","","","<p style=""color:darkgreen;font-size:24px;"">Correct :)</p>","",""
"149","key","n","n","8.320388888888475","500","250","psychophysics","281","895414","0.0-281.0","59306fc35f170a00014358da","6213d4965183f52faaa88798","5","","","","","0","1"
"null","","","null","","","","html-keyboard-response","282","895916","0.0-282.0","59306fc35f170a00014358da","6213d4965183f52faaa88798","","","","","<p style=""color:red;font-size:24px;"">Error :(</p>","",""
"253","key","v","v","8.59890000000208","500","250","psychophysics","283","896172","0.0-283.0","59306fc35f170a00014358da","6213d4965183f52faaa88798","5","","","","","0","7"
"null","","","null","","","","html-keyboard-response","284","896673","0.0-284.0","59306fc35f170a00014358da","6213d4965183f52faaa88798","","","","","<p style=""color:darkgreen;font-size:24px;"">Correct :)</p>","",""
"197","key","v","v","8.682652173913084","500","250","psychophysics","285","896872","0.0-285.0","59306fc35f170a00014358da","6213d4965183f52faaa88798","5","","","","","0","3"
"null","","","null","","","","html-keyboard-response","286","897374","0.0-286.0","59306fc35f170a00014358da","6213d4965183f52faaa88798","","","","","<p style=""color:darkgreen;font-size:24px;"">Correct :)</p>","",""
"231","key","v","v","8.319214285713056","500","250","psychophysics","287","897608","0.0-287.0","59306fc35f170a00014358da","6213d4965183f52faaa88798","5","","","","","0","2"
"null","","","null","","","","html-keyboard-response","288","898108","0.0-288.0","59306fc35f170a00014358da","6213d4965183f52faaa88798","","","","","<p style=""color:red;font-size:24px;"">Error :(</p>","",""
"181","key","n","n","8.318272727277046","500","250","psychophysics","289","898292","0.0-289.0","59306fc35f170a00014358da","6213d4965183f52faaa88798","5","","","","","0","9"
"null","","","null","","","","html-keyboard-response","290","898793","0.0-290.0","59306fc35f170a00014358da","6213d4965183f52faaa88798","","","","","<p style=""color:red;font-size:24px;"">Error :(</p>","",""
"126","key","n","n","8.317937499996333","500","250","psychophysics","291","898922","0.0-291.0","59306fc35f170a00014358da","6213d4965183f52faaa88798","5","","","","","0","8"
"null","","","null","","","","html-keyboard-response","292","899423","0.0-292.0","59306fc35f170a00014358da","6213d4965183f52faaa88798","","","","","<p style=""color:darkgreen;font-size:24px;"">Correct :)</p>","",""
"121","key","v","v","8.315333333332092","500","250","psychophysics","293","899546","0.0-293.0","59306fc35f170a00014358da","6213d4965183f52faaa88798","5","","","","","0","9"
"null","","","null","","","","html-keyboard-response","294","900048","0.0-294.0","59306fc35f170a00014358da","6213d4965183f52faaa88798","","","","","<p style=""color:darkgreen;font-size:24px;"">Correct :)</p>","",""
"111","","","v","","","","html-keyboard-response","295","900160","0.0-295.0","59306fc35f170a00014358da","6213d4965183f52faaa88798","","","","","<p> Here, the tasks are going to switch.  For some trials, your job is to decide if the digit is less than or greater than 5.  For others, it is to decide if the digit is even or odd.  You will be told which type of trial the current one is.  But, pay attention, the type of trial changes too.  We are going to do 50 of these.  </p>  <br><br>  Ready? (press v or n)","",""
"2930","key","v","v","8.31840340909085","500","250","psychophysics","296","903092","0.0-296.0","59306fc35f170a00014358da","6213d4965183f52faaa88798","6","","","","","0","1"
"null","","","null","","","","html-keyboard-response","297","903593","0.0-297.0","59306fc35f170a00014358da","6213d4965183f52faaa88798","","","","","<p style=""color:darkgreen;font-size:24px;"">Correct :)</p>","",""
"2034","key","n","n","8.318730612244572","500","250","psychophysics","298","905630","0.0-298.0","59306fc35f170a00014358da","6213d4965183f52faaa88798","6","","","","","1","3"
"null","","","null","","","","html-keyboard-response","299","906132","0.0-299.0","59306fc35f170a00014358da","6213d4965183f52faaa88798","","","","","<p style=""color:red;font-size:24px;"">Error :(</p>","",""
"238","key","v","v","8.322857142854316","500","250","psychophysics","300","906372","0.0-300.0","59306fc35f170a00014358da","6213d4965183f52faaa88798","6","","","","","0","1"
"null","","","null","","","","html-keyboard-response","301","906874","0.0-301.0","59306fc35f170a00014358da","6213d4965183f52faaa88798","","","","","<p style=""color:darkgreen;font-size:24px;"">Correct :)</p>","",""
"244","key","v","v","8.32037931034775","500","250","psychophysics","302","907120","0.0-302.0","59306fc35f170a00014358da","6213d4965183f52faaa88798","6","","","","","1","9"
"null","","","null","","","","html-keyboard-response","303","907621","0.0-303.0","59306fc35f170a00014358da","6213d4965183f52faaa88798","","","","","<p style=""color:red;font-size:24px;"">Error :(</p>","",""
"129","key","n","n","8.328066666664865","500","250","psychophysics","304","907752","0.0-304.0","59306fc35f170a00014358da","6213d4965183f52faaa88798","6","","","","","1","6"
"null","","","null","","","","html-keyboard-response","305","908253","0.0-305.0","59306fc35f170a00014358da","6213d4965183f52faaa88798","","","","","<p style=""color:darkgreen;font-size:24px;"">Correct :)</p>","",""
"133","key","n","n","8.318062499994994","500","250","psychophysics","306","908388","0.0-306.0","59306fc35f170a00014358da","6213d4965183f52faaa88798","6","","","","","0","8"
"null","","","null","","","","html-keyboard-response","307","908889","0.0-307.0","59306fc35f170a00014358da","6213d4965183f52faaa88798","","","","","<p style=""color:darkgreen;font-size:24px;"">Correct :)</p>","",""
"123","key","v","v","8.32086666667213","500","250","psychophysics","308","909014","0.0-308.0","59306fc35f170a00014358da","6213d4965183f52faaa88798","6","","","","","1","8"
"null","","","null","","","","html-keyboard-response","309","909515","0.0-309.0","59306fc35f170a00014358da","6213d4965183f52faaa88798","","","","","<p style=""color:red;font-size:24px;"">Error :(</p>","",""
"144","key","v","v","8.321666666668737","500","250","psychophysics","310","909666","0.0-310.0","59306fc35f170a00014358da","6213d4965183f52faaa88798","6","","","","","0","6"
"null","","","null","","","","html-keyboard-response","311","910168","0.0-311.0","59306fc35f170a00014358da","6213d4965183f52faaa88798","","","","","<p style=""color:red;font-size:24px;"">Error :(</p>","",""
"298","key","n","n","8.320277777778553","500","250","psychophysics","312","910468","0.0-312.0","59306fc35f170a00014358da","6213d4965183f52faaa88798","6","","","","","0","4"
"null","","","null","","","","html-keyboard-response","313","910969","0.0-313.0","59306fc35f170a00014358da","6213d4965183f52faaa88798","","","","","<p style=""color:darkgreen;font-size:24px;"">Correct :)</p>","",""
"122","key","v","v","8.318733333330602","500","250","psychophysics","314","911094","0.0-314.0","59306fc35f170a00014358da","6213d4965183f52faaa88798","6","","","","","1","9"
"null","","","null","","","","html-keyboard-response","315","911597","0.0-315.0","59306fc35f170a00014358da","6213d4965183f52faaa88798","","","","","<p style=""color:red;font-size:24px;"">Error :(</p>","",""
"274","key","n","n","8.320939393939845","500","250","psychophysics","316","911874","0.0-316.0","59306fc35f170a00014358da","6213d4965183f52faaa88798","6","","","","","1","4"
"null","","","null","","","","html-keyboard-response","317","912375","0.0-317.0","59306fc35f170a00014358da","6213d4965183f52faaa88798","","","","","<p style=""color:red;font-size:24px;"">Error :(</p>","",""
"69","key","v","v","8.323888888893029","500","250","psychophysics","318","912446","0.0-318.0","59306fc35f170a00014358da","6213d4965183f52faaa88798","6","","","","","0","2"
"null","","","null","","","","html-keyboard-response","319","912948","0.0-319.0","59306fc35f170a00014358da","6213d4965183f52faaa88798","","","","","<p style=""color:red;font-size:24px;"">Error :(</p>","",""
"70","key","n","n","8.358874999990803","500","250","psychophysics","320","913020","0.0-320.0","59306fc35f170a00014358da","6213d4965183f52faaa88798","6","","","","","0","4"
"null","","","null","","","","html-keyboard-response","321","913522","0.0-321.0","59306fc35f170a00014358da","6213d4965183f52faaa88798","","","","","<p style=""color:darkgreen;font-size:24px;"">Correct :)</p>","",""
"206","key","v","v","8.3200400000019","500","250","psychophysics","322","913730","0.0-322.0","59306fc35f170a00014358da","6213d4965183f52faaa88798","6","","","","","0","3"
"null","","","null","","","","html-keyboard-response","323","914231","0.0-323.0","59306fc35f170a00014358da","6213d4965183f52faaa88798","","","","","<p style=""color:darkgreen;font-size:24px;"">Correct :)</p>","",""
"84","key","v","v","8.309699999995065","500","250","psychophysics","324","914317","0.0-324.0","59306fc35f170a00014358da","6213d4965183f52faaa88798","6","","","","","1","7"
"null","","","null","","","","html-keyboard-response","325","914818","0.0-325.0","59306fc35f170a00014358da","6213d4965183f52faaa88798","","","","","<p style=""color:red;font-size:24px;"">Error :(</p>","",""
"274","key","n","n","8.319424242423283","500","250","psychophysics","326","915094","0.0-326.0","59306fc35f170a00014358da","6213d4965183f52faaa88798","6","","","","","1","1"
"null","","","null","","","","html-keyboard-response","327","915595","0.0-327.0","59306fc35f170a00014358da","6213d4965183f52faaa88798","","","","","<p style=""color:red;font-size:24px;"">Error :(</p>","",""
"45","key","n","n","8.299666666677998","500","250","psychophysics","328","915643","0.0-328.0","59306fc35f170a00014358da","6213d4965183f52faaa88798","6","","","","","1","1"
"null","","","null","","","","html-keyboard-response","329","916144","0.0-329.0","59306fc35f170a00014358da","6213d4965183f52faaa88798","","","","","<p style=""color:red;font-size:24px;"">Error :(</p>","",""
"113","key","v","v","8.315785714283786","500","250","psychophysics","330","916259","0.0-330.0","59306fc35f170a00014358da","6213d4965183f52faaa88798","6","","","","","1","6"
"null","","","null","","","","html-keyboard-response","331","916760","0.0-331.0","59306fc35f170a00014358da","6213d4965183f52faaa88798","","","","","<p style=""color:red;font-size:24px;"">Error :(</p>","",""
"157","key","v","v","8.311894736840928","500","250","psychophysics","332","916919","0.0-332.0","59306fc35f170a00014358da","6213d4965183f52faaa88798","6","","","","","0","9"
"null","","","null","","","","html-keyboard-response","333","917421","0.0-333.0","59306fc35f170a00014358da","6213d4965183f52faaa88798","","","","","<p style=""color:darkgreen;font-size:24px;"">Correct :)</p>","",""
"152","key","v","v","8.309000000002255","500","250","psychophysics","334","917579","0.0-334.0","59306fc35f170a00014358da","6213d4965183f52faaa88798","6","","","","","1","2"
"null","","","null","","","","html-keyboard-response","335","918082","0.0-335.0","59306fc35f170a00014358da","6213d4965183f52faaa88798","","","","","<p style=""color:darkgreen;font-size:24px;"">Correct :)</p>","",""
"148","key","v","v","8.311333333336128","500","250","psychophysics","336","918233","0.0-336.0","59306fc35f170a00014358da","6213d4965183f52faaa88798","6","","","","","1","7"
"null","","","null","","","","html-keyboard-response","337","918735","0.0-337.0","59306fc35f170a00014358da","6213d4965183f52faaa88798","","","","","<p style=""color:red;font-size:24px;"">Error :(</p>","",""
"64","key","n","n","9.52428571427507","500","250","psychophysics","338","918801","0.0-338.0","59306fc35f170a00014358da","6213d4965183f52faaa88798","6","","","","","1","9"
"null","","","null","","","","html-keyboard-response","339","919304","0.0-339.0","59306fc35f170a00014358da","6213d4965183f52faaa88798","","","","","<p style=""color:darkgreen;font-size:24px;"">Correct :)</p>","",""
"72","key","n","n","8.32377777777664","500","250","psychophysics","340","919378","0.0-340.0","59306fc35f170a00014358da","6213d4965183f52faaa88798","6","","","","","1","8"
"null","","","null","","","","html-keyboard-response","341","919880","0.0-341.0","59306fc35f170a00014358da","6213d4965183f52faaa88798","","","","","<p style=""color:darkgreen;font-size:24px;"">Correct :)</p>","",""
"105","key","n","n","8.322153846151195","500","250","psychophysics","342","919986","0.0-342.0","59306fc35f170a00014358da","6213d4965183f52faaa88798","6","","","","","0","1"
"null","","","null","","","","html-keyboard-response","343","920489","0.0-343.0","59306fc35f170a00014358da","6213d4965183f52faaa88798","","","","","<p style=""color:red;font-size:24px;"">Error :(</p>","",""
"109","key","v","v","8.326928571432031","500","250","psychophysics","344","920601","0.0-344.0","59306fc35f170a00014358da","6213d4965183f52faaa88798","6","","","","","1","4"
"null","","","null","","","","html-keyboard-response","345","921101","0.0-345.0","59306fc35f170a00014358da","6213d4965183f52faaa88798","","","","","<p style=""color:darkgreen;font-size:24px;"">Correct :)</p>","",""
"87","key","v","v","8.320909090901047","500","250","psychophysics","346","921191","0.0-346.0","59306fc35f170a00014358da","6213d4965183f52faaa88798","6","","","","","0","7"
"null","","","null","","","","html-keyboard-response","347","921693","0.0-347.0","59306fc35f170a00014358da","6213d4965183f52faaa88798","","","","","<p style=""color:darkgreen;font-size:24px;"">Correct :)</p>","",""
"131","key","v","v","8.320249999997031","500","250","psychophysics","348","921827","0.0-348.0","59306fc35f170a00014358da","6213d4965183f52faaa88798","6","","","","","0","8"
"null","","","null","","","","html-keyboard-response","349","922327","0.0-349.0","59306fc35f170a00014358da","6213d4965183f52faaa88798","","","","","<p style=""color:red;font-size:24px;"">Error :(</p>","",""
"15","key","n","n","17.93700000003446","500","250","psychophysics","350","922345","0.0-350.0","59306fc35f170a00014358da","6213d4965183f52faaa88798","6","","","","","0","3"
"null","","","null","","","","html-keyboard-response","351","922846","0.0-351.0","59306fc35f170a00014358da","6213d4965183f52faaa88798","","","","","<p style=""color:red;font-size:24px;"">Error :(</p>","",""
"126","key","v","v","8.322533333340349","500","250","psychophysics","352","922975","0.0-352.0","59306fc35f170a00014358da","6213d4965183f52faaa88798","6","","","","","1","2"
"null","","","null","","","","html-keyboard-response","353","923475","0.0-353.0","59306fc35f170a00014358da","6213d4965183f52faaa88798","","","","","<p style=""color:darkgreen;font-size:24px;"">Correct :)</p>","",""
"173","key","v","v","8.732500000001163","500","250","psychophysics","354","923651","0.0-354.0","59306fc35f170a00014358da","6213d4965183f52faaa88798","6","","","","","0","9"
"null","","","null","","","","html-keyboard-response","355","924154","0.0-355.0","59306fc35f170a00014358da","6213d4965183f52faaa88798","","","","","<p style=""color:darkgreen;font-size:24px;"">Correct :)</p>","",""
"129","key","v","v","8.338437500002328","500","250","psychophysics","356","924285","0.0-356.0","59306fc35f170a00014358da","6213d4965183f52faaa88798","6","","","","","0","9"
"null","","","null","","","","html-keyboard-response","357","924786","0.0-357.0","59306fc35f170a00014358da","6213d4965183f52faaa88798","","","","","<p style=""color:darkgreen;font-size:24px;"">Correct :)</p>","",""
"148","key","v","v","8.318222222222378","500","250","psychophysics","358","924936","0.0-358.0","59306fc35f170a00014358da","6213d4965183f52faaa88798","6","","","","","0","3"
"null","","","null","","","","html-keyboard-response","359","925439","0.0-359.0","59306fc35f170a00014358da","6213d4965183f52faaa88798","","","","","<p style=""color:darkgreen;font-size:24px;"">Correct :)</p>","",""
"97","key","n","n","9.08836363635915","500","250","psychophysics","360","925539","0.0-360.0","59306fc35f170a00014358da","6213d4965183f52faaa88798","6","","","","","0","6"
"null","","","null","","","","html-keyboard-response","361","926040","0.0-361.0","59306fc35f170a00014358da","6213d4965183f52faaa88798","","","","","<p style=""color:darkgreen;font-size:24px;"">Correct :)</p>","",""
"157","key","n","n","8.320105263154561","500","250","psychophysics","362","926198","0.0-362.0","59306fc35f170a00014358da","6213d4965183f52faaa88798","6","","","","","0","9"
"null","","","null","","","","html-keyboard-response","363","926699","0.0-363.0","59306fc35f170a00014358da","6213d4965183f52faaa88798","","","","","<p style=""color:red;font-size:24px;"">Error :(</p>","",""
"104","key","v","v","8.332153846151554","500","250","psychophysics","364","926805","0.0-364.0","59306fc35f170a00014358da","6213d4965183f52faaa88798","6","","","","","0","4"
"null","","","null","","","","html-keyboard-response","365","927307","0.0-365.0","59306fc35f170a00014358da","6213d4965183f52faaa88798","","","","","<p style=""color:red;font-size:24px;"">Error :(</p>","",""
"109","key","n","n","8.325307692302605","500","250","psychophysics","366","927418","0.0-366.0","59306fc35f170a00014358da","6213d4965183f52faaa88798","6","","","","","1","2"
"null","","","null","","","","html-keyboard-response","367","927919","0.0-367.0","59306fc35f170a00014358da","6213d4965183f52faaa88798","","","","","<p style=""color:red;font-size:24px;"">Error :(</p>","",""
"116","key","v","v","8.318142857144787","500","250","psychophysics","368","928037","0.0-368.0","59306fc35f170a00014358da","6213d4965183f52faaa88798","6","","","","","0","6"
"null","","","null","","","","html-keyboard-response","369","928538","0.0-369.0","59306fc35f170a00014358da","6213d4965183f52faaa88798","","","","","<p style=""color:red;font-size:24px;"">Error :(</p>","",""
"128","key","n","n","8.322812499995052","500","250","psychophysics","370","928673","0.0-370.0","59306fc35f170a00014358da","6213d4965183f52faaa88798","6","","","","","0","4"
"null","","","null","","","","html-keyboard-response","371","929175","0.0-371.0","59306fc35f170a00014358da","6213d4965183f52faaa88798","","","","","<p style=""color:darkgreen;font-size:24px;"">Correct :)</p>","",""
"161","key","v","v","8.321631578949132","500","250","psychophysics","372","929339","0.0-372.0","59306fc35f170a00014358da","6213d4965183f52faaa88798","6","","","","","1","7"
"null","","","null","","","","html-keyboard-response","373","929841","0.0-373.0","59306fc35f170a00014358da","6213d4965183f52faaa88798","","","","","<p style=""color:red;font-size:24px;"">Error :(</p>","",""
"291","key","n","n","8.32202857143046","500","250","psychophysics","374","930135","0.0-374.0","59306fc35f170a00014358da","6213d4965183f52faaa88798","6","","","","","1","7"
"null","","","null","","","","html-keyboard-response","375","930636","0.0-375.0","59306fc35f170a00014358da","6213d4965183f52faaa88798","","","","","<p style=""color:darkgreen;font-size:24px;"">Correct :)</p>","",""
"94","key","n","n","8.313916666666046","500","250","psychophysics","376","930732","0.0-376.0","59306fc35f170a00014358da","6213d4965183f52faaa88798","6","","","","","0","1"
"null","","","null","","","","html-keyboard-response","377","931233","0.0-377.0","59306fc35f170a00014358da","6213d4965183f52faaa88798","","","","","<p style=""color:red;font-size:24px;"">Error :(</p>","",""
"62","key","v","v","8.330249999999069","500","250","psychophysics","378","931298","0.0-378.0","59306fc35f170a00014358da","6213d4965183f52faaa88798","6","","","","","0","3"
"null","","","null","","","","html-keyboard-response","379","931799","0.0-379.0","59306fc35f170a00014358da","6213d4965183f52faaa88798","","","","","<p style=""color:darkgreen;font-size:24px;"">Correct :)</p>","",""
"147","key","v","v","8.319333333334523","500","250","psychophysics","380","931948","0.0-380.0","59306fc35f170a00014358da","6213d4965183f52faaa88798","6","","","","","0","4"
"null","","","null","","","","html-keyboard-response","381","932449","0.0-381.0","59306fc35f170a00014358da","6213d4965183f52faaa88798","","","","","<p style=""color:red;font-size:24px;"">Error :(</p>","",""
"133","key","n","n","8.326187500002561","500","250","psychophysics","382","932585","0.0-382.0","59306fc35f170a00014358da","6213d4965183f52faaa88798","6","","","","","1","7"
"null","","","null","","","","html-keyboard-response","383","933087","0.0-383.0","59306fc35f170a00014358da","6213d4965183f52faaa88798","","","","","<p style=""color:darkgreen;font-size:24px;"">Correct :)</p>","",""
"67","key","n","n","8.31387499999255","500","250","psychophysics","384","933157","0.0-384.0","59306fc35f170a00014358da","6213d4965183f52faaa88798","6","","","","","0","7"
"null","","","null","","","","html-keyboard-response","385","933659","0.0-385.0","59306fc35f170a00014358da","6213d4965183f52faaa88798","","","","","<p style=""color:red;font-size:24px;"">Error :(</p>","",""
"125","key","v","v","8.324733333336189","500","250","psychophysics","386","933786","0.0-386.0","59306fc35f170a00014358da","6213d4965183f52faaa88798","6","","","","","0","4"
"null","","","null","","","","html-keyboard-response","387","934287","0.0-387.0","59306fc35f170a00014358da","6213d4965183f52faaa88798","","","","","<p style=""color:red;font-size:24px;"">Error :(</p>","",""
"143","key","v","v","8.324500000000828","500","250","psychophysics","388","934433","0.0-388.0","59306fc35f170a00014358da","6213d4965183f52faaa88798","6","","","","","1","6"
"null","","","null","","","","html-keyboard-response","389","934936","0.0-389.0","59306fc35f170a00014358da","6213d4965183f52faaa88798","","","","","<p style=""color:red;font-size:24px;"">Error :(</p>","",""
"45","key","n","n","8.331999999994878","500","250","psychophysics","390","934983","0.0-390.0","59306fc35f170a00014358da","6213d4965183f52faaa88798","6","","","","","0","2"
"null","","","null","","","","html-keyboard-response","391","935484","0.0-391.0","59306fc35f170a00014358da","6213d4965183f52faaa88798","","","","","<p style=""color:darkgreen;font-size:24px;"">Correct :)</p>","",""
"34","key","n","n","8.285750000010012","500","250","psychophysics","392","935521","0.0-392.0","59306fc35f170a00014358da","6213d4965183f52faaa88798","6","","","","","0","6"
"null","","","null","","","","html-keyboard-response","393","936022","0.0-393.0","59306fc35f170a00014358da","6213d4965183f52faaa88798","","","","","<p style=""color:darkgreen;font-size:24px;"">Correct :)</p>","",""
"61","key","n","n","8.312999999994645","500","250","psychophysics","394","936089","0.0-394.0","59306fc35f170a00014358da","6213d4965183f52faaa88798","6","","","","","0","1"
"null","","","null","","","","html-keyboard-response","395","936591","0.0-395.0","59306fc35f170a00014358da","6213d4965183f52faaa88798","","","","","<p style=""color:red;font-size:24px;"">Error :(</p>","",""
"19","","","v","","","","html-keyboard-response","396","936611","0.0-396.0","59306fc35f170a00014358da","6213d4965183f52faaa88798","","","","","<p> Last set of trials.  Here, the tasks are going to switch once again.  We are going to do 50 of these.  And then you are done with the experiment.  </p>  <br><br>  Ready? (press v or n)","",""
"767","key","n","n","8.317376344086682","500","250","psychophysics","397","937380","0.0-397.0","59306fc35f170a00014358da","6213d4965183f52faaa88798","7","","","","","1","2"
"null","","","null","","","","html-keyboard-response","398","937882","0.0-398.0","59306fc35f170a00014358da","6213d4965183f52faaa88798","","","","","<p style=""color:red;font-size:24px;"">Error :(</p>","",""
"67","key","v","v","8.322875000012573","500","250","psychophysics","399","937951","0.0-399.0","59306fc35f170a00014358da","6213d4965183f52faaa88798","7","","","","","0","3"
"null","","","null","","","","html-keyboard-response","400","938454","0.0-400.0","59306fc35f170a00014358da","6213d4965183f52faaa88798","","","","","<p style=""color:darkgreen;font-size:24px;"">Correct :)</p>","",""
"185","key","v","v","8.321772727273954","500","250","psychophysics","401","938641","0.0-401.0","59306fc35f170a00014358da","6213d4965183f52faaa88798","7","","","","","1","7"
"null","","","null","","","","html-keyboard-response","402","939143","0.0-402.0","59306fc35f170a00014358da","6213d4965183f52faaa88798","","","","","<p style=""color:red;font-size:24px;"">Error :(</p>","",""
"1188","key","v","v","8.318496503495982","500","250","psychophysics","403","940332","0.0-403.0","59306fc35f170a00014358da","6213d4965183f52faaa88798","7","","","","","1","3"
"null","","","null","","","","html-keyboard-response","404","940833","0.0-404.0","59306fc35f170a00014358da","6213d4965183f52faaa88798","","","","","<p style=""color:darkgreen;font-size:24px;"">Correct :)</p>","",""
"179","key","n","n","8.316727272726977","500","250","psychophysics","405","941015","0.0-405.0","59306fc35f170a00014358da","6213d4965183f52faaa88798","7","","","","","0","3"
"null","","","null","","","","html-keyboard-response","406","941516","0.0-406.0","59306fc35f170a00014358da","6213d4965183f52faaa88798","","","","","<p style=""color:red;font-size:24px;"">Error :(</p>","",""
"261","key","v","v","8.317781250003463","500","250","psychophysics","407","941779","0.0-407.0","59306fc35f170a00014358da","6213d4965183f52faaa88798","7","","","","","1","4"
"null","","","null","","","","html-keyboard-response","408","942281","0.0-408.0","59306fc35f170a00014358da","6213d4965183f52faaa88798","","","","","<p style=""color:darkgreen;font-size:24px;"">Correct :)</p>","",""
"105","key","n","n","8.314384615380103","500","250","psychophysics","409","942388","0.0-409.0","59306fc35f170a00014358da","6213d4965183f52faaa88798","7","","","","","0","2"
"null","","","null","","","","html-keyboard-response","410","942889","0.0-410.0","59306fc35f170a00014358da","6213d4965183f52faaa88798","","","","","<p style=""color:darkgreen;font-size:24px;"">Correct :)</p>","",""
"107","key","v","v","8.325153846150407","500","250","psychophysics","411","942999","0.0-411.0","59306fc35f170a00014358da","6213d4965183f52faaa88798","7","","","","","1","7"
"null","","","null","","","","html-keyboard-response","412","943500","0.0-412.0","59306fc35f170a00014358da","6213d4965183f52faaa88798","","","","","<p style=""color:red;font-size:24px;"">Error :(</p>","",""
"92","key","n","n","8.320090909086337","500","250","psychophysics","413","943594","0.0-413.0","59306fc35f170a00014358da","6213d4965183f52faaa88798","7","","","","","1","7"
"null","","","null","","","","html-keyboard-response","414","944100","0.0-414.0","59306fc35f170a00014358da","6213d4965183f52faaa88798","","","","","<p style=""color:darkgreen;font-size:24px;"">Correct :)</p>","",""
"137","key","v","v","8.317500000004657","500","250","psychophysics","415","944239","0.0-415.0","59306fc35f170a00014358da","6213d4965183f52faaa88798","7","","","","","1","7"
"null","","","null","","","","html-keyboard-response","416","944741","0.0-416.0","59306fc35f170a00014358da","6213d4965183f52faaa88798","","","","","<p style=""color:red;font-size:24px;"">Error :(</p>","",""
"48","key","v","v","8.32766666666915","500","250","psychophysics","417","944791","0.0-417.0","59306fc35f170a00014358da","6213d4965183f52faaa88798","7","","","","","1","7"
"null","","","null","","","","html-keyboard-response","418","945292","0.0-418.0","59306fc35f170a00014358da","6213d4965183f52faaa88798","","","","","<p style=""color:red;font-size:24px;"">Error :(</p>","",""
"175","key","v","v","8.32676190476022","500","250","psychophysics","419","945469","0.0-419.0","59306fc35f170a00014358da","6213d4965183f52faaa88798","7","","","","","1","2"
"null","","","null","","","","html-keyboard-response","420","945970","0.0-420.0","59306fc35f170a00014358da","6213d4965183f52faaa88798","","","","","<p style=""color:darkgreen;font-size:24px;"">Correct :)</p>","",""
"30","key","v","v","8.291333333356306","500","250","psychophysics","421","946003","0.0-421.0","59306fc35f170a00014358da","6213d4965183f52faaa88798","7","","","","","1","6"
"null","","","null","","","","html-keyboard-response","422","946505","0.0-422.0","59306fc35f170a00014358da","6213d4965183f52faaa88798","","","","","<p style=""color:red;font-size:24px;"">Error :(</p>","",""
"158","key","n","n","8.320157894736008","500","250","psychophysics","423","946664","0.0-423.0","59306fc35f170a00014358da","6213d4965183f52faaa88798","7","","","","","0","2"
"null","","","null","","","","html-keyboard-response","424","947165","0.0-424.0","59306fc35f170a00014358da","6213d4965183f52faaa88798","","","","","<p style=""color:darkgreen;font-size:24px;"">Correct :)</p>","",""
"18","key","n","n","8.331333333315948","500","250","psychophysics","425","947186","0.0-425.0","59306fc35f170a00014358da","6213d4965183f52faaa88798","7","","","","","1","2"
"null","","","null","","","","html-keyboard-response","426","947687","0.0-426.0","59306fc35f170a00014358da","6213d4965183f52faaa88798","","","","","<p style=""color:red;font-size:24px;"">Error :(</p>","",""
"83","key","v","v","8.32949999999255","500","250","psychophysics","427","947773","0.0-427.0","59306fc35f170a00014358da","6213d4965183f52faaa88798","7","","","","","0","7"
"null","","","null","","","","html-keyboard-response","428","948275","0.0-428.0","59306fc35f170a00014358da","6213d4965183f52faaa88798","","","","","<p style=""color:darkgreen;font-size:24px;"">Correct :)</p>","",""
"140","key","n","n","8.32723529411562","500","250","psychophysics","429","948417","0.0-429.0","59306fc35f170a00014358da","6213d4965183f52faaa88798","7","","","","","0","6"
"null","","","null","","","","html-keyboard-response","430","948919","0.0-430.0","59306fc35f170a00014358da","6213d4965183f52faaa88798","","","","","<p style=""color:darkgreen;font-size:24px;"">Correct :)</p>","",""
"95","key","v","v","8.294083333331704","500","250","psychophysics","431","949016","0.0-431.0","59306fc35f170a00014358da","6213d4965183f52faaa88798","7","","","","","1","1"
"null","","","null","","","","html-keyboard-response","432","949518","0.0-432.0","59306fc35f170a00014358da","6213d4965183f52faaa88798","","","","","<p style=""color:darkgreen;font-size:24px;"">Correct :)</p>","",""
"121","key","n","n","8.32086666667213","500","250","psychophysics","433","949642","0.0-433.0","59306fc35f170a00014358da","6213d4965183f52faaa88798","7","","","","","0","4"
"null","","","null","","","","html-keyboard-response","434","950144","0.0-434.0","59306fc35f170a00014358da","6213d4965183f52faaa88798","","","","","<p style=""color:darkgreen;font-size:24px;"">Correct :)</p>","",""
"68","key","v","v","8.31577777778471","500","250","psychophysics","435","950215","0.0-435.0","59306fc35f170a00014358da","6213d4965183f52faaa88798","7","","","","","1","4"
"null","","","null","","","","html-keyboard-response","436","950717","0.0-436.0","59306fc35f170a00014358da","6213d4965183f52faaa88798","","","","","<p style=""color:darkgreen;font-size:24px;"">Correct :)</p>","",""
"75","key","n","n","8.3118888888922","500","250","psychophysics","437","950795","0.0-437.0","59306fc35f170a00014358da","6213d4965183f52faaa88798","7","","","","","0","2"
"null","","","null","","","","html-keyboard-response","438","951297","0.0-438.0","59306fc35f170a00014358da","6213d4965183f52faaa88798","","","","","<p style=""color:darkgreen;font-size:24px;"">Correct :)</p>","",""
"139","key","v","v","8.323058823534453","500","250","psychophysics","439","951438","0.0-439.0","59306fc35f170a00014358da","6213d4965183f52faaa88798","7","","","","","0","1"
"null","","","null","","","","html-keyboard-response","440","951939","0.0-440.0","59306fc35f170a00014358da","6213d4965183f52faaa88798","","","","","<p style=""color:darkgreen;font-size:24px;"">Correct :)</p>","",""
"2781","key","v","v","8.318898507462704","500","250","psychophysics","441","954722","0.0-441.0","59306fc35f170a00014358da","6213d4965183f52faaa88798","7","","","","","1","6"
"null","","","null","","","","html-keyboard-response","442","955226","0.0-442.0","59306fc35f170a00014358da","6213d4965183f52faaa88798","","","","","<p style=""color:red;font-size:24px;"">Error :(</p>","",""
"2187","key","n","n","8.318190114068031","500","250","psychophysics","443","957415","0.0-443.0","59306fc35f170a00014358da","6213d4965183f52faaa88798","7","","","","","0","3"
"null","","","null","","","","html-keyboard-response","444","957916","0.0-444.0","59306fc35f170a00014358da","6213d4965183f52faaa88798","","","","","<p style=""color:red;font-size:24px;"">Error :(</p>","",""
"63","key","v","v","8.337750000006054","500","250","psychophysics","445","957983","0.0-445.0","59306fc35f170a00014358da","6213d4965183f52faaa88798","7","","","","","0","2"
"null","","","null","","","","html-keyboard-response","446","958485","0.0-446.0","59306fc35f170a00014358da","6213d4965183f52faaa88798","","","","","<p style=""color:red;font-size:24px;"">Error :(</p>","",""
"60","key","n","n","8.314285714295693","500","250","psychophysics","447","958547","0.0-447.0","59306fc35f170a00014358da","6213d4965183f52faaa88798","7","","","","","0","6"
"null","","","null","","","","html-keyboard-response","448","959049","0.0-448.0","59306fc35f170a00014358da","6213d4965183f52faaa88798","","","","","<p style=""color:darkgreen;font-size:24px;"">Correct :)</p>","",""
"98","key","v","v","8.319999999997284","500","250","psychophysics","449","959149","0.0-449.0","59306fc35f170a00014358da","6213d4965183f52faaa88798","7","","","","","1","6"
"null","","","null","","","","html-keyboard-response","450","959651","0.0-450.0","59306fc35f170a00014358da","6213d4965183f52faaa88798","","","","","<p style=""color:red;font-size:24px;"">Error :(</p>","",""
"61","key","n","n","8.306375000000116","500","250","psychophysics","451","959715","0.0-451.0","59306fc35f170a00014358da","6213d4965183f52faaa88798","7","","","","","0","6"
"null","","","null","","","","html-keyboard-response","452","960216","0.0-452.0","59306fc35f170a00014358da","6213d4965183f52faaa88798","","","","","<p style=""color:darkgreen;font-size:24px;"">Correct :)</p>","",""
"224","key","n","n","8.320777777780744","500","250","psychophysics","453","960443","0.0-453.0","59306fc35f170a00014358da","6213d4965183f52faaa88798","7","","","","","1","6"
"null","","","null","","","","html-keyboard-response","454","960945","0.0-454.0","59306fc35f170a00014358da","6213d4965183f52faaa88798","","","","","<p style=""color:darkgreen;font-size:24px;"">Correct :)</p>","",""
"109","key","v","v","8.313461538457956","500","250","psychophysics","455","961057","0.0-455.0","59306fc35f170a00014358da","6213d4965183f52faaa88798","7","","","","","1","4"
"null","","","null","","","","html-keyboard-response","456","961558","0.0-456.0","59306fc35f170a00014358da","6213d4965183f52faaa88798","","","","","<p style=""color:darkgreen;font-size:24px;"">Correct :)</p>","",""
"56","key","n","n","9.715666666665735","500","250","psychophysics","457","961617","0.0-457.0","59306fc35f170a00014358da","6213d4965183f52faaa88798","7","","","","","0","7"
"null","","","null","","","","html-keyboard-response","458","962119","0.0-458.0","59306fc35f170a00014358da","6213d4965183f52faaa88798","","","","","<p style=""color:red;font-size:24px;"">Error :(</p>","",""
"69","key","v","v","8.32949999999255","500","250","psychophysics","459","962191","0.0-459.0","59306fc35f170a00014358da","6213d4965183f52faaa88798","7","","","","","1","3"
"null","","","null","","","","html-keyboard-response","460","962693","0.0-460.0","59306fc35f170a00014358da","6213d4965183f52faaa88798","","","","","<p style=""color:darkgreen;font-size:24px;"">Correct :)</p>","",""
"99","key","n","n","8.322750000001784","500","250","psychophysics","461","962794","0.0-461.0","59306fc35f170a00014358da","6213d4965183f52faaa88798","7","","","","","1","6"
"null","","","null","","","","html-keyboard-response","462","963296","0.0-462.0","59306fc35f170a00014358da","6213d4965183f52faaa88798","","","","","<p style=""color:darkgreen;font-size:24px;"">Correct :)</p>","",""
"96","key","v","v","8.296083333329685","500","250","psychophysics","463","963395","0.0-463.0","59306fc35f170a00014358da","6213d4965183f52faaa88798","7","","","","","0","7"
"null","","","null","","","","html-keyboard-response","464","963896","0.0-464.0","59306fc35f170a00014358da","6213d4965183f52faaa88798","","","","","<p style=""color:darkgreen;font-size:24px;"">Correct :)</p>","",""
"87","key","n","n","9.141700000001583","500","250","psychophysics","465","963985","0.0-465.0","59306fc35f170a00014358da","6213d4965183f52faaa88798","7","","","","","1","2"
"null","","","null","","","","html-keyboard-response","466","964486","0.0-466.0","59306fc35f170a00014358da","6213d4965183f52faaa88798","","","","","<p style=""color:red;font-size:24px;"">Error :(</p>","",""
"120","key","v","v","8.323866666667163","500","250","psychophysics","467","964609","0.0-467.0","59306fc35f170a00014358da","6213d4965183f52faaa88798","7","","","","","1","2"
"null","","","null","","","","html-keyboard-response","468","965111","0.0-468.0","59306fc35f170a00014358da","6213d4965183f52faaa88798","","","","","<p style=""color:darkgreen;font-size:24px;"">Correct :)</p>","",""
"75","key","n","n","8.332111111117733","500","250","psychophysics","469","965188","0.0-469.0","59306fc35f170a00014358da","6213d4965183f52faaa88798","7","","","","","0","4"
"null","","","null","","","","html-keyboard-response","470","965690","0.0-470.0","59306fc35f170a00014358da","6213d4965183f52faaa88798","","","","","<p style=""color:darkgreen;font-size:24px;"">Correct :)</p>","",""
"54","key","v","v","8.32399999998909","500","250","psychophysics","471","965746","0.0-471.0","59306fc35f170a00014358da","6213d4965183f52faaa88798","7","","","","","0","3"
"null","","","null","","","","html-keyboard-response","472","966248","0.0-472.0","59306fc35f170a00014358da","6213d4965183f52faaa88798","","","","","<p style=""color:darkgreen;font-size:24px;"">Correct :)</p>","",""
"98","key","n","n","8.318416666666357","500","250","psychophysics","473","966349","0.0-473.0","59306fc35f170a00014358da","6213d4965183f52faaa88798","7","","","","","1","4"
"null","","","null","","","","html-keyboard-response","474","966850","0.0-474.0","59306fc35f170a00014358da","6213d4965183f52faaa88798","","","","","<p style=""color:red;font-size:24px;"">Error :(</p>","",""
"98","key","v","v","8.3115833333383","500","250","psychophysics","475","966950","0.0-475.0","59306fc35f170a00014358da","6213d4965183f52faaa88798","7","","","","","1","1"
"null","","","null","","","","html-keyboard-response","476","967453","0.0-476.0","59306fc35f170a00014358da","6213d4965183f52faaa88798","","","","","<p style=""color:darkgreen;font-size:24px;"">Correct :)</p>","",""
"85","key","n","n","8.320181818181565","500","250","psychophysics","477","967541","0.0-477.0","59306fc35f170a00014358da","6213d4965183f52faaa88798","7","","","","","0","3"
"null","","","null","","","","html-keyboard-response","478","968042","0.0-478.0","59306fc35f170a00014358da","6213d4965183f52faaa88798","","","","","<p style=""color:red;font-size:24px;"">Error :(</p>","",""
"26","key","n","n","8.277333333351029","500","250","psychophysics","479","968071","0.0-479.0","59306fc35f170a00014358da","6213d4965183f52faaa88798","7","","","","","0","1"
"null","","","null","","","","html-keyboard-response","480","968574","0.0-480.0","59306fc35f170a00014358da","6213d4965183f52faaa88798","","","","","<p style=""color:red;font-size:24px;"">Error :(</p>","",""
"31","key","n","n","8.34450000000652","500","250","psychophysics","481","968607","0.0-481.0","59306fc35f170a00014358da","6213d4965183f52faaa88798","7","","","","","0","6"
"null","","","null","","","","html-keyboard-response","482","969108","0.0-482.0","59306fc35f170a00014358da","6213d4965183f52faaa88798","","","","","<p style=""color:darkgreen;font-size:24px;"">Correct :)</p>","",""
"80","key","v","v","8.320600000000558","500","250","psychophysics","483","969190","0.0-483.0","59306fc35f170a00014358da","6213d4965183f52faaa88798","7","","","","","0","2"
"null","","","null","","","","html-keyboard-response","484","969693","0.0-484.0","59306fc35f170a00014358da","6213d4965183f52faaa88798","","","","","<p style=""color:red;font-size:24px;"">Error :(</p>","",""
"37","key","n","n","8.323999999999069","500","250","psychophysics","485","969732","0.0-485.0","59306fc35f170a00014358da","6213d4965183f52faaa88798","7","","","","","1","4"
"null","","","null","","","","html-keyboard-response","486","970233","0.0-486.0","59306fc35f170a00014358da","6213d4965183f52faaa88798","","","","","<p style=""color:red;font-size:24px;"">Error :(</p>","",""
"47","key","n","n","8.314499999997983","500","250","psychophysics","487","970283","0.0-487.0","59306fc35f170a00014358da","6213d4965183f52faaa88798","7","","","","","0","2"
"null","","","null","","","","html-keyboard-response","488","970785","0.0-488.0","59306fc35f170a00014358da","6213d4965183f52faaa88798","","","","","<p style=""color:darkgreen;font-size:24px;"">Correct :)</p>","",""
"95","key","v","v","8.320181818181565","500","250","psychophysics","489","970883","0.0-489.0","59306fc35f170a00014358da","6213d4965183f52faaa88798","7","","","","","1","4"
"null","","","null","","","","html-keyboard-response","490","971385","0.0-490.0","59306fc35f170a00014358da","6213d4965183f52faaa88798","","","","","<p style=""color:darkgreen;font-size:24px;"">Correct :)</p>","",""
"1","key","v","v","NaN","500","250","psychophysics","491","971389","0.0-491.0","59306fc35f170a00014358da","6213d4965183f52faaa88798","7","","","","","1","2"
"null","","","null","","","","html-keyboard-response","492","971890","0.0-492.0","59306fc35f170a00014358da","6213d4965183f52faaa88798","","","","","<p style=""color:darkgreen;font-size:24px;"">Correct :)</p>","",""
"106","key","n","n","8.327461538460248","500","250","psychophysics","493","972002","0.0-493.0","59306fc35f170a00014358da","6213d4965183f52faaa88798","7","","","","","0","4"
"null","","","null","","","","html-keyboard-response","494","972505","0.0-494.0","59306fc35f170a00014358da","6213d4965183f52faaa88798","","","","","<p style=""color:darkgreen;font-size:24px;"">Correct :)</p>","",""
"137","key","v","v","8.84637500000099","500","250","psychophysics","495","972645","0.0-495.0","59306fc35f170a00014358da","6213d4965183f52faaa88798","7","","","","","0","1"
"null","","","null","","","","html-keyboard-response","496","973147","0.0-496.0","59306fc35f170a00014358da","6213d4965183f52faaa88798","","","","","<p style=""color:darkgreen;font-size:24px;"">Correct :)</p>","",""
