"rt","response_type","key_press","response","avg_frame_time","center_x","center_y","trial_type","trial_index","time_elapsed","internal_node_id","pid","sid","phase","guide","targ","resp","stimulus","is5","stim"
"134755","key"," "," ","16.76340111940299","500","250","psychophysics","0","134789","0.0-0.0","60ff2c3d915d23318b73ae8d","6213cd2eae1cf3333e0b3403","","","","","","",""
"2117","key"," "," ","16.66624999999999","500","250","psychophysics","1","136943","0.0-1.0","60ff2c3d915d23318b73ae8d","6213cd2eae1cf3333e0b3403","","","","","","",""
"1981","key"," "," ","16.666349999999998","500","250","psychophysics","2","138946","0.0-2.0","60ff2c3d915d23318b73ae8d","6213cd2eae1cf3333e0b3403","","","","","","",""
"1495","key"," "," ","16.663584269663016","500","250","psychophysics","3","140446","0.0-3.0","60ff2c3d915d23318b73ae8d","6213cd2eae1cf3333e0b3403","","","","","","",""
"2922","key"," "," ","16.763691428571306","500","250","psychophysics","4","143396","0.0-4.0","60ff2c3d915d23318b73ae8d","6213cd2eae1cf3333e0b3403","","","","","","",""
"3453","key"," "," ","16.663946601941824","500","250","psychophysics","5","146855","0.0-5.0","60ff2c3d915d23318b73ae8d","6213cd2eae1cf3333e0b3403","","","","","","",""
"3952","key"," "," ","16.667760504201663","500","250","psychophysics","6","150833","0.0-6.0","60ff2c3d915d23318b73ae8d","6213cd2eae1cf3333e0b3403","","","","","","",""
"3882","key"," "," ","16.663637931034515","500","250","psychophysics","7","154720","0.0-7.0","60ff2c3d915d23318b73ae8d","6213cd2eae1cf3333e0b3403","","","","","","",""
"17281","key"," "," ","16.66615250965253","500","250","psychophysics","8","172006","0.0-8.0","60ff2c3d915d23318b73ae8d","6213cd2eae1cf3333e0b3403","0","0","52","52","","",""
"3738","key"," "," ","16.665831111111135","500","250","psychophysics","9","175761","0.0-9.0","60ff2c3d915d23318b73ae8d","6213cd2eae1cf3333e0b3403","","","","","","",""
"9434","key"," "," ","16.696158730158746","500","250","psychophysics","10","185247","0.0-10.0","60ff2c3d915d23318b73ae8d","6213cd2eae1cf3333e0b3403","","","","","","",""
"3158","key"," "," ","16.664841269841265","500","250","psychophysics","11","188413","0.0-11.0","60ff2c3d915d23318b73ae8d","6213cd2eae1cf3333e0b3403","","","","","","",""
"4947","key"," "," ","16.665554054054006","500","250","psychophysics","12","193369","0.0-12.0","60ff2c3d915d23318b73ae8d","6213cd2eae1cf3333e0b3403","","","","","","",""
"2684","key"," "," ","16.66939375000002","500","250","psychophysics","13","196056","0.0-13.0","60ff2c3d915d23318b73ae8d","6213cd2eae1cf3333e0b3403","","","","","","",""
"3330","key"," "," ","16.668174129353307","500","250","psychophysics","14","199412","0.0-14.0","60ff2c3d915d23318b73ae8d","6213cd2eae1cf3333e0b3403","","","","","","",""
"5463","key"," "," ","16.66577064220182","500","250","psychophysics","15","204881","0.0-15.0","60ff2c3d915d23318b73ae8d","6213cd2eae1cf3333e0b3403","","","","","","",""
"3433","key"," "," ","16.667834146341548","500","250","psychophysics","16","208320","0.0-16.0","60ff2c3d915d23318b73ae8d","6213cd2eae1cf3333e0b3403","","","","","","",""
"12841","key"," "," ","16.665901426718552","500","250","psychophysics","17","221183","0.0-17.0","60ff2c3d915d23318b73ae8d","6213cd2eae1cf3333e0b3403","1","0","32","39","","",""
"16929","key"," "," ","16.665626600985227","500","250","psychophysics","18","238118","0.0-18.0","60ff2c3d915d23318b73ae8d","6213cd2eae1cf3333e0b3403","1","5","56","50","","",""
"13287","key"," "," ","16.66601380175658","500","250","psychophysics","19","251411","0.0-19.0","60ff2c3d915d23318b73ae8d","6213cd2eae1cf3333e0b3403","1","0","37","48","","",""
"18905","key"," "," ","16.66591438658429","500","250","psychophysics","20","270322","0.0-20.0","60ff2c3d915d23318b73ae8d","6213cd2eae1cf3333e0b3403","1","5","59","55","","",""
"12158","key"," "," ","16.66604109589036","500","250","psychophysics","21","282496","0.0-21.0","60ff2c3d915d23318b73ae8d","6213cd2eae1cf3333e0b3403","1","0","26","40","","",""
"19946","key"," "," ","16.680206349206344","500","250","psychophysics","22","302482","0.0-22.0","60ff2c3d915d23318b73ae8d","6213cd2eae1cf3333e0b3403","1","5","57","62","","",""
"21639","key"," "," ","16.665953775038517","500","250","psychophysics","23","324127","0.0-23.0","60ff2c3d915d23318b73ae8d","6213cd2eae1cf3333e0b3403","1","0","34","39","","",""
"6608","key"," "," ","16.665085858585886","500","250","psychophysics","24","330741","0.0-24.0","60ff2c3d915d23318b73ae8d","6213cd2eae1cf3333e0b3403","1","5","26","27","","",""
"7037","key"," "," ","16.665771971496525","500","250","psychophysics","25","337784","0.0-25.0","60ff2c3d915d23318b73ae8d","6213cd2eae1cf3333e0b3403","1","0","50","62","","",""
"8400","key"," "," ","16.667033797216778","500","250","psychophysics","26","346188","0.0-26.0","60ff2c3d915d23318b73ae8d","6213cd2eae1cf3333e0b3403","1","5","52","49","","",""
"7822","key"," "," ","16.66593418259029","500","250","psychophysics","27","354044","0.0-27.0","60ff2c3d915d23318b73ae8d","6213cd2eae1cf3333e0b3403","1","0","37","53","","",""
"8380","key"," "," ","16.665478087649415","500","250","psychophysics","28","362429","0.0-28.0","60ff2c3d915d23318b73ae8d","6213cd2eae1cf3333e0b3403","1","5","45","48","","",""
"7565","key"," "," ","16.666894039735105","500","250","psychophysics","29","370001","0.0-29.0","60ff2c3d915d23318b73ae8d","6213cd2eae1cf3333e0b3403","1","0","28","34","","",""
"10528","key"," "," ","16.66620727848102","500","250","psychophysics","30","380541","0.0-30.0","60ff2c3d915d23318b73ae8d","6213cd2eae1cf3333e0b3403","1","5","33","34","","",""
"13510","key"," "," ","16.665925925925883","500","250","psychophysics","31","394058","0.0-31.0","60ff2c3d915d23318b73ae8d","6213cd2eae1cf3333e0b3403","1","0","51","72","","",""
"8364","key"," "," ","16.666159362549823","500","250","psychophysics","32","402445","0.0-32.0","60ff2c3d915d23318b73ae8d","6213cd2eae1cf3333e0b3403","1","5","57","55","","",""
"11305","key"," "," ","16.665985250737464","500","250","psychophysics","33","413753","0.0-33.0","60ff2c3d915d23318b73ae8d","6213cd2eae1cf3333e0b3403","1","0","46","66","","",""
"8125","key"," "," ","16.70030390143739","500","250","psychophysics","34","421904","0.0-34.0","60ff2c3d915d23318b73ae8d","6213cd2eae1cf3333e0b3403","1","5","39","35","","",""
"7893","key"," "," ","16.666456659619442","500","250","psychophysics","35","429803","0.0-35.0","60ff2c3d915d23318b73ae8d","6213cd2eae1cf3333e0b3403","1","0","33","45","","",""
"12115","key"," "," ","16.665922865013805","500","250","psychophysics","36","441923","0.0-36.0","60ff2c3d915d23318b73ae8d","6213cd2eae1cf3333e0b3403","1","5","50","48","","",""
"3255","key"," "," ","16.664482051282167","500","250","psychophysics","37","445184","0.0-37.0","60ff2c3d915d23318b73ae8d","6213cd2eae1cf3333e0b3403","","","","","","",""
"5373","key"," "," ","16.667112149532652","500","250","psychophysics","38","450562","0.0-38.0","60ff2c3d915d23318b73ae8d","6213cd2eae1cf3333e0b3403","","","","","","",""
"2723","key"," "," ","16.6653353658536","500","250","psychophysics","39","453308","0.0-39.0","60ff2c3d915d23318b73ae8d","6213cd2eae1cf3333e0b3403","","","","","","",""
"12983","key"," "," ","16.665505141388145","500","250","psychophysics","40","466293","0.0-40.0","60ff2c3d915d23318b73ae8d","6213cd2eae1cf3333e0b3403","2","0","23","29","","",""
"5347","key"," "," ","16.665993769470358","500","250","psychophysics","41","471652","0.0-41.0","60ff2c3d915d23318b73ae8d","6213cd2eae1cf3333e0b3403","","","","","","",""
"7627","key"," "," ","16.664800875273553","500","250","psychophysics","42","479284","0.0-42.0","60ff2c3d915d23318b73ae8d","6213cd2eae1cf3333e0b3403","2","0","50","65","","",""
"3398","key"," "," ","16.665669950738888","500","250","psychophysics","43","482687","0.0-43.0","60ff2c3d915d23318b73ae8d","6213cd2eae1cf3333e0b3403","","","","","","",""
"10797","key"," "," ","16.6654544049459","500","250","psychophysics","44","493489","0.0-44.0","60ff2c3d915d23318b73ae8d","6213cd2eae1cf3333e0b3403","2","0","37","50","","",""
"5325","key"," "," ","16.66761442006264","500","250","psychophysics","45","498818","0.0-45.0","60ff2c3d915d23318b73ae8d","6213cd2eae1cf3333e0b3403","","","","","","",""
"7482","key"," "," ","16.703205357142775","500","250","psychophysics","46","506319","0.0-46.0","60ff2c3d915d23318b73ae8d","6213cd2eae1cf3333e0b3403","2","0","36","38","","",""
"7543","key"," "," ","16.665823008849536","500","250","psychophysics","47","513865","0.0-47.0","60ff2c3d915d23318b73ae8d","6213cd2eae1cf3333e0b3403","","","","","","",""
"13821","key"," "," ","16.66529227053136","500","250","psychophysics","48","527691","0.0-48.0","60ff2c3d915d23318b73ae8d","6213cd2eae1cf3333e0b3403","2","0","56","64","","",""
"5825","key"," "," ","16.667122857142903","500","250","psychophysics","49","533534","0.0-49.0","60ff2c3d915d23318b73ae8d","6213cd2eae1cf3333e0b3403","","","","","","",""
"5868","key"," "," ","16.713385714285874","500","250","psychophysics","50","539408","0.0-50.0","60ff2c3d915d23318b73ae8d","6213cd2eae1cf3333e0b3403","2","0","30","29","","",""
"3166","key"," "," ","16.667573684210105","500","250","psychophysics","51","542588","0.0-51.0","60ff2c3d915d23318b73ae8d","6213cd2eae1cf3333e0b3403","","","","","","",""
"9824","key"," "," ","16.66663327674023","500","250","psychophysics","52","552418","0.0-52.0","60ff2c3d915d23318b73ae8d","6213cd2eae1cf3333e0b3403","2","0","56","63","","",""
"2995","key"," "," ","16.66599441340776","500","250","psychophysics","53","555417","0.0-53.0","60ff2c3d915d23318b73ae8d","6213cd2eae1cf3333e0b3403","","","","","","",""
"4864","key"," "," ","16.66452920962208","500","250","psychophysics","54","560287","0.0-54.0","60ff2c3d915d23318b73ae8d","6213cd2eae1cf3333e0b3403","2","0","20","17","","",""
"2334","key"," "," ","16.666585714286025","500","250","psychophysics","55","562630","0.0-55.0","60ff2c3d915d23318b73ae8d","6213cd2eae1cf3333e0b3403","","","","","","",""
"5366","key"," "," ","16.666607476635605","500","250","psychophysics","56","568002","0.0-56.0","60ff2c3d915d23318b73ae8d","6213cd2eae1cf3333e0b3403","2","0","43","46","","",""
"2415","key"," "," ","16.668937500000336","500","250","psychophysics","57","570423","0.0-57.0","60ff2c3d915d23318b73ae8d","6213cd2eae1cf3333e0b3403","","","","","","",""
"5180","key"," "," ","16.667369774919695","500","250","psychophysics","58","575616","0.0-58.0","60ff2c3d915d23318b73ae8d","6213cd2eae1cf3333e0b3403","2","0","24","26","","",""
"2144","key"," "," ","16.665570312499767","500","250","psychophysics","59","577766","0.0-59.0","60ff2c3d915d23318b73ae8d","6213cd2eae1cf3333e0b3403","","","","","","",""
"5822","key"," "," ","16.665770773639114","500","250","psychophysics","60","583594","0.0-60.0","60ff2c3d915d23318b73ae8d","6213cd2eae1cf3333e0b3403","2","0","44","49","","",""
"2287","key"," "," ","16.665691176470478","500","250","psychophysics","61","585883","0.0-61.0","60ff2c3d915d23318b73ae8d","6213cd2eae1cf3333e0b3403","","","","","","",""
"6010","key"," "," ","16.666091666666844","500","250","psychophysics","62","591898","0.0-62.0","60ff2c3d915d23318b73ae8d","6213cd2eae1cf3333e0b3403","2","0","20","17","","",""
"1782","key"," "," ","16.661301886792437","500","250","psychophysics","63","593685","0.0-63.0","60ff2c3d915d23318b73ae8d","6213cd2eae1cf3333e0b3403","","","","","","",""
"6160","key"," "," ","16.66715176151731","500","250","psychophysics","64","599851","0.0-64.0","60ff2c3d915d23318b73ae8d","6213cd2eae1cf3333e0b3403","2","0","45","46","","",""
"2032","key"," "," ","16.66586776859558","500","250","psychophysics","65","601888","0.0-65.0","60ff2c3d915d23318b73ae8d","6213cd2eae1cf3333e0b3403","","","","","","",""
"8337","key"," "," ","16.666998000000138","500","250","psychophysics","66","610243","0.0-66.0","60ff2c3d915d23318b73ae8d","6213cd2eae1cf3333e0b3403","2","0","23","22","","",""
"2251","key"," "," ","16.669629629629803","500","250","psychophysics","67","612509","0.0-67.0","60ff2c3d915d23318b73ae8d","6213cd2eae1cf3333e0b3403","","","","","","",""
"7356","key"," "," ","16.70442889390527","500","250","psychophysics","68","619915","0.0-68.0","60ff2c3d915d23318b73ae8d","6213cd2eae1cf3333e0b3403","2","0","55","56","","",""
"2650","key"," "," ","16.666360759493877","500","250","psychophysics","69","622571","0.0-69.0","60ff2c3d915d23318b73ae8d","6213cd2eae1cf3333e0b3403","","","","","","",""
"31470","key"," "," ","16.666135593220332","500","250","psychophysics","70","654042","0.0-70.0","60ff2c3d915d23318b73ae8d","6213cd2eae1cf3333e0b3403","","","","","","",""
"2064","key"," "," ","16.66572357723546","500","250","psychophysics","71","656113","0.0-71.0","60ff2c3d915d23318b73ae8d","6213cd2eae1cf3333e0b3403","","","","","","",""
"7354","key"," "," ","16.70381405895688","500","250","psychophysics","72","663488","0.0-72.0","60ff2c3d915d23318b73ae8d","6213cd2eae1cf3333e0b3403","3","5","24","20","","",""
"8755","key"," "," ","16.66683206106856","500","250","psychophysics","73","672251","0.0-73.0","60ff2c3d915d23318b73ae8d","6213cd2eae1cf3333e0b3403","3","0","59","60","","",""
"5043","key"," "," ","16.66599339934023","500","250","psychophysics","74","677315","0.0-74.0","60ff2c3d915d23318b73ae8d","6213cd2eae1cf3333e0b3403","3","5","20","17","","",""
"8739","key"," "," ","16.666471374045635","500","250","psychophysics","75","686058","0.0-75.0","60ff2c3d915d23318b73ae8d","6213cd2eae1cf3333e0b3403","3","0","25","29","","",""
"15066","key"," "," ","16.66649833887043","500","250","psychophysics","76","701129","0.0-76.0","60ff2c3d915d23318b73ae8d","6213cd2eae1cf3333e0b3403","3","5","49","37","","",""
"4369","key"," "," ","16.66756106870256","500","250","psychophysics","77","705516","0.0-77.0","60ff2c3d915d23318b73ae8d","6213cd2eae1cf3333e0b3403","3","0","33","37","","",""
"8029","key"," "," ","16.666834024896243","500","250","psychophysics","78","713559","0.0-78.0","60ff2c3d915d23318b73ae8d","6213cd2eae1cf3333e0b3403","3","5","50","38","","",""
"6640","key"," "," ","16.66476381909548","500","250","psychophysics","79","720206","0.0-79.0","60ff2c3d915d23318b73ae8d","6213cd2eae1cf3333e0b3403","3","0","53","57","","",""
"6615","key"," "," ","16.665830808080795","500","250","psychophysics","80","726826","0.0-80.0","60ff2c3d915d23318b73ae8d","6213cd2eae1cf3333e0b3403","3","5","33","22","","",""
"8623","key"," "," ","16.665185686653682","500","250","psychophysics","81","735456","0.0-81.0","60ff2c3d915d23318b73ae8d","6213cd2eae1cf3333e0b3403","3","0","45","47","","",""
"7891","key"," "," ","16.66506765327706","500","250","psychophysics","82","743352","0.0-82.0","60ff2c3d915d23318b73ae8d","6213cd2eae1cf3333e0b3403","3","5","54","46","","",""
"15673","key"," "," ","16.66606176783816","500","250","psychophysics","83","759028","0.0-83.0","60ff2c3d915d23318b73ae8d","6213cd2eae1cf3333e0b3403","3","0","42","43","","",""
"10035","key"," "," ","16.66674750830562","500","250","psychophysics","84","769068","0.0-84.0","60ff2c3d915d23318b73ae8d","6213cd2eae1cf3333e0b3403","3","5","40","38","","",""
"11845","key"," "," ","16.665952045134038","500","250","psychophysics","85","780911","0.0-85.0","60ff2c3d915d23318b73ae8d","6213cd2eae1cf3333e0b3403","3","0","60","67","","",""
"6654","key"," "," ","16.7087175000002","500","250","psychophysics","86","787604","0.0-86.0","60ff2c3d915d23318b73ae8d","6213cd2eae1cf3333e0b3403","3","5","39","31","","",""
"8977","key"," "," ","16.666399628252872","500","250","psychophysics","87","796587","0.0-87.0","60ff2c3d915d23318b73ae8d","6213cd2eae1cf3333e0b3403","3","0","23","28","","",""
"6227","key"," "," ","16.666546916890322","500","250","psychophysics","88","802819","0.0-88.0","60ff2c3d915d23318b73ae8d","6213cd2eae1cf3333e0b3403","3","5","26","20","","",""
"5356","key"," "," ","16.66514953271003","500","250","psychophysics","89","808181","0.0-89.0","60ff2c3d915d23318b73ae8d","6213cd2eae1cf3333e0b3403","3","0","56","54","","",""
"16967","key"," "," ","16.666204523107204","500","250","psychophysics","90","825154","0.0-90.0","60ff2c3d915d23318b73ae8d","6213cd2eae1cf3333e0b3403","3","5","36","30","","",""
"5207","key"," "," ","16.665596153846053","500","250","psychophysics","91","830369","0.0-91.0","60ff2c3d915d23318b73ae8d","6213cd2eae1cf3333e0b3403","3","0","25","25","","",""
"3361","key"," "," ","16.66607462686593","500","250","psychophysics","92","833738","0.0-92.0","60ff2c3d915d23318b73ae8d","6213cd2eae1cf3333e0b3403","","","","","","",""
"38495","","","v","","","","html-keyboard-response","93","872236","0.0-93.0","60ff2c3d915d23318b73ae8d","6213cd2eae1cf3333e0b3403","","","","","<p> In this part of the experiment, we are going present digits 1, 2, 3, 4, 6, 7, 8, and 9.  Notice that 5 is missing.  Your job is to say whether the presented digit is less than or greater than 5.  For example, 3 is less than 5 and 7 is greater than 5.  If the digit is less than 5, press the v key; if it is greater than 5, press the n key. We are going to do 200 of these in total, but only 50 righ now. They go real fast.</p>  <br><br>  Ready? (press v or n)","",""
"2628","key","v","v","16.667050632911945","500","250","psychophysics","94","874873","0.0-94.0","60ff2c3d915d23318b73ae8d","6213cd2eae1cf3333e0b3403","4","","","","","1","3"
"null","","","null","","","","html-keyboard-response","95","875377","0.0-95.0","60ff2c3d915d23318b73ae8d","6213cd2eae1cf3333e0b3403","","","","","<p style=""color:darkgreen;font-size:24px;"">Correct :)</p>","",""
"2786","key","n","n","16.663363095238484","500","250","psychophysics","96","878181","0.0-96.0","60ff2c3d915d23318b73ae8d","6213cd2eae1cf3333e0b3403","4","","","","","1","8"
"null","","","null","","","","html-keyboard-response","97","878689","0.0-97.0","60ff2c3d915d23318b73ae8d","6213cd2eae1cf3333e0b3403","","","","","<p style=""color:darkgreen;font-size:24px;"">Correct :)</p>","",""
"3270","key","v","v","16.751198979591766","500","250","psychophysics","98","881966","0.0-98.0","60ff2c3d915d23318b73ae8d","6213cd2eae1cf3333e0b3403","4","","","","","1","4"
"null","","","null","","","","html-keyboard-response","99","882476","0.0-99.0","60ff2c3d915d23318b73ae8d","6213cd2eae1cf3333e0b3403","","","","","<p style=""color:darkgreen;font-size:24px;"">Correct :)</p>","",""
"2632","key","n","n","16.667303797468406","500","250","psychophysics","100","885113","0.0-100.0","60ff2c3d915d23318b73ae8d","6213cd2eae1cf3333e0b3403","4","","","","","1","7"
"null","","","null","","","","html-keyboard-response","101","885621","0.0-101.0","60ff2c3d915d23318b73ae8d","6213cd2eae1cf3333e0b3403","","","","","<p style=""color:darkgreen;font-size:24px;"">Correct :)</p>","",""
"3083","key","v","v","16.6659569892474","500","250","psychophysics","102","888713","0.0-102.0","60ff2c3d915d23318b73ae8d","6213cd2eae1cf3333e0b3403","4","","","","","1","6"
"null","","","null","","","","html-keyboard-response","103","889219","0.0-103.0","60ff2c3d915d23318b73ae8d","6213cd2eae1cf3333e0b3403","","","","","<p style=""color:red;font-size:24px;"">Error :(</p>","",""
"395","key","n","n","16.648919999999926","500","250","psychophysics","104","889628","0.0-104.0","60ff2c3d915d23318b73ae8d","6213cd2eae1cf3333e0b3403","4","","","","","1","9"
"null","","","null","","","","html-keyboard-response","105","890135","0.0-105.0","60ff2c3d915d23318b73ae8d","6213cd2eae1cf3333e0b3403","","","","","<p style=""color:darkgreen;font-size:24px;"">Correct :)</p>","",""
"2815","key","v","v","16.66562499999972","500","250","psychophysics","106","892959","0.0-106.0","60ff2c3d915d23318b73ae8d","6213cd2eae1cf3333e0b3403","4","","","","","1","1"
"null","","","null","","","","html-keyboard-response","107","893468","0.0-107.0","60ff2c3d915d23318b73ae8d","6213cd2eae1cf3333e0b3403","","","","","<p style=""color:darkgreen;font-size:24px;"">Correct :)</p>","",""
"3345","key","n","n","16.666194029850306","500","250","psychophysics","108","896817","0.0-108.0","60ff2c3d915d23318b73ae8d","6213cd2eae1cf3333e0b3403","4","","","","","1","4"
"null","","","null","","","","html-keyboard-response","109","897322","0.0-109.0","60ff2c3d915d23318b73ae8d","6213cd2eae1cf3333e0b3403","","","","","<p style=""color:red;font-size:24px;"">Error :(</p>","",""
"515","key","v","v","16.66053124999962","500","250","psychophysics","110","897848","0.0-110.0","60ff2c3d915d23318b73ae8d","6213cd2eae1cf3333e0b3403","4","","","","","1","3"
"null","","","null","","","","html-keyboard-response","111","898354","0.0-111.0","60ff2c3d915d23318b73ae8d","6213cd2eae1cf3333e0b3403","","","","","<p style=""color:darkgreen;font-size:24px;"">Correct :)</p>","",""
"2646","key","v","v","16.663534591194836","500","250","psychophysics","112","901007","0.0-112.0","60ff2c3d915d23318b73ae8d","6213cd2eae1cf3333e0b3403","4","","","","","1","2"
"null","","","null","","","","html-keyboard-response","113","901512","0.0-113.0","60ff2c3d915d23318b73ae8d","6213cd2eae1cf3333e0b3403","","","","","<p style=""color:darkgreen;font-size:24px;"">Correct :)</p>","",""
"2464","key","n","n","16.66641891891895","500","250","psychophysics","114","903987","0.0-114.0","60ff2c3d915d23318b73ae8d","6213cd2eae1cf3333e0b3403","4","","","","","1","9"
"null","","","null","","","","html-keyboard-response","115","904503","0.0-115.0","60ff2c3d915d23318b73ae8d","6213cd2eae1cf3333e0b3403","","","","","<p style=""color:darkgreen;font-size:24px;"">Correct :)</p>","",""
"2544","key","n","n","16.667444444444865","500","250","psychophysics","116","907051","0.0-116.0","60ff2c3d915d23318b73ae8d","6213cd2eae1cf3333e0b3403","4","","","","","1","7"
"null","","","null","","","","html-keyboard-response","117","907557","0.0-117.0","60ff2c3d915d23318b73ae8d","6213cd2eae1cf3333e0b3403","","","","","<p style=""color:darkgreen;font-size:24px;"">Correct :)</p>","",""
"2513","key","v","v","16.669633333333767","500","250","psychophysics","118","910074","0.0-118.0","60ff2c3d915d23318b73ae8d","6213cd2eae1cf3333e0b3403","4","","","","","1","2"
"null","","","null","","","","html-keyboard-response","119","910576","0.0-119.0","60ff2c3d915d23318b73ae8d","6213cd2eae1cf3333e0b3403","","","","","<p style=""color:darkgreen;font-size:24px;"">Correct :)</p>","",""
"2773","key","n","n","16.767584337349366","500","250","psychophysics","120","913352","0.0-120.0","60ff2c3d915d23318b73ae8d","6213cd2eae1cf3333e0b3403","4","","","","","1","8"
"null","","","null","","","","html-keyboard-response","121","913861","0.0-121.0","60ff2c3d915d23318b73ae8d","6213cd2eae1cf3333e0b3403","","","","","<p style=""color:darkgreen;font-size:24px;"">Correct :)</p>","",""
"2939","key","n","n","16.6685284090907","500","250","psychophysics","122","916804","0.0-122.0","60ff2c3d915d23318b73ae8d","6213cd2eae1cf3333e0b3403","4","","","","","1","6"
"null","","","null","","","","html-keyboard-response","123","917306","0.0-123.0","60ff2c3d915d23318b73ae8d","6213cd2eae1cf3333e0b3403","","","","","<p style=""color:darkgreen;font-size:24px;"">Correct :)</p>","",""
"2582","key","n","n","16.666839743589755","500","250","psychophysics","124","919896","0.0-124.0","60ff2c3d915d23318b73ae8d","6213cd2eae1cf3333e0b3403","4","","","","","1","8"
"null","","","null","","","","html-keyboard-response","125","920404","0.0-125.0","60ff2c3d915d23318b73ae8d","6213cd2eae1cf3333e0b3403","","","","","<p style=""color:darkgreen;font-size:24px;"">Correct :)</p>","",""
"2566","key","v","v","16.666285714285763","500","250","psychophysics","126","922974","0.0-126.0","60ff2c3d915d23318b73ae8d","6213cd2eae1cf3333e0b3403","4","","","","","1","4"
"null","","","null","","","","html-keyboard-response","127","923484","0.0-127.0","60ff2c3d915d23318b73ae8d","6213cd2eae1cf3333e0b3403","","","","","<p style=""color:darkgreen;font-size:24px;"">Correct :)</p>","",""
"3043","key","n","n","16.664797814207308","500","250","psychophysics","128","926535","0.0-128.0","60ff2c3d915d23318b73ae8d","6213cd2eae1cf3333e0b3403","4","","","","","1","7"
"null","","","null","","","","html-keyboard-response","129","927041","0.0-129.0","60ff2c3d915d23318b73ae8d","6213cd2eae1cf3333e0b3403","","","","","<p style=""color:darkgreen;font-size:24px;"">Correct :)</p>","",""
"2621","key","n","n","16.66926582278448","500","250","psychophysics","130","929674","0.0-130.0","60ff2c3d915d23318b73ae8d","6213cd2eae1cf3333e0b3403","4","","","","","1","9"
"null","","","null","","","","html-keyboard-response","131","930185","0.0-131.0","60ff2c3d915d23318b73ae8d","6213cd2eae1cf3333e0b3403","","","","","<p style=""color:darkgreen;font-size:24px;"">Correct :)</p>","",""
"2800","key","n","n","16.669184523809236","500","250","psychophysics","132","932992","0.0-132.0","60ff2c3d915d23318b73ae8d","6213cd2eae1cf3333e0b3403","4","","","","","1","6"
"null","","","null","","","","html-keyboard-response","133","933509","0.0-133.0","60ff2c3d915d23318b73ae8d","6213cd2eae1cf3333e0b3403","","","","","<p style=""color:darkgreen;font-size:24px;"">Correct :)</p>","",""
"2707","key","n","n","16.666018633539963","500","250","psychophysics","134","936219","0.0-134.0","60ff2c3d915d23318b73ae8d","6213cd2eae1cf3333e0b3403","4","","","","","1","7"
"null","","","null","","","","html-keyboard-response","135","936734","0.0-135.0","60ff2c3d915d23318b73ae8d","6213cd2eae1cf3333e0b3403","","","","","<p style=""color:darkgreen;font-size:24px;"">Correct :)</p>","",""
"2641","key","n","n","16.6676163522017","500","250","psychophysics","136","939384","0.0-136.0","60ff2c3d915d23318b73ae8d","6213cd2eae1cf3333e0b3403","4","","","","","1","6"
"null","","","null","","","","html-keyboard-response","137","939892","0.0-137.0","60ff2c3d915d23318b73ae8d","6213cd2eae1cf3333e0b3403","","","","","<p style=""color:darkgreen;font-size:24px;"">Correct :)</p>","",""
"2648","key","v","v","16.668698113207387","500","250","psychophysics","138","942562","0.0-138.0","60ff2c3d915d23318b73ae8d","6213cd2eae1cf3333e0b3403","4","","","","","1","4"
"null","","","null","","","","html-keyboard-response","139","943072","0.0-139.0","60ff2c3d915d23318b73ae8d","6213cd2eae1cf3333e0b3403","","","","","<p style=""color:darkgreen;font-size:24px;"">Correct :)</p>","",""
"2495","key","n","n","16.66860000000025","500","250","psychophysics","140","945570","0.0-140.0","60ff2c3d915d23318b73ae8d","6213cd2eae1cf3333e0b3403","4","","","","","1","7"
"null","","","null","","","","html-keyboard-response","141","946081","0.0-141.0","60ff2c3d915d23318b73ae8d","6213cd2eae1cf3333e0b3403","","","","","<p style=""color:darkgreen;font-size:24px;"">Correct :)</p>","",""
"2707","key","v","v","16.668110429447864","500","250","psychophysics","142","948796","0.0-142.0","60ff2c3d915d23318b73ae8d","6213cd2eae1cf3333e0b3403","4","","","","","1","4"
"null","","","null","","","","html-keyboard-response","143","949302","0.0-143.0","60ff2c3d915d23318b73ae8d","6213cd2eae1cf3333e0b3403","","","","","<p style=""color:darkgreen;font-size:24px;"">Correct :)</p>","",""
"2726","key","v","v","16.669176829268263","500","250","psychophysics","144","952036","0.0-144.0","60ff2c3d915d23318b73ae8d","6213cd2eae1cf3333e0b3403","4","","","","","1","1"
"null","","","null","","","","html-keyboard-response","145","952542","0.0-145.0","60ff2c3d915d23318b73ae8d","6213cd2eae1cf3333e0b3403","","","","","<p style=""color:darkgreen;font-size:24px;"">Correct :)</p>","",""
"2412","key","n","n","16.666220689654864","500","250","psychophysics","146","954968","0.0-146.0","60ff2c3d915d23318b73ae8d","6213cd2eae1cf3333e0b3403","4","","","","","1","9"
"null","","","null","","","","html-keyboard-response","147","955478","0.0-147.0","60ff2c3d915d23318b73ae8d","6213cd2eae1cf3333e0b3403","","","","","<p style=""color:darkgreen;font-size:24px;"">Correct :)</p>","",""
"2581","key","n","n","16.663574193548712","500","250","psychophysics","148","958069","0.0-148.0","60ff2c3d915d23318b73ae8d","6213cd2eae1cf3333e0b3403","4","","","","","1","8"
"null","","","null","","","","html-keyboard-response","149","958576","0.0-149.0","60ff2c3d915d23318b73ae8d","6213cd2eae1cf3333e0b3403","","","","","<p style=""color:darkgreen;font-size:24px;"">Correct :)</p>","",""
"2598","key","v","v","16.666891025641235","500","250","psychophysics","150","961181","0.0-150.0","60ff2c3d915d23318b73ae8d","6213cd2eae1cf3333e0b3403","4","","","","","1","1"
"null","","","null","","","","html-keyboard-response","151","961693","0.0-151.0","60ff2c3d915d23318b73ae8d","6213cd2eae1cf3333e0b3403","","","","","<p style=""color:darkgreen;font-size:24px;"">Correct :)</p>","",""
"2451","key","n","n","16.667380952380825","500","250","psychophysics","152","964150","0.0-152.0","60ff2c3d915d23318b73ae8d","6213cd2eae1cf3333e0b3403","4","","","","","1","9"
"null","","","null","","","","html-keyboard-response","153","964666","0.0-153.0","60ff2c3d915d23318b73ae8d","6213cd2eae1cf3333e0b3403","","","","","<p style=""color:darkgreen;font-size:24px;"">Correct :)</p>","",""
"2457","key","v","v","16.66692567567618","500","250","psychophysics","154","967127","0.0-154.0","60ff2c3d915d23318b73ae8d","6213cd2eae1cf3333e0b3403","4","","","","","1","3"
"null","","","null","","","","html-keyboard-response","155","967638","0.0-155.0","60ff2c3d915d23318b73ae8d","6213cd2eae1cf3333e0b3403","","","","","<p style=""color:darkgreen;font-size:24px;"">Correct :)</p>","",""
"2590","key","n","n","16.665483870967893","500","250","psychophysics","156","970231","0.0-156.0","60ff2c3d915d23318b73ae8d","6213cd2eae1cf3333e0b3403","4","","","","","1","8"
"null","","","null","","","","html-keyboard-response","157","970737","0.0-157.0","60ff2c3d915d23318b73ae8d","6213cd2eae1cf3333e0b3403","","","","","<p style=""color:darkgreen;font-size:24px;"">Correct :)</p>","",""
"2609","key","v","v","16.771968152866386","500","250","psychophysics","158","973360","0.0-158.0","60ff2c3d915d23318b73ae8d","6213cd2eae1cf3333e0b3403","4","","","","","1","1"
"null","","","null","","","","html-keyboard-response","159","973863","0.0-159.0","60ff2c3d915d23318b73ae8d","6213cd2eae1cf3333e0b3403","","","","","<p style=""color:darkgreen;font-size:24px;"">Correct :)</p>","",""
"2805","key","v","v","16.66637869822495","500","250","psychophysics","160","976675","0.0-160.0","60ff2c3d915d23318b73ae8d","6213cd2eae1cf3333e0b3403","4","","","","","1","1"
"null","","","null","","","","html-keyboard-response","161","977194","0.0-161.0","60ff2c3d915d23318b73ae8d","6213cd2eae1cf3333e0b3403","","","","","<p style=""color:darkgreen;font-size:24px;"">Correct :)</p>","",""
"2717","key","v","v","16.66947852760736","500","250","psychophysics","162","979920","0.0-162.0","60ff2c3d915d23318b73ae8d","6213cd2eae1cf3333e0b3403","4","","","","","1","3"
"null","","","null","","","","html-keyboard-response","163","980429","0.0-163.0","60ff2c3d915d23318b73ae8d","6213cd2eae1cf3333e0b3403","","","","","<p style=""color:darkgreen;font-size:24px;"">Correct :)</p>","",""
"2872","key","v","v","16.66881502890149","500","250","psychophysics","164","983310","0.0-164.0","60ff2c3d915d23318b73ae8d","6213cd2eae1cf3333e0b3403","4","","","","","1","1"
"null","","","null","","","","html-keyboard-response","165","983824","0.0-165.0","60ff2c3d915d23318b73ae8d","6213cd2eae1cf3333e0b3403","","","","","<p style=""color:darkgreen;font-size:24px;"">Correct :)</p>","",""
"2569","key","n","n","16.666064516128973","500","250","psychophysics","166","986410","0.0-166.0","60ff2c3d915d23318b73ae8d","6213cd2eae1cf3333e0b3403","4","","","","","1","9"
"null","","","null","","","","html-keyboard-response","167","986923","0.0-167.0","60ff2c3d915d23318b73ae8d","6213cd2eae1cf3333e0b3403","","","","","<p style=""color:darkgreen;font-size:24px;"">Correct :)</p>","",""
"2634","key","v","v","16.666050632911606","500","250","psychophysics","168","989563","0.0-168.0","60ff2c3d915d23318b73ae8d","6213cd2eae1cf3333e0b3403","4","","","","","1","2"
"null","","","null","","","","html-keyboard-response","169","990070","0.0-169.0","60ff2c3d915d23318b73ae8d","6213cd2eae1cf3333e0b3403","","","","","<p style=""color:darkgreen;font-size:24px;"">Correct :)</p>","",""
"2532","key","n","n","16.66902614379107","500","250","psychophysics","170","992627","0.0-170.0","60ff2c3d915d23318b73ae8d","6213cd2eae1cf3333e0b3403","4","","","","","1","7"
"null","","","null","","","","html-keyboard-response","171","993137","0.0-171.0","60ff2c3d915d23318b73ae8d","6213cd2eae1cf3333e0b3403","","","","","<p style=""color:darkgreen;font-size:24px;"">Correct :)</p>","",""
"2729","key","n","n","16.667098159508985","500","250","psychophysics","172","995870","0.0-172.0","60ff2c3d915d23318b73ae8d","6213cd2eae1cf3333e0b3403","4","","","","","1","9"
"null","","","null","","","","html-keyboard-response","173","996384","0.0-173.0","60ff2c3d915d23318b73ae8d","6213cd2eae1cf3333e0b3403","","","","","<p style=""color:darkgreen;font-size:24px;"">Correct :)</p>","",""
"2820","key","v","v","16.6661470588235","500","250","psychophysics","174","999212","0.0-174.0","60ff2c3d915d23318b73ae8d","6213cd2eae1cf3333e0b3403","4","","","","","1","4"
"null","","","null","","","","html-keyboard-response","175","999717","0.0-175.0","60ff2c3d915d23318b73ae8d","6213cd2eae1cf3333e0b3403","","","","","<p style=""color:darkgreen;font-size:24px;"">Correct :)</p>","",""
"2487","key","v","v","16.666106666666455","500","250","psychophysics","176","1002219","0.0-176.0","60ff2c3d915d23318b73ae8d","6213cd2eae1cf3333e0b3403","4","","","","","1","1"
"null","","","null","","","","html-keyboard-response","177","1002729","0.0-177.0","60ff2c3d915d23318b73ae8d","6213cd2eae1cf3333e0b3403","","","","","<p style=""color:darkgreen;font-size:24px;"">Correct :)</p>","",""
"2575","key","v","v","16.66641290322577","500","250","psychophysics","178","1005308","0.0-178.0","60ff2c3d915d23318b73ae8d","6213cd2eae1cf3333e0b3403","4","","","","","1","1"
"null","","","null","","","","html-keyboard-response","179","1005815","0.0-179.0","60ff2c3d915d23318b73ae8d","6213cd2eae1cf3333e0b3403","","","","","<p style=""color:darkgreen;font-size:24px;"">Correct :)</p>","",""
"2602","key","v","v","16.66650955414008","500","250","psychophysics","180","1008426","0.0-180.0","60ff2c3d915d23318b73ae8d","6213cd2eae1cf3333e0b3403","4","","","","","1","1"
"null","","","null","","","","html-keyboard-response","181","1008930","0.0-181.0","60ff2c3d915d23318b73ae8d","6213cd2eae1cf3333e0b3403","","","","","<p style=""color:darkgreen;font-size:24px;"">Correct :)</p>","",""
"2604","key","n","n","16.666592356688078","500","250","psychophysics","182","1011544","0.0-182.0","60ff2c3d915d23318b73ae8d","6213cd2eae1cf3333e0b3403","4","","","","","1","9"
"null","","","null","","","","html-keyboard-response","183","1012059","0.0-183.0","60ff2c3d915d23318b73ae8d","6213cd2eae1cf3333e0b3403","","","","","<p style=""color:darkgreen;font-size:24px;"">Correct :)</p>","",""
"2657","key","v","v","16.66863522012557","500","250","psychophysics","184","1014722","0.0-184.0","60ff2c3d915d23318b73ae8d","6213cd2eae1cf3333e0b3403","4","","","","","1","1"
"null","","","null","","","","html-keyboard-response","185","1015226","0.0-185.0","60ff2c3d915d23318b73ae8d","6213cd2eae1cf3333e0b3403","","","","","<p style=""color:darkgreen;font-size:24px;"">Correct :)</p>","",""
"2843","key","v","v","16.66661403508726","500","250","psychophysics","186","1018077","0.0-186.0","60ff2c3d915d23318b73ae8d","6213cd2eae1cf3333e0b3403","4","","","","","1","2"
"null","","","null","","","","html-keyboard-response","187","1018586","0.0-187.0","60ff2c3d915d23318b73ae8d","6213cd2eae1cf3333e0b3403","","","","","<p style=""color:darkgreen;font-size:24px;"">Correct :)</p>","",""
"2652","key","n","n","16.66756250000035","500","250","psychophysics","188","1021244","0.0-188.0","60ff2c3d915d23318b73ae8d","6213cd2eae1cf3333e0b3403","4","","","","","1","6"
"null","","","null","","","","html-keyboard-response","189","1021756","0.0-189.0","60ff2c3d915d23318b73ae8d","6213cd2eae1cf3333e0b3403","","","","","<p style=""color:darkgreen;font-size:24px;"">Correct :)</p>","",""
"2620","key","v","v","16.66779617834347","500","250","psychophysics","190","1024382","0.0-190.0","60ff2c3d915d23318b73ae8d","6213cd2eae1cf3333e0b3403","4","","","","","1","4"
"null","","","null","","","","html-keyboard-response","191","1024892","0.0-191.0","60ff2c3d915d23318b73ae8d","6213cd2eae1cf3333e0b3403","","","","","<p style=""color:darkgreen;font-size:24px;"">Correct :)</p>","",""
"2474","key","v","v","16.66605369127496","500","250","psychophysics","192","1027375","0.0-192.0","60ff2c3d915d23318b73ae8d","6213cd2eae1cf3333e0b3403","4","","","","","1","3"
"null","","","null","","","","html-keyboard-response","193","1027883","0.0-193.0","60ff2c3d915d23318b73ae8d","6213cd2eae1cf3333e0b3403","","","","","<p style=""color:darkgreen;font-size:24px;"">Correct :)</p>","",""
"13560","","","v","","","","html-keyboard-response","194","1041445","0.0-194.0","60ff2c3d915d23318b73ae8d","6213cd2eae1cf3333e0b3403","","","","","<p> Ok, now we are going present the same digits as before.  Your job is to say whether the digit is even or odd  If the digit is odd, press to v key; if it is even, press the n key. We are going to do 50 of these.  </p>  <br><br>  Ready? (press v or n)","",""
"2856","key","n","n","16.666215116278604","500","250","psychophysics","195","1044314","0.0-195.0","60ff2c3d915d23318b73ae8d","6213cd2eae1cf3333e0b3403","5","","","","","0","8"
"null","","","null","","","","html-keyboard-response","196","1044822","0.0-196.0","60ff2c3d915d23318b73ae8d","6213cd2eae1cf3333e0b3403","","","","","<p style=""color:darkgreen;font-size:24px;"">Correct :)</p>","",""
"2657","key","n","n","16.66645625000019","500","250","psychophysics","197","1047495","0.0-197.0","60ff2c3d915d23318b73ae8d","6213cd2eae1cf3333e0b3403","5","","","","","0","8"
"null","","","null","","","","html-keyboard-response","198","1047998","0.0-198.0","60ff2c3d915d23318b73ae8d","6213cd2eae1cf3333e0b3403","","","","","<p style=""color:darkgreen;font-size:24px;"">Correct :)</p>","",""
"2540","key","v","v","16.666686274509974","500","250","psychophysics","199","1050544","0.0-199.0","60ff2c3d915d23318b73ae8d","6213cd2eae1cf3333e0b3403","5","","","","","0","2"
"null","","","null","","","","html-keyboard-response","200","1051052","0.0-200.0","60ff2c3d915d23318b73ae8d","6213cd2eae1cf3333e0b3403","","","","","<p style=""color:red;font-size:24px;"">Error :(</p>","",""
"348","key","n","n","17.460666666672164","500","250","psychophysics","201","1051408","0.0-201.0","60ff2c3d915d23318b73ae8d","6213cd2eae1cf3333e0b3403","5","","","","","0","6"
"null","","","null","","","","html-keyboard-response","202","1051913","0.0-202.0","60ff2c3d915d23318b73ae8d","6213cd2eae1cf3333e0b3403","","","","","<p style=""color:darkgreen;font-size:24px;"">Correct :)</p>","",""
"2794","key","v","v","16.665378698224984","500","250","psychophysics","203","1054722","0.0-203.0","60ff2c3d915d23318b73ae8d","6213cd2eae1cf3333e0b3403","5","","","","","0","7"
"null","","","null","","","","html-keyboard-response","204","1055223","0.0-204.0","60ff2c3d915d23318b73ae8d","6213cd2eae1cf3333e0b3403","","","","","<p style=""color:darkgreen;font-size:24px;"">Correct :)</p>","",""
"2605","key","n","n","16.666192307692164","500","250","psychophysics","205","1057835","0.0-205.0","60ff2c3d915d23318b73ae8d","6213cd2eae1cf3333e0b3403","5","","","","","0","8"
"null","","","null","","","","html-keyboard-response","206","1058351","0.0-206.0","60ff2c3d915d23318b73ae8d","6213cd2eae1cf3333e0b3403","","","","","<p style=""color:darkgreen;font-size:24px;"">Correct :)</p>","",""
"2905","key","v","v","16.663160000000413","500","250","psychophysics","207","1061265","0.0-207.0","60ff2c3d915d23318b73ae8d","6213cd2eae1cf3333e0b3403","5","","","","","0","9"
"null","","","null","","","","html-keyboard-response","208","1061771","0.0-208.0","60ff2c3d915d23318b73ae8d","6213cd2eae1cf3333e0b3403","","","","","<p style=""color:darkgreen;font-size:24px;"">Correct :)</p>","",""
"2747","key","v","v","16.664678787878913","500","250","psychophysics","209","1064525","0.0-209.0","60ff2c3d915d23318b73ae8d","6213cd2eae1cf3333e0b3403","5","","","","","0","9"
"null","","","null","","","","html-keyboard-response","210","1065027","0.0-210.0","60ff2c3d915d23318b73ae8d","6213cd2eae1cf3333e0b3403","","","","","<p style=""color:darkgreen;font-size:24px;"">Correct :)</p>","",""
"3235","key","n","n","16.75106122449031","500","250","psychophysics","211","1068310","0.0-211.0","60ff2c3d915d23318b73ae8d","6213cd2eae1cf3333e0b3403","5","","","","","0","6"
"null","","","null","","","","html-keyboard-response","212","1068813","0.0-212.0","60ff2c3d915d23318b73ae8d","6213cd2eae1cf3333e0b3403","","","","","<p style=""color:darkgreen;font-size:24px;"">Correct :)</p>","",""
"2853","key","n","n","16.66889473684241","500","250","psychophysics","213","1071673","0.0-213.0","60ff2c3d915d23318b73ae8d","6213cd2eae1cf3333e0b3403","5","","","","","0","8"
"null","","","null","","","","html-keyboard-response","214","1072186","0.0-214.0","60ff2c3d915d23318b73ae8d","6213cd2eae1cf3333e0b3403","","","","","<p style=""color:darkgreen;font-size:24px;"">Correct :)</p>","",""
"2605","key","n","n","16.66916025641004","500","250","psychophysics","215","1074794","0.0-215.0","60ff2c3d915d23318b73ae8d","6213cd2eae1cf3333e0b3403","5","","","","","0","2"
"null","","","null","","","","html-keyboard-response","216","1075305","0.0-216.0","60ff2c3d915d23318b73ae8d","6213cd2eae1cf3333e0b3403","","","","","<p style=""color:darkgreen;font-size:24px;"">Correct :)</p>","",""
"2564","key","n","n","16.66642207792331","500","250","psychophysics","217","1077874","0.0-217.0","60ff2c3d915d23318b73ae8d","6213cd2eae1cf3333e0b3403","5","","","","","0","2"
"null","","","null","","","","html-keyboard-response","218","1078378","0.0-218.0","60ff2c3d915d23318b73ae8d","6213cd2eae1cf3333e0b3403","","","","","<p style=""color:darkgreen;font-size:24px;"">Correct :)</p>","",""
"2645","key","v","v","16.668465408805535","500","250","psychophysics","219","1081027","0.0-219.0","60ff2c3d915d23318b73ae8d","6213cd2eae1cf3333e0b3403","5","","","","","0","1"
"null","","","null","","","","html-keyboard-response","220","1081540","0.0-220.0","60ff2c3d915d23318b73ae8d","6213cd2eae1cf3333e0b3403","","","","","<p style=""color:darkgreen;font-size:24px;"">Correct :)</p>","",""
"2644","key","n","n","16.664861635220056","500","250","psychophysics","221","1084190","0.0-221.0","60ff2c3d915d23318b73ae8d","6213cd2eae1cf3333e0b3403","5","","","","","0","4"
"null","","","null","","","","html-keyboard-response","222","1084698","0.0-222.0","60ff2c3d915d23318b73ae8d","6213cd2eae1cf3333e0b3403","","","","","<p style=""color:darkgreen;font-size:24px;"">Correct :)</p>","",""
"2862","key","v","v","16.667877906976745","500","250","psychophysics","223","1087562","0.0-223.0","60ff2c3d915d23318b73ae8d","6213cd2eae1cf3333e0b3403","5","","","","","0","3"
"null","","","null","","","","html-keyboard-response","224","1088084","0.0-224.0","60ff2c3d915d23318b73ae8d","6213cd2eae1cf3333e0b3403","","","","","<p style=""color:darkgreen;font-size:24px;"">Correct :)</p>","",""
"2960","key","v","v","16.763338983051035","500","250","psychophysics","225","1091050","0.0-225.0","60ff2c3d915d23318b73ae8d","6213cd2eae1cf3333e0b3403","5","","","","","0","1"
"null","","","null","","","","html-keyboard-response","226","1091556","0.0-226.0","60ff2c3d915d23318b73ae8d","6213cd2eae1cf3333e0b3403","","","","","<p style=""color:darkgreen;font-size:24px;"">Correct :)</p>","",""
"2894","key","n","n","16.65745402298782","500","250","psychophysics","227","1094455","0.0-227.0","60ff2c3d915d23318b73ae8d","6213cd2eae1cf3333e0b3403","5","","","","","0","6"
"null","","","null","","","","html-keyboard-response","228","1094961","0.0-228.0","60ff2c3d915d23318b73ae8d","6213cd2eae1cf3333e0b3403","","","","","<p style=""color:darkgreen;font-size:24px;"">Correct :)</p>","",""
"2745","key","v","v","16.665521212122545","500","250","psychophysics","229","1097708","0.0-229.0","60ff2c3d915d23318b73ae8d","6213cd2eae1cf3333e0b3403","5","","","","","0","3"
"null","","","null","","","","html-keyboard-response","230","1098213","0.0-230.0","60ff2c3d915d23318b73ae8d","6213cd2eae1cf3333e0b3403","","","","","<p style=""color:darkgreen;font-size:24px;"">Correct :)</p>","",""
"2686","key","n","n","16.669136645963636","500","250","psychophysics","231","1100905","0.0-231.0","60ff2c3d915d23318b73ae8d","6213cd2eae1cf3333e0b3403","5","","","","","0","6"
"null","","","null","","","","html-keyboard-response","232","1101414","0.0-232.0","60ff2c3d915d23318b73ae8d","6213cd2eae1cf3333e0b3403","","","","","<p style=""color:darkgreen;font-size:24px;"">Correct :)</p>","",""
"2527","key","n","n","16.669822368421592","500","250","psychophysics","233","1103947","0.0-233.0","60ff2c3d915d23318b73ae8d","6213cd2eae1cf3333e0b3403","5","","","","","0","6"
"null","","","null","","","","html-keyboard-response","234","1104452","0.0-234.0","60ff2c3d915d23318b73ae8d","6213cd2eae1cf3333e0b3403","","","","","<p style=""color:darkgreen;font-size:24px;"">Correct :)</p>","",""
"2693","key","v","v","16.66643209876435","500","250","psychophysics","235","1107155","0.0-235.0","60ff2c3d915d23318b73ae8d","6213cd2eae1cf3333e0b3403","5","","","","","0","7"
"null","","","null","","","","html-keyboard-response","236","1107666","0.0-236.0","60ff2c3d915d23318b73ae8d","6213cd2eae1cf3333e0b3403","","","","","<p style=""color:darkgreen;font-size:24px;"">Correct :)</p>","",""
"2755","key","v","v","16.667759036144567","500","250","psychophysics","237","1110427","0.0-237.0","60ff2c3d915d23318b73ae8d","6213cd2eae1cf3333e0b3403","5","","","","","0","1"
"null","","","null","","","","html-keyboard-response","238","1110934","0.0-238.0","60ff2c3d915d23318b73ae8d","6213cd2eae1cf3333e0b3403","","","","","<p style=""color:darkgreen;font-size:24px;"">Correct :)</p>","",""
"2766","key","v","v","16.667608433734088","500","250","psychophysics","239","1113708","0.0-239.0","60ff2c3d915d23318b73ae8d","6213cd2eae1cf3333e0b3403","5","","","","","0","3"
"null","","","null","","","","html-keyboard-response","240","1114214","0.0-240.0","60ff2c3d915d23318b73ae8d","6213cd2eae1cf3333e0b3403","","","","","<p style=""color:darkgreen;font-size:24px;"">Correct :)</p>","",""
"2652","key","n","n","16.665812500000175","500","250","psychophysics","241","1116875","0.0-241.0","60ff2c3d915d23318b73ae8d","6213cd2eae1cf3333e0b3403","5","","","","","0","4"
"null","","","null","","","","html-keyboard-response","242","1117386","0.0-242.0","60ff2c3d915d23318b73ae8d","6213cd2eae1cf3333e0b3403","","","","","<p style=""color:darkgreen;font-size:24px;"">Correct :)</p>","",""
"2603","key","v","v","16.665783439490017","500","250","psychophysics","243","1120003","0.0-243.0","60ff2c3d915d23318b73ae8d","6213cd2eae1cf3333e0b3403","5","","","","","0","1"
"null","","","null","","","","html-keyboard-response","244","1120511","0.0-244.0","60ff2c3d915d23318b73ae8d","6213cd2eae1cf3333e0b3403","","","","","<p style=""color:darkgreen;font-size:24px;"">Correct :)</p>","",""
"2740","key","v","v","16.666909090909318","500","250","psychophysics","245","1123257","0.0-245.0","60ff2c3d915d23318b73ae8d","6213cd2eae1cf3333e0b3403","5","","","","","0","3"
"null","","","null","","","","html-keyboard-response","246","1123762","0.0-246.0","60ff2c3d915d23318b73ae8d","6213cd2eae1cf3333e0b3403","","","","","<p style=""color:darkgreen;font-size:24px;"">Correct :)</p>","",""
"2727","key","n","n","16.66707317073114","500","250","psychophysics","247","1126497","0.0-247.0","60ff2c3d915d23318b73ae8d","6213cd2eae1cf3333e0b3403","5","","","","","0","2"
"null","","","null","","","","html-keyboard-response","248","1127003","0.0-248.0","60ff2c3d915d23318b73ae8d","6213cd2eae1cf3333e0b3403","","","","","<p style=""color:darkgreen;font-size:24px;"">Correct :)</p>","",""
"2565","key","n","n","16.665662337663015","500","250","psychophysics","249","1129574","0.0-249.0","60ff2c3d915d23318b73ae8d","6213cd2eae1cf3333e0b3403","5","","","","","0","4"
"null","","","null","","","","html-keyboard-response","250","1130077","0.0-250.0","60ff2c3d915d23318b73ae8d","6213cd2eae1cf3333e0b3403","","","","","<p style=""color:darkgreen;font-size:24px;"">Correct :)</p>","",""
"2734","key","n","n","16.663921212121338","500","250","psychophysics","251","1132828","0.0-251.0","60ff2c3d915d23318b73ae8d","6213cd2eae1cf3333e0b3403","5","","","","","0","2"
"null","","","null","","","","html-keyboard-response","252","1133340","0.0-252.0","60ff2c3d915d23318b73ae8d","6213cd2eae1cf3333e0b3403","","","","","<p style=""color:darkgreen;font-size:24px;"">Correct :)</p>","",""
"2704","key","n","n","16.668085889570825","500","250","psychophysics","253","1136054","0.0-253.0","60ff2c3d915d23318b73ae8d","6213cd2eae1cf3333e0b3403","5","","","","","0","8"
"null","","","null","","","","html-keyboard-response","254","1136565","0.0-254.0","60ff2c3d915d23318b73ae8d","6213cd2eae1cf3333e0b3403","","","","","<p style=""color:darkgreen;font-size:24px;"">Correct :)</p>","",""
"2613","key","n","n","16.668445859872588","500","250","psychophysics","255","1139183","0.0-255.0","60ff2c3d915d23318b73ae8d","6213cd2eae1cf3333e0b3403","5","","","","","0","8"
"null","","","null","","","","html-keyboard-response","256","1139688","0.0-256.0","60ff2c3d915d23318b73ae8d","6213cd2eae1cf3333e0b3403","","","","","<p style=""color:darkgreen;font-size:24px;"">Correct :)</p>","",""
"2827","key","n","n","16.665647058824405","500","250","psychophysics","257","1142528","0.0-257.0","60ff2c3d915d23318b73ae8d","6213cd2eae1cf3333e0b3403","5","","","","","0","2"
"null","","","null","","","","html-keyboard-response","258","1143037","0.0-258.0","60ff2c3d915d23318b73ae8d","6213cd2eae1cf3333e0b3403","","","","","<p style=""color:darkgreen;font-size:24px;"">Correct :)</p>","",""
"2604","key","n","n","16.665519230769206","500","250","psychophysics","259","1145644","0.0-259.0","60ff2c3d915d23318b73ae8d","6213cd2eae1cf3333e0b3403","5","","","","","0","4"
"null","","","null","","","","html-keyboard-response","260","1146154","0.0-260.0","60ff2c3d915d23318b73ae8d","6213cd2eae1cf3333e0b3403","","","","","<p style=""color:darkgreen;font-size:24px;"">Correct :)</p>","",""
"2472","key","n","n","16.669006756756996","500","250","psychophysics","261","1148628","0.0-261.0","60ff2c3d915d23318b73ae8d","6213cd2eae1cf3333e0b3403","5","","","","","0","4"
"null","","","null","","","","html-keyboard-response","262","1149134","0.0-262.0","60ff2c3d915d23318b73ae8d","6213cd2eae1cf3333e0b3403","","","","","<p style=""color:darkgreen;font-size:24px;"">Correct :)</p>","",""
"2523","key","v","v","16.6689671052629","500","250","psychophysics","263","1151670","0.0-263.0","60ff2c3d915d23318b73ae8d","6213cd2eae1cf3333e0b3403","5","","","","","0","3"
"null","","","null","","","","html-keyboard-response","264","1152180","0.0-264.0","60ff2c3d915d23318b73ae8d","6213cd2eae1cf3333e0b3403","","","","","<p style=""color:darkgreen;font-size:24px;"">Correct :)</p>","",""
"2943","key","v","v","16.666429378530328","500","250","psychophysics","265","1155135","0.0-265.0","60ff2c3d915d23318b73ae8d","6213cd2eae1cf3333e0b3403","5","","","","","0","9"
"null","","","null","","","","html-keyboard-response","266","1155640","0.0-266.0","60ff2c3d915d23318b73ae8d","6213cd2eae1cf3333e0b3403","","","","","<p style=""color:darkgreen;font-size:24px;"">Correct :)</p>","",""
"2674","key","n","n","16.66966459627252","500","250","psychophysics","267","1158318","0.0-267.0","60ff2c3d915d23318b73ae8d","6213cd2eae1cf3333e0b3403","5","","","","","0","8"
"null","","","null","","","","html-keyboard-response","268","1158828","0.0-268.0","60ff2c3d915d23318b73ae8d","6213cd2eae1cf3333e0b3403","","","","","<p style=""color:darkgreen;font-size:24px;"">Correct :)</p>","",""
"3057","key","n","n","16.757655737705306","500","250","psychophysics","269","1161892","0.0-269.0","60ff2c3d915d23318b73ae8d","6213cd2eae1cf3333e0b3403","5","","","","","0","7"
"null","","","null","","","","html-keyboard-response","270","1162408","0.0-270.0","60ff2c3d915d23318b73ae8d","6213cd2eae1cf3333e0b3403","","","","","<p style=""color:red;font-size:24px;"">Error :(</p>","",""
"432","key","v","v","16.68365384615922","500","250","psychophysics","271","1162843","0.0-271.0","60ff2c3d915d23318b73ae8d","6213cd2eae1cf3333e0b3403","5","","","","","0","9"
"null","","","null","","","","html-keyboard-response","272","1163353","0.0-272.0","60ff2c3d915d23318b73ae8d","6213cd2eae1cf3333e0b3403","","","","","<p style=""color:darkgreen;font-size:24px;"">Correct :)</p>","",""
"2884","key","v","v","16.6687816091955","500","250","psychophysics","273","1166251","0.0-273.0","60ff2c3d915d23318b73ae8d","6213cd2eae1cf3333e0b3403","5","","","","","0","3"
"null","","","null","","","","html-keyboard-response","274","1166760","0.0-274.0","60ff2c3d915d23318b73ae8d","6213cd2eae1cf3333e0b3403","","","","","<p style=""color:darkgreen;font-size:24px;"">Correct :)</p>","",""
"2773","key","n","n","16.668832335328336","500","250","psychophysics","275","1169539","0.0-275.0","60ff2c3d915d23318b73ae8d","6213cd2eae1cf3333e0b3403","5","","","","","0","4"
"null","","","null","","","","html-keyboard-response","276","1170058","0.0-276.0","60ff2c3d915d23318b73ae8d","6213cd2eae1cf3333e0b3403","","","","","<p style=""color:darkgreen;font-size:24px;"">Correct :)</p>","",""
"2730","key","v","v","16.668207317073943","500","250","psychophysics","277","1172798","0.0-277.0","60ff2c3d915d23318b73ae8d","6213cd2eae1cf3333e0b3403","5","","","","","0","1"
"null","","","null","","","","html-keyboard-response","278","1173304","0.0-278.0","60ff2c3d915d23318b73ae8d","6213cd2eae1cf3333e0b3403","","","","","<p style=""color:darkgreen;font-size:24px;"">Correct :)</p>","",""
"3138","key","v","v","16.66420105820098","500","250","psychophysics","279","1176451","0.0-279.0","60ff2c3d915d23318b73ae8d","6213cd2eae1cf3333e0b3403","5","","","","","0","3"
"null","","","null","","","","html-keyboard-response","280","1176955","0.0-280.0","60ff2c3d915d23318b73ae8d","6213cd2eae1cf3333e0b3403","","","","","<p style=""color:darkgreen;font-size:24px;"">Correct :)</p>","",""
"2875","key","n","n","16.66433526011523","500","250","psychophysics","281","1179833","0.0-281.0","60ff2c3d915d23318b73ae8d","6213cd2eae1cf3333e0b3403","5","","","","","0","8"
"null","","","null","","","","html-keyboard-response","282","1180345","0.0-282.0","60ff2c3d915d23318b73ae8d","6213cd2eae1cf3333e0b3403","","","","","<p style=""color:darkgreen;font-size:24px;"">Correct :)</p>","",""
"2662","key","n","n","16.66644654088103","500","250","psychophysics","283","1183012","0.0-283.0","60ff2c3d915d23318b73ae8d","6213cd2eae1cf3333e0b3403","5","","","","","0","8"
"null","","","null","","","","html-keyboard-response","284","1183516","0.0-284.0","60ff2c3d915d23318b73ae8d","6213cd2eae1cf3333e0b3403","","","","","<p style=""color:darkgreen;font-size:24px;"">Correct :)</p>","",""
"2837","key","n","n","16.667859649122285","500","250","psychophysics","285","1186367","0.0-285.0","60ff2c3d915d23318b73ae8d","6213cd2eae1cf3333e0b3403","5","","","","","0","4"
"null","","","null","","","","html-keyboard-response","286","1186872","0.0-286.0","60ff2c3d915d23318b73ae8d","6213cd2eae1cf3333e0b3403","","","","","<p style=""color:darkgreen;font-size:24px;"">Correct :)</p>","",""
"2706","key","v","v","16.665883435582046","500","250","psychophysics","287","1189584","0.0-287.0","60ff2c3d915d23318b73ae8d","6213cd2eae1cf3333e0b3403","5","","","","","0","1"
"null","","","null","","","","html-keyboard-response","288","1190088","0.0-288.0","60ff2c3d915d23318b73ae8d","6213cd2eae1cf3333e0b3403","","","","","<p style=""color:darkgreen;font-size:24px;"">Correct :)</p>","",""
"2695","key","n","n","16.666938271604902","500","250","psychophysics","289","1192788","0.0-289.0","60ff2c3d915d23318b73ae8d","6213cd2eae1cf3333e0b3403","5","","","","","0","6"
"null","","","null","","","","html-keyboard-response","290","1193301","0.0-290.0","60ff2c3d915d23318b73ae8d","6213cd2eae1cf3333e0b3403","","","","","<p style=""color:darkgreen;font-size:24px;"">Correct :)</p>","",""
"2704","key","v","v","16.663617283950938","500","250","psychophysics","291","1196008","0.0-291.0","60ff2c3d915d23318b73ae8d","6213cd2eae1cf3333e0b3403","5","","","","","0","3"
"null","","","null","","","","html-keyboard-response","292","1196518","0.0-292.0","60ff2c3d915d23318b73ae8d","6213cd2eae1cf3333e0b3403","","","","","<p style=""color:darkgreen;font-size:24px;"">Correct :)</p>","",""
"2516","key","n","n","16.66801324503385","500","250","psychophysics","293","1199038","0.0-293.0","60ff2c3d915d23318b73ae8d","6213cd2eae1cf3333e0b3403","5","","","","","0","2"
"null","","","null","","","","html-keyboard-response","294","1199547","0.0-294.0","60ff2c3d915d23318b73ae8d","6213cd2eae1cf3333e0b3403","","","","","<p style=""color:darkgreen;font-size:24px;"">Correct :)</p>","",""
"21265","","","v","","","","html-keyboard-response","295","1220813","0.0-295.0","60ff2c3d915d23318b73ae8d","6213cd2eae1cf3333e0b3403","","","","","<p> Here, the tasks are going to switch.  For some trials, your job is to decide if the digit is less than or greater than 5.  For others, it is to decide if the digit is even or odd.  You will be told which type of trial the current one is.  But, pay attention, the type of trial changes too.  We are going to do 50 of these.  </p>  <br><br>  Ready? (press v or n)","",""
"4561","key","n","n","16.670178832116633","500","250","psychophysics","296","1225383","0.0-296.0","60ff2c3d915d23318b73ae8d","6213cd2eae1cf3333e0b3403","6","","","","","0","4"
"null","","","null","","","","html-keyboard-response","297","1225885","0.0-297.0","60ff2c3d915d23318b73ae8d","6213cd2eae1cf3333e0b3403","","","","","<p style=""color:darkgreen;font-size:24px;"">Correct :)</p>","",""
"2768","key","v","v","16.667644578312714","500","250","psychophysics","298","1228656","0.0-298.0","60ff2c3d915d23318b73ae8d","6213cd2eae1cf3333e0b3403","6","","","","","1","4"
"null","","","null","","","","html-keyboard-response","299","1229166","0.0-299.0","60ff2c3d915d23318b73ae8d","6213cd2eae1cf3333e0b3403","","","","","<p style=""color:darkgreen;font-size:24px;"">Correct :)</p>","",""
"2664","key","v","v","16.666218749999825","500","250","psychophysics","300","1231833","0.0-300.0","60ff2c3d915d23318b73ae8d","6213cd2eae1cf3333e0b3403","6","","","","","0","7"
"null","","","null","","","","html-keyboard-response","301","1232343","0.0-301.0","60ff2c3d915d23318b73ae8d","6213cd2eae1cf3333e0b3403","","","","","<p style=""color:darkgreen;font-size:24px;"">Correct :)</p>","",""
"2761","key","v","v","16.667746987951222","500","250","psychophysics","302","1235112","0.0-302.0","60ff2c3d915d23318b73ae8d","6213cd2eae1cf3333e0b3403","6","","","","","0","3"
"null","","","null","","","","html-keyboard-response","303","1235617","0.0-303.0","60ff2c3d915d23318b73ae8d","6213cd2eae1cf3333e0b3403","","","","","<p style=""color:darkgreen;font-size:24px;"">Correct :)</p>","",""
"2670","key","v","v","16.669031249999534","500","250","psychophysics","304","1238293","0.0-304.0","60ff2c3d915d23318b73ae8d","6213cd2eae1cf3333e0b3403","6","","","","","0","3"
"null","","","null","","","","html-keyboard-response","305","1238809","0.0-305.0","60ff2c3d915d23318b73ae8d","6213cd2eae1cf3333e0b3403","","","","","<p style=""color:darkgreen;font-size:24px;"">Correct :)</p>","",""
"2618","key","v","v","16.664248407643385","500","250","psychophysics","306","1241430","0.0-306.0","60ff2c3d915d23318b73ae8d","6213cd2eae1cf3333e0b3403","6","","","","","0","3"
"null","","","null","","","","html-keyboard-response","307","1241935","0.0-307.0","60ff2c3d915d23318b73ae8d","6213cd2eae1cf3333e0b3403","","","","","<p style=""color:darkgreen;font-size:24px;"">Correct :)</p>","",""
"2629","key","n","n","16.66701898734156","500","250","psychophysics","308","1244571","0.0-308.0","60ff2c3d915d23318b73ae8d","6213cd2eae1cf3333e0b3403","6","","","","","0","2"
"null","","","null","","","","html-keyboard-response","309","1245072","0.0-309.0","60ff2c3d915d23318b73ae8d","6213cd2eae1cf3333e0b3403","","","","","<p style=""color:darkgreen;font-size:24px;"">Correct :)</p>","",""
"2721","key","v","v","16.766515337423552","500","250","psychophysics","310","1247797","0.0-310.0","60ff2c3d915d23318b73ae8d","6213cd2eae1cf3333e0b3403","6","","","","","1","1"
"null","","","null","","","","html-keyboard-response","311","1248300","0.0-311.0","60ff2c3d915d23318b73ae8d","6213cd2eae1cf3333e0b3403","","","","","<p style=""color:darkgreen;font-size:24px;"">Correct :)</p>","",""
"2973","key","v","v","16.665988826814665","500","250","psychophysics","312","1251279","0.0-312.0","60ff2c3d915d23318b73ae8d","6213cd2eae1cf3333e0b3403","6","","","","","0","3"
"null","","","null","","","","html-keyboard-response","313","1251795","0.0-313.0","60ff2c3d915d23318b73ae8d","6213cd2eae1cf3333e0b3403","","","","","<p style=""color:darkgreen;font-size:24px;"">Correct :)</p>","",""
"2615","key","v","v","16.66565605095635","500","250","psychophysics","314","1254412","0.0-314.0","60ff2c3d915d23318b73ae8d","6213cd2eae1cf3333e0b3403","6","","","","","1","7"
"null","","","null","","","","html-keyboard-response","315","1254919","0.0-315.0","60ff2c3d915d23318b73ae8d","6213cd2eae1cf3333e0b3403","","","","","<p style=""color:red;font-size:24px;"">Error :(</p>","",""
"313","key","n","n","16.668263157890912","500","250","psychophysics","316","1255242","0.0-316.0","60ff2c3d915d23318b73ae8d","6213cd2eae1cf3333e0b3403","6","","","","","0","3"
"null","","","null","","","","html-keyboard-response","317","1255745","0.0-317.0","60ff2c3d915d23318b73ae8d","6213cd2eae1cf3333e0b3403","","","","","<p style=""color:red;font-size:24px;"">Error :(</p>","",""
"3353","key","v","v","16.66354455445469","500","250","psychophysics","318","1259103","0.0-318.0","60ff2c3d915d23318b73ae8d","6213cd2eae1cf3333e0b3403","6","","","","","0","6"
"null","","","null","","","","html-keyboard-response","319","1259606","0.0-319.0","60ff2c3d915d23318b73ae8d","6213cd2eae1cf3333e0b3403","","","","","<p style=""color:red;font-size:24px;"">Error :(</p>","",""
"2898","key","n","n","16.668522988504932","500","250","psychophysics","320","1262510","0.0-320.0","60ff2c3d915d23318b73ae8d","6213cd2eae1cf3333e0b3403","6","","","","","1","8"
"null","","","null","","","","html-keyboard-response","321","1263014","0.0-321.0","60ff2c3d915d23318b73ae8d","6213cd2eae1cf3333e0b3403","","","","","<p style=""color:darkgreen;font-size:24px;"">Correct :)</p>","",""
"2714","key","n","n","16.66482822085942","500","250","psychophysics","322","1265735","0.0-322.0","60ff2c3d915d23318b73ae8d","6213cd2eae1cf3333e0b3403","6","","","","","1","9"
"null","","","null","","","","html-keyboard-response","323","1266242","0.0-323.0","60ff2c3d915d23318b73ae8d","6213cd2eae1cf3333e0b3403","","","","","<p style=""color:darkgreen;font-size:24px;"">Correct :)</p>","",""
"2749","key","n","n","16.666548192770367","500","250","psychophysics","324","1269002","0.0-324.0","60ff2c3d915d23318b73ae8d","6213cd2eae1cf3333e0b3403","6","","","","","0","2"
"null","","","null","","","","html-keyboard-response","325","1269505","0.0-325.0","60ff2c3d915d23318b73ae8d","6213cd2eae1cf3333e0b3403","","","","","<p style=""color:darkgreen;font-size:24px;"">Correct :)</p>","",""
"2752","key","n","n","16.66703012048166","500","250","psychophysics","326","1272266","0.0-326.0","60ff2c3d915d23318b73ae8d","6213cd2eae1cf3333e0b3403","6","","","","","1","7"
"null","","","null","","","","html-keyboard-response","327","1272775","0.0-327.0","60ff2c3d915d23318b73ae8d","6213cd2eae1cf3333e0b3403","","","","","<p style=""color:darkgreen;font-size:24px;"">Correct :)</p>","",""
"2929","key","n","n","16.667460227272716","500","250","psychophysics","328","1275711","0.0-328.0","60ff2c3d915d23318b73ae8d","6213cd2eae1cf3333e0b3403","6","","","","","0","8"
"null","","","null","","","","html-keyboard-response","329","1276214","0.0-329.0","60ff2c3d915d23318b73ae8d","6213cd2eae1cf3333e0b3403","","","","","<p style=""color:darkgreen;font-size:24px;"">Correct :)</p>","",""
"2637","key","n","n","16.6664936708867","500","250","psychophysics","330","1278860","0.0-330.0","60ff2c3d915d23318b73ae8d","6213cd2eae1cf3333e0b3403","6","","","","","1","9"
"null","","","null","","","","html-keyboard-response","331","1279366","0.0-331.0","60ff2c3d915d23318b73ae8d","6213cd2eae1cf3333e0b3403","","","","","<p style=""color:darkgreen;font-size:24px;"">Correct :)</p>","",""
"2646","key","n","n","16.665251572326458","500","250","psychophysics","332","1282018","0.0-332.0","60ff2c3d915d23318b73ae8d","6213cd2eae1cf3333e0b3403","6","","","","","1","9"
"null","","","null","","","","html-keyboard-response","333","1282522","0.0-333.0","60ff2c3d915d23318b73ae8d","6213cd2eae1cf3333e0b3403","","","","","<p style=""color:darkgreen;font-size:24px;"">Correct :)</p>","",""
"2714","key","n","n","16.663754601227232","500","250","psychophysics","334","1285249","0.0-334.0","60ff2c3d915d23318b73ae8d","6213cd2eae1cf3333e0b3403","6","","","","","0","4"
"null","","","null","","","","html-keyboard-response","335","1285758","0.0-335.0","60ff2c3d915d23318b73ae8d","6213cd2eae1cf3333e0b3403","","","","","<p style=""color:darkgreen;font-size:24px;"">Correct :)</p>","",""
"3121","key","v","v","16.669010638297742","500","250","psychophysics","336","1288886","0.0-336.0","60ff2c3d915d23318b73ae8d","6213cd2eae1cf3333e0b3403","6","","","","","1","4"
"null","","","null","","","","html-keyboard-response","337","1289396","0.0-337.0","60ff2c3d915d23318b73ae8d","6213cd2eae1cf3333e0b3403","","","","","<p style=""color:darkgreen;font-size:24px;"">Correct :)</p>","",""
"2931","key","n","n","16.66586931818165","500","250","psychophysics","338","1292332","0.0-338.0","60ff2c3d915d23318b73ae8d","6213cd2eae1cf3333e0b3403","6","","","","","0","4"
"null","","","null","","","","html-keyboard-response","339","1292840","0.0-339.0","60ff2c3d915d23318b73ae8d","6213cd2eae1cf3333e0b3403","","","","","<p style=""color:darkgreen;font-size:24px;"">Correct :)</p>","",""
"2662","key","n","n","16.66655624999985","500","250","psychophysics","340","1295504","0.0-340.0","60ff2c3d915d23318b73ae8d","6213cd2eae1cf3333e0b3403","6","","","","","1","6"
"null","","","null","","","","html-keyboard-response","341","1296022","0.0-341.0","60ff2c3d915d23318b73ae8d","6213cd2eae1cf3333e0b3403","","","","","<p style=""color:darkgreen;font-size:24px;"">Correct :)</p>","",""
"2786","key","n","n","16.66816167664731","500","250","psychophysics","342","1298813","0.0-342.0","60ff2c3d915d23318b73ae8d","6213cd2eae1cf3333e0b3403","6","","","","","1","9"
"null","","","null","","","","html-keyboard-response","343","1299318","0.0-343.0","60ff2c3d915d23318b73ae8d","6213cd2eae1cf3333e0b3403","","","","","<p style=""color:darkgreen;font-size:24px;"">Correct :)</p>","",""
"2614","key","n","n","16.665866242038014","500","250","psychophysics","344","1301940","0.0-344.0","60ff2c3d915d23318b73ae8d","6213cd2eae1cf3333e0b3403","6","","","","","0","8"
"null","","","null","","","","html-keyboard-response","345","1302445","0.0-345.0","60ff2c3d915d23318b73ae8d","6213cd2eae1cf3333e0b3403","","","","","<p style=""color:darkgreen;font-size:24px;"">Correct :)</p>","",""
"2802","key","v","v","16.66746428571475","500","250","psychophysics","346","1305252","0.0-346.0","60ff2c3d915d23318b73ae8d","6213cd2eae1cf3333e0b3403","6","","","","","0","9"
"null","","","null","","","","html-keyboard-response","347","1305760","0.0-347.0","60ff2c3d915d23318b73ae8d","6213cd2eae1cf3333e0b3403","","","","","<p style=""color:darkgreen;font-size:24px;"">Correct :)</p>","",""
"2569","key","v","v","16.663961290323265","500","250","psychophysics","348","1308334","0.0-348.0","60ff2c3d915d23318b73ae8d","6213cd2eae1cf3333e0b3403","6","","","","","0","7"
"null","","","null","","","","html-keyboard-response","349","1308848","0.0-349.0","60ff2c3d915d23318b73ae8d","6213cd2eae1cf3333e0b3403","","","","","<p style=""color:darkgreen;font-size:24px;"">Correct :)</p>","",""
"2683","key","n","n","16.669111801241957","500","250","psychophysics","350","1311533","0.0-350.0","60ff2c3d915d23318b73ae8d","6213cd2eae1cf3333e0b3403","6","","","","","1","8"
"null","","","null","","","","html-keyboard-response","351","1312045","0.0-351.0","60ff2c3d915d23318b73ae8d","6213cd2eae1cf3333e0b3403","","","","","<p style=""color:darkgreen;font-size:24px;"">Correct :)</p>","",""
"2859","key","v","v","16.754678362573372","500","250","psychophysics","352","1314911","0.0-352.0","60ff2c3d915d23318b73ae8d","6213cd2eae1cf3333e0b3403","6","","","","","1","4"
"null","","","null","","","","html-keyboard-response","353","1315421","0.0-353.0","60ff2c3d915d23318b73ae8d","6213cd2eae1cf3333e0b3403","","","","","<p style=""color:darkgreen;font-size:24px;"">Correct :)</p>","",""
"2744","key","v","v","16.668806060606784","500","250","psychophysics","354","1318176","0.0-354.0","60ff2c3d915d23318b73ae8d","6213cd2eae1cf3333e0b3403","6","","","","","1","4"
"null","","","null","","","","html-keyboard-response","355","1318684","0.0-355.0","60ff2c3d915d23318b73ae8d","6213cd2eae1cf3333e0b3403","","","","","<p style=""color:darkgreen;font-size:24px;"">Correct :)</p>","",""
"2906","key","v","v","16.666741379310547","500","250","psychophysics","356","1321592","0.0-356.0","60ff2c3d915d23318b73ae8d","6213cd2eae1cf3333e0b3403","6","","","","","0","9"
"null","","","null","","","","html-keyboard-response","357","1322100","0.0-357.0","60ff2c3d915d23318b73ae8d","6213cd2eae1cf3333e0b3403","","","","","<p style=""color:darkgreen;font-size:24px;"">Correct :)</p>","",""
"2919","key","n","n","16.664599999999627","500","250","psychophysics","358","1325024","0.0-358.0","60ff2c3d915d23318b73ae8d","6213cd2eae1cf3333e0b3403","6","","","","","1","2"
"null","","","null","","","","html-keyboard-response","359","1325530","0.0-359.0","60ff2c3d915d23318b73ae8d","6213cd2eae1cf3333e0b3403","","","","","<p style=""color:red;font-size:24px;"">Error :(</p>","",""
"241","key","v","v","16.69921428570524","500","250","psychophysics","360","1325778","0.0-360.0","60ff2c3d915d23318b73ae8d","6213cd2eae1cf3333e0b3403","6","","","","","1","1"
"null","","","null","","","","html-keyboard-response","361","1326285","0.0-361.0","60ff2c3d915d23318b73ae8d","6213cd2eae1cf3333e0b3403","","","","","<p style=""color:darkgreen;font-size:24px;"">Correct :)</p>","",""
"3506","key","n","n","16.66374881516577","500","250","psychophysics","362","1329798","0.0-362.0","60ff2c3d915d23318b73ae8d","6213cd2eae1cf3333e0b3403","6","","","","","1","4"
"null","","","null","","","","html-keyboard-response","363","1330306","0.0-363.0","60ff2c3d915d23318b73ae8d","6213cd2eae1cf3333e0b3403","","","","","<p style=""color:red;font-size:24px;"">Error :(</p>","",""
"325","key","v","v","16.66645000000717","500","250","psychophysics","364","1330637","0.0-364.0","60ff2c3d915d23318b73ae8d","6213cd2eae1cf3333e0b3403","6","","","","","0","6"
"null","","","null","","","","html-keyboard-response","365","1331141","0.0-365.0","60ff2c3d915d23318b73ae8d","6213cd2eae1cf3333e0b3403","","","","","<p style=""color:red;font-size:24px;"">Error :(</p>","",""
"3052","key","v","v","16.66803804347823","500","250","psychophysics","366","1334199","0.0-366.0","60ff2c3d915d23318b73ae8d","6213cd2eae1cf3333e0b3403","6","","","","","1","1"
"null","","","null","","","","html-keyboard-response","367","1334704","0.0-367.0","60ff2c3d915d23318b73ae8d","6213cd2eae1cf3333e0b3403","","","","","<p style=""color:darkgreen;font-size:24px;"">Correct :)</p>","",""
"2904","key","v","v","16.665154285714298","500","250","psychophysics","368","1337613","0.0-368.0","60ff2c3d915d23318b73ae8d","6213cd2eae1cf3333e0b3403","6","","","","","0","3"
"null","","","null","","","","html-keyboard-response","369","1338123","0.0-369.0","60ff2c3d915d23318b73ae8d","6213cd2eae1cf3333e0b3403","","","","","<p style=""color:darkgreen;font-size:24px;"">Correct :)</p>","",""
"2804","key","v","v","16.665798816568156","500","250","psychophysics","370","1340933","0.0-370.0","60ff2c3d915d23318b73ae8d","6213cd2eae1cf3333e0b3403","6","","","","","0","1"
"null","","","null","","","","html-keyboard-response","371","1341450","0.0-371.0","60ff2c3d915d23318b73ae8d","6213cd2eae1cf3333e0b3403","","","","","<p style=""color:darkgreen;font-size:24px;"">Correct :)</p>","",""
"3291","key","v","v","16.666570707070264","500","250","psychophysics","372","1344747","0.0-372.0","60ff2c3d915d23318b73ae8d","6213cd2eae1cf3333e0b3403","6","","","","","0","3"
"null","","","null","","","","html-keyboard-response","373","1345255","0.0-373.0","60ff2c3d915d23318b73ae8d","6213cd2eae1cf3333e0b3403","","","","","<p style=""color:darkgreen;font-size:24px;"">Correct :)</p>","",""
"2668","key","n","n","16.66779503105671","500","250","psychophysics","374","1347934","0.0-374.0","60ff2c3d915d23318b73ae8d","6213cd2eae1cf3333e0b3403","6","","","","","1","7"
"null","","","null","","","","html-keyboard-response","375","1348441","0.0-375.0","60ff2c3d915d23318b73ae8d","6213cd2eae1cf3333e0b3403","","","","","<p style=""color:darkgreen;font-size:24px;"">Correct :)</p>","",""
"2827","key","v","v","16.7643609467464","500","250","psychophysics","376","1351271","0.0-376.0","60ff2c3d915d23318b73ae8d","6213cd2eae1cf3333e0b3403","6","","","","","1","3"
"null","","","null","","","","html-keyboard-response","377","1351774","0.0-377.0","60ff2c3d915d23318b73ae8d","6213cd2eae1cf3333e0b3403","","","","","<p style=""color:darkgreen;font-size:24px;"">Correct :)</p>","",""
"3017","key","n","n","16.665587912087204","500","250","psychophysics","378","1354796","0.0-378.0","60ff2c3d915d23318b73ae8d","6213cd2eae1cf3333e0b3403","6","","","","","0","2"
"null","","","null","","","","html-keyboard-response","379","1355310","0.0-379.0","60ff2c3d915d23318b73ae8d","6213cd2eae1cf3333e0b3403","","","","","<p style=""color:darkgreen;font-size:24px;"">Correct :)</p>","",""
"2498","key","n","n","16.66744666666724","500","250","psychophysics","380","1357818","0.0-380.0","60ff2c3d915d23318b73ae8d","6213cd2eae1cf3333e0b3403","6","","","","","0","4"
"null","","","null","","","","html-keyboard-response","381","1358333","0.0-381.0","60ff2c3d915d23318b73ae8d","6213cd2eae1cf3333e0b3403","","","","","<p style=""color:darkgreen;font-size:24px;"">Correct :)</p>","",""
"2738","key","v","v","16.66706097560861","500","250","psychophysics","382","1361076","0.0-382.0","60ff2c3d915d23318b73ae8d","6213cd2eae1cf3333e0b3403","6","","","","","0","3"
"null","","","null","","","","html-keyboard-response","383","1361588","0.0-383.0","60ff2c3d915d23318b73ae8d","6213cd2eae1cf3333e0b3403","","","","","<p style=""color:darkgreen;font-size:24px;"">Correct :)</p>","",""
"2821","key","v","v","16.665229411764233","500","250","psychophysics","384","1364415","0.0-384.0","60ff2c3d915d23318b73ae8d","6213cd2eae1cf3333e0b3403","6","","","","","1","3"
"null","","","null","","","","html-keyboard-response","385","1364926","0.0-385.0","60ff2c3d915d23318b73ae8d","6213cd2eae1cf3333e0b3403","","","","","<p style=""color:darkgreen;font-size:24px;"">Correct :)</p>","",""
"2903","key","v","v","16.666097701148495","500","250","psychophysics","386","1367831","0.0-386.0","60ff2c3d915d23318b73ae8d","6213cd2eae1cf3333e0b3403","6","","","","","1","4"
"null","","","null","","","","html-keyboard-response","387","1368335","0.0-387.0","60ff2c3d915d23318b73ae8d","6213cd2eae1cf3333e0b3403","","","","","<p style=""color:darkgreen;font-size:24px;"">Correct :)</p>","",""
"3290","key","n","n","16.667484848484904","500","250","psychophysics","388","1371630","0.0-388.0","60ff2c3d915d23318b73ae8d","6213cd2eae1cf3333e0b3403","6","","","","","0","8"
"null","","","null","","","","html-keyboard-response","389","1372133","0.0-389.0","60ff2c3d915d23318b73ae8d","6213cd2eae1cf3333e0b3403","","","","","<p style=""color:darkgreen;font-size:24px;"">Correct :)</p>","",""
"2661","key","n","n","16.664868749999734","500","250","psychophysics","390","1374800","0.0-390.0","60ff2c3d915d23318b73ae8d","6213cd2eae1cf3333e0b3403","6","","","","","0","2"
"null","","","null","","","","html-keyboard-response","391","1375308","0.0-391.0","60ff2c3d915d23318b73ae8d","6213cd2eae1cf3333e0b3403","","","","","<p style=""color:darkgreen;font-size:24px;"">Correct :)</p>","",""
"2934","key","n","n","16.667971590909556","500","250","psychophysics","392","1378248","0.0-392.0","60ff2c3d915d23318b73ae8d","6213cd2eae1cf3333e0b3403","6","","","","","1","8"
"null","","","null","","","","html-keyboard-response","393","1378754","0.0-393.0","60ff2c3d915d23318b73ae8d","6213cd2eae1cf3333e0b3403","","","","","<p style=""color:darkgreen;font-size:24px;"">Correct :)</p>","",""
"2938","key","v","v","16.66361581920883","500","250","psychophysics","394","1381697","0.0-394.0","60ff2c3d915d23318b73ae8d","6213cd2eae1cf3333e0b3403","6","","","","","1","1"
"null","","","null","","","","html-keyboard-response","395","1382205","0.0-395.0","60ff2c3d915d23318b73ae8d","6213cd2eae1cf3333e0b3403","","","","","<p style=""color:darkgreen;font-size:24px;"">Correct :)</p>","",""
"6943","","","v","","","","html-keyboard-response","396","1389149","0.0-396.0","60ff2c3d915d23318b73ae8d","6213cd2eae1cf3333e0b3403","","","","","<p> Last set of trials.  Here, the tasks are going to switch once again.  We are going to do 50 of these.  And then you are done with the experiment.  </p>  <br><br>  Ready? (press v or n)","",""
"2801","key","v","v","16.664863095237664","500","250","psychophysics","397","1391952","0.0-397.0","60ff2c3d915d23318b73ae8d","6213cd2eae1cf3333e0b3403","7","","","","","1","4"
"null","","","null","","","","html-keyboard-response","398","1392463","0.0-398.0","60ff2c3d915d23318b73ae8d","6213cd2eae1cf3333e0b3403","","","","","<p style=""color:darkgreen;font-size:24px;"">Correct :)</p>","",""
"2576","key","n","n","16.665316129032703","500","250","psychophysics","399","1395043","0.0-399.0","60ff2c3d915d23318b73ae8d","6213cd2eae1cf3333e0b3403","7","","","","","0","2"
"null","","","null","","","","html-keyboard-response","400","1395557","0.0-400.0","60ff2c3d915d23318b73ae8d","6213cd2eae1cf3333e0b3403","","","","","<p style=""color:darkgreen;font-size:24px;"">Correct :)</p>","",""
"3033","key","v","v","16.666747252747243","500","250","psychophysics","401","1398602","0.0-401.0","60ff2c3d915d23318b73ae8d","6213cd2eae1cf3333e0b3403","7","","","","","1","6"
"null","","","null","","","","html-keyboard-response","402","1399111","0.0-402.0","60ff2c3d915d23318b73ae8d","6213cd2eae1cf3333e0b3403","","","","","<p style=""color:red;font-size:24px;"">Error :(</p>","",""
"2869","key","v","v","16.666063953488848","500","250","psychophysics","403","1401985","0.0-403.0","60ff2c3d915d23318b73ae8d","6213cd2eae1cf3333e0b3403","7","","","","","1","1"
"null","","","null","","","","html-keyboard-response","404","1402501","0.0-404.0","60ff2c3d915d23318b73ae8d","6213cd2eae1cf3333e0b3403","","","","","<p style=""color:darkgreen;font-size:24px;"">Correct :)</p>","",""
"2662","key","v","v","16.668412499999977","500","250","psychophysics","405","1405170","0.0-405.0","60ff2c3d915d23318b73ae8d","6213cd2eae1cf3333e0b3403","7","","","","","1","4"
"null","","","null","","","","html-keyboard-response","406","1405679","0.0-406.0","60ff2c3d915d23318b73ae8d","6213cd2eae1cf3333e0b3403","","","","","<p style=""color:darkgreen;font-size:24px;"">Correct :)</p>","",""
"2510","key","v","v","16.664119205298828","500","250","psychophysics","407","1408194","0.0-407.0","60ff2c3d915d23318b73ae8d","6213cd2eae1cf3333e0b3403","7","","","","","1","3"
"null","","","null","","","","html-keyboard-response","408","1408698","0.0-408.0","60ff2c3d915d23318b73ae8d","6213cd2eae1cf3333e0b3403","","","","","<p style=""color:darkgreen;font-size:24px;"">Correct :)</p>","",""
"2665","key","v","v","16.667256249999628","500","250","psychophysics","409","1411366","0.0-409.0","60ff2c3d915d23318b73ae8d","6213cd2eae1cf3333e0b3403","7","","","","","1","1"
"null","","","null","","","","html-keyboard-response","410","1411877","0.0-410.0","60ff2c3d915d23318b73ae8d","6213cd2eae1cf3333e0b3403","","","","","<p style=""color:darkgreen;font-size:24px;"">Correct :)</p>","",""
"2662","key","n","n","16.6644591194967","500","250","psychophysics","411","1414546","0.0-411.0","60ff2c3d915d23318b73ae8d","6213cd2eae1cf3333e0b3403","7","","","","","1","4"
"null","","","null","","","","html-keyboard-response","412","1415052","0.0-412.0","60ff2c3d915d23318b73ae8d","6213cd2eae1cf3333e0b3403","","","","","<p style=""color:red;font-size:24px;"">Error :(</p>","",""
"2497","key","n","n","16.668666666666976","500","250","psychophysics","413","1417557","0.0-413.0","60ff2c3d915d23318b73ae8d","6213cd2eae1cf3333e0b3403","7","","","","","0","2"
"null","","","null","","","","html-keyboard-response","414","1418076","0.0-414.0","60ff2c3d915d23318b73ae8d","6213cd2eae1cf3333e0b3403","","","","","<p style=""color:darkgreen;font-size:24px;"">Correct :)</p>","",""
"2583","key","n","n","16.669322580645883","500","250","psychophysics","415","1420670","0.0-415.0","60ff2c3d915d23318b73ae8d","6213cd2eae1cf3333e0b3403","7","","","","","0","4"
"null","","","null","","","","html-keyboard-response","416","1421173","0.0-416.0","60ff2c3d915d23318b73ae8d","6213cd2eae1cf3333e0b3403","","","","","<p style=""color:darkgreen;font-size:24px;"">Correct :)</p>","",""
"2937","key","n","n","16.66821590909041","500","250","psychophysics","417","1424116","0.0-417.0","60ff2c3d915d23318b73ae8d","6213cd2eae1cf3333e0b3403","7","","","","","1","7"
"null","","","null","","","","html-keyboard-response","418","1424620","0.0-418.0","60ff2c3d915d23318b73ae8d","6213cd2eae1cf3333e0b3403","","","","","<p style=""color:darkgreen;font-size:24px;"">Correct :)</p>","",""
"3114","key","n","n","16.753618279570883","500","250","psychophysics","419","1427737","0.0-419.0","60ff2c3d915d23318b73ae8d","6213cd2eae1cf3333e0b3403","7","","","","","0","6"
"null","","","null","","","","html-keyboard-response","420","1428244","0.0-420.0","60ff2c3d915d23318b73ae8d","6213cd2eae1cf3333e0b3403","","","","","<p style=""color:darkgreen;font-size:24px;"">Correct :)</p>","",""
"2904","key","n","n","16.6672528735643","500","250","psychophysics","421","1431153","0.0-421.0","60ff2c3d915d23318b73ae8d","6213cd2eae1cf3333e0b3403","7","","","","","0","4"
"null","","","null","","","","html-keyboard-response","422","1431661","0.0-422.0","60ff2c3d915d23318b73ae8d","6213cd2eae1cf3333e0b3403","","","","","<p style=""color:darkgreen;font-size:24px;"">Correct :)</p>","",""
"2623","key","v","v","16.66926751592327","500","250","psychophysics","423","1434284","0.0-423.0","60ff2c3d915d23318b73ae8d","6213cd2eae1cf3333e0b3403","7","","","","","1","1"
"null","","","null","","","","html-keyboard-response","424","1434797","0.0-424.0","60ff2c3d915d23318b73ae8d","6213cd2eae1cf3333e0b3403","","","","","<p style=""color:darkgreen;font-size:24px;"">Correct :)</p>","",""
"2818","key","v","v","16.66629411764717","500","250","psychophysics","425","1437627","0.0-425.0","60ff2c3d915d23318b73ae8d","6213cd2eae1cf3333e0b3403","7","","","","","0","1"
"null","","","null","","","","html-keyboard-response","426","1438133","0.0-426.0","60ff2c3d915d23318b73ae8d","6213cd2eae1cf3333e0b3403","","","","","<p style=""color:darkgreen;font-size:24px;"">Correct :)</p>","",""
"3216","key","n","n","16.663880829015323","500","250","psychophysics","427","1441354","0.0-427.0","60ff2c3d915d23318b73ae8d","6213cd2eae1cf3333e0b3403","7","","","","","0","6"
"null","","","null","","","","html-keyboard-response","428","1441860","0.0-428.0","60ff2c3d915d23318b73ae8d","6213cd2eae1cf3333e0b3403","","","","","<p style=""color:darkgreen;font-size:24px;"">Correct :)</p>","",""
"2768","key","n","n","16.666560240963708","500","250","psychophysics","429","1444631","0.0-429.0","60ff2c3d915d23318b73ae8d","6213cd2eae1cf3333e0b3403","7","","","","","1","2"
"null","","","null","","","","html-keyboard-response","430","1445135","0.0-430.0","60ff2c3d915d23318b73ae8d","6213cd2eae1cf3333e0b3403","","","","","<p style=""color:red;font-size:24px;"">Error :(</p>","",""
"418","key","v","v","16.652839999999852","500","250","psychophysics","431","1445559","0.0-431.0","60ff2c3d915d23318b73ae8d","6213cd2eae1cf3333e0b3403","7","","","","","1","2"
"null","","","null","","","","html-keyboard-response","432","1446065","0.0-432.0","60ff2c3d915d23318b73ae8d","6213cd2eae1cf3333e0b3403","","","","","<p style=""color:darkgreen;font-size:24px;"">Correct :)</p>","",""
"3290","key","n","n","16.663612244897806","500","250","psychophysics","433","1449358","0.0-433.0","60ff2c3d915d23318b73ae8d","6213cd2eae1cf3333e0b3403","7","","","","","0","6"
"null","","","null","","","","html-keyboard-response","434","1449871","0.0-434.0","60ff2c3d915d23318b73ae8d","6213cd2eae1cf3333e0b3403","","","","","<p style=""color:darkgreen;font-size:24px;"">Correct :)</p>","",""
"3131","key","n","n","16.663718085106897","500","250","psychophysics","435","1453004","0.0-435.0","60ff2c3d915d23318b73ae8d","6213cd2eae1cf3333e0b3403","7","","","","","0","4"
"null","","","null","","","","html-keyboard-response","436","1453508","0.0-436.0","60ff2c3d915d23318b73ae8d","6213cd2eae1cf3333e0b3403","","","","","<p style=""color:darkgreen;font-size:24px;"">Correct :)</p>","",""
"2612","key","v","v","16.66467515923599","500","250","psychophysics","437","1456125","0.0-437.0","60ff2c3d915d23318b73ae8d","6213cd2eae1cf3333e0b3403","7","","","","","0","1"
"null","","","null","","","","html-keyboard-response","438","1456628","0.0-438.0","60ff2c3d915d23318b73ae8d","6213cd2eae1cf3333e0b3403","","","","","<p style=""color:darkgreen;font-size:24px;"">Correct :)</p>","",""
"2821","key","v","v","16.666064705881837","500","250","psychophysics","439","1459455","0.0-439.0","60ff2c3d915d23318b73ae8d","6213cd2eae1cf3333e0b3403","7","","","","","1","3"
"null","","","null","","","","html-keyboard-response","440","1459963","0.0-440.0","60ff2c3d915d23318b73ae8d","6213cd2eae1cf3333e0b3403","","","","","<p style=""color:darkgreen;font-size:24px;"">Correct :)</p>","",""
"3119","key","v","v","16.668191489361057","500","250","psychophysics","441","1463088","0.0-441.0","60ff2c3d915d23318b73ae8d","6213cd2eae1cf3333e0b3403","7","","","","","0","7"
"null","","","null","","","","html-keyboard-response","442","1463604","0.0-442.0","60ff2c3d915d23318b73ae8d","6213cd2eae1cf3333e0b3403","","","","","<p style=""color:darkgreen;font-size:24px;"">Correct :)</p>","",""
"3010","key","v","v","16.665193370166516","500","250","psychophysics","443","1466620","0.0-443.0","60ff2c3d915d23318b73ae8d","6213cd2eae1cf3333e0b3403","7","","","","","1","2"
"null","","","null","","","","html-keyboard-response","444","1467137","0.0-444.0","60ff2c3d915d23318b73ae8d","6213cd2eae1cf3333e0b3403","","","","","<p style=""color:darkgreen;font-size:24px;"">Correct :)</p>","",""
"2634","key","v","v","16.668639240506447","500","250","psychophysics","445","1469777","0.0-445.0","60ff2c3d915d23318b73ae8d","6213cd2eae1cf3333e0b3403","7","","","","","1","3"
"null","","","null","","","","html-keyboard-response","446","1470285","0.0-446.0","60ff2c3d915d23318b73ae8d","6213cd2eae1cf3333e0b3403","","","","","<p style=""color:darkgreen;font-size:24px;"">Correct :)</p>","",""
"2722","key","v","v","16.668300613496694","500","250","psychophysics","447","1473011","0.0-447.0","60ff2c3d915d23318b73ae8d","6213cd2eae1cf3333e0b3403","7","","","","","1","4"
"null","","","null","","","","html-keyboard-response","448","1473518","0.0-448.0","60ff2c3d915d23318b73ae8d","6213cd2eae1cf3333e0b3403","","","","","<p style=""color:darkgreen;font-size:24px;"">Correct :)</p>","",""
"2929","key","n","n","16.66665340909094","500","250","psychophysics","449","1476453","0.0-449.0","60ff2c3d915d23318b73ae8d","6213cd2eae1cf3333e0b3403","7","","","","","1","6"
"null","","","null","","","","html-keyboard-response","450","1476963","0.0-450.0","60ff2c3d915d23318b73ae8d","6213cd2eae1cf3333e0b3403","","","","","<p style=""color:darkgreen;font-size:24px;"">Correct :)</p>","",""
"2602","key","v","v","16.776612903225807","500","250","psychophysics","451","1479569","0.0-451.0","60ff2c3d915d23318b73ae8d","6213cd2eae1cf3333e0b3403","7","","","","","0","1"
"null","","","null","","","","html-keyboard-response","452","1480075","0.0-452.0","60ff2c3d915d23318b73ae8d","6213cd2eae1cf3333e0b3403","","","","","<p style=""color:darkgreen;font-size:24px;"">Correct :)</p>","",""
"3020","key","v","v","16.6687790055255","500","250","psychophysics","453","1483100","0.0-453.0","60ff2c3d915d23318b73ae8d","6213cd2eae1cf3333e0b3403","7","","","","","1","1"
"null","","","null","","","","html-keyboard-response","454","1483608","0.0-454.0","60ff2c3d915d23318b73ae8d","6213cd2eae1cf3333e0b3403","","","","","<p style=""color:darkgreen;font-size:24px;"">Correct :)</p>","",""
"3979","key","n","n","16.667351464435036","500","250","psychophysics","455","1487589","0.0-455.0","60ff2c3d915d23318b73ae8d","6213cd2eae1cf3333e0b3403","7","","","","","1","6"
"null","","","null","","","","html-keyboard-response","456","1488097","0.0-456.0","60ff2c3d915d23318b73ae8d","6213cd2eae1cf3333e0b3403","","","","","<p style=""color:darkgreen;font-size:24px;"">Correct :)</p>","",""
"2843","key","n","n","16.664741176470894","500","250","psychophysics","457","1490947","0.0-457.0","60ff2c3d915d23318b73ae8d","6213cd2eae1cf3333e0b3403","7","","","","","0","4"
"null","","","null","","","","html-keyboard-response","458","1491457","0.0-458.0","60ff2c3d915d23318b73ae8d","6213cd2eae1cf3333e0b3403","","","","","<p style=""color:darkgreen;font-size:24px;"">Correct :)</p>","",""
"2699","key","v","v","16.66633333333331","500","250","psychophysics","459","1494165","0.0-459.0","60ff2c3d915d23318b73ae8d","6213cd2eae1cf3333e0b3403","7","","","","","1","3"
"null","","","null","","","","html-keyboard-response","460","1494670","0.0-460.0","60ff2c3d915d23318b73ae8d","6213cd2eae1cf3333e0b3403","","","","","<p style=""color:darkgreen;font-size:24px;"">Correct :)</p>","",""
"2932","key","v","v","16.666102272726924","500","250","psychophysics","461","1497608","0.0-461.0","60ff2c3d915d23318b73ae8d","6213cd2eae1cf3333e0b3403","7","","","","","0","3"
"null","","","null","","","","html-keyboard-response","462","1498119","0.0-462.0","60ff2c3d915d23318b73ae8d","6213cd2eae1cf3333e0b3403","","","","","<p style=""color:darkgreen;font-size:24px;"">Correct :)</p>","",""
"2613","key","n","n","16.66743312101918","500","250","psychophysics","463","1500738","0.0-463.0","60ff2c3d915d23318b73ae8d","6213cd2eae1cf3333e0b3403","7","","","","","0","2"
"null","","","null","","","","html-keyboard-response","464","1501246","0.0-464.0","60ff2c3d915d23318b73ae8d","6213cd2eae1cf3333e0b3403","","","","","<p style=""color:darkgreen;font-size:24px;"">Correct :)</p>","",""
"2736","key","v","v","16.66392682926735","500","250","psychophysics","465","1503988","0.0-465.0","60ff2c3d915d23318b73ae8d","6213cd2eae1cf3333e0b3403","7","","","","","1","1"
"null","","","null","","","","html-keyboard-response","466","1504497","0.0-466.0","60ff2c3d915d23318b73ae8d","6213cd2eae1cf3333e0b3403","","","","","<p style=""color:darkgreen;font-size:24px;"">Correct :)</p>","",""
"3234","key","v","v","16.666138461539045","500","250","psychophysics","467","1507737","0.0-467.0","60ff2c3d915d23318b73ae8d","6213cd2eae1cf3333e0b3403","7","","","","","0","3"
"null","","","null","","","","html-keyboard-response","468","1508244","0.0-468.0","60ff2c3d915d23318b73ae8d","6213cd2eae1cf3333e0b3403","","","","","<p style=""color:darkgreen;font-size:24px;"">Correct :)</p>","",""
"2703","key","v","v","16.66602469135915","500","250","psychophysics","469","1510952","0.0-469.0","60ff2c3d915d23318b73ae8d","6213cd2eae1cf3333e0b3403","7","","","","","0","7"
"null","","","null","","","","html-keyboard-response","470","1511470","0.0-470.0","60ff2c3d915d23318b73ae8d","6213cd2eae1cf3333e0b3403","","","","","<p style=""color:darkgreen;font-size:24px;"">Correct :)</p>","",""
"2642","key","n","n","16.668968553458626","500","250","psychophysics","471","1514123","0.0-471.0","60ff2c3d915d23318b73ae8d","6213cd2eae1cf3333e0b3403","7","","","","","0","4"
"null","","","null","","","","html-keyboard-response","472","1514630","0.0-472.0","60ff2c3d915d23318b73ae8d","6213cd2eae1cf3333e0b3403","","","","","<p style=""color:darkgreen;font-size:24px;"">Correct :)</p>","",""
"2804","key","n","n","16.66543786982267","500","250","psychophysics","473","1517440","0.0-473.0","60ff2c3d915d23318b73ae8d","6213cd2eae1cf3333e0b3403","7","","","","","0","4"
"null","","","null","","","","html-keyboard-response","474","1517946","0.0-474.0","60ff2c3d915d23318b73ae8d","6213cd2eae1cf3333e0b3403","","","","","<p style=""color:darkgreen;font-size:24px;"">Correct :)</p>","",""
"2504","key","n","n","16.66768874172183","500","250","psychophysics","475","1520462","0.0-475.0","60ff2c3d915d23318b73ae8d","6213cd2eae1cf3333e0b3403","7","","","","","0","4"
"null","","","null","","","","html-keyboard-response","476","1520971","0.0-476.0","60ff2c3d915d23318b73ae8d","6213cd2eae1cf3333e0b3403","","","","","<p style=""color:darkgreen;font-size:24px;"">Correct :)</p>","",""
"4303","key","n","n","16.6659069767442","500","250","psychophysics","477","1525277","0.0-477.0","60ff2c3d915d23318b73ae8d","6213cd2eae1cf3333e0b3403","7","","","","","1","6"
"null","","","null","","","","html-keyboard-response","478","1525780","0.0-478.0","60ff2c3d915d23318b73ae8d","6213cd2eae1cf3333e0b3403","","","","","<p style=""color:darkgreen;font-size:24px;"">Correct :)</p>","",""
"2928","key","v","v","16.666802259886868","500","250","psychophysics","479","1528721","0.0-479.0","60ff2c3d915d23318b73ae8d","6213cd2eae1cf3333e0b3403","7","","","","","1","3"
"null","","","null","","","","html-keyboard-response","480","1529236","0.0-480.0","60ff2c3d915d23318b73ae8d","6213cd2eae1cf3333e0b3403","","","","","<p style=""color:darkgreen;font-size:24px;"">Correct :)</p>","",""
"2482","key","n","n","16.666187919463788","500","250","psychophysics","481","1531724","0.0-481.0","60ff2c3d915d23318b73ae8d","6213cd2eae1cf3333e0b3403","7","","","","","1","7"
"null","","","null","","","","html-keyboard-response","482","1532233","0.0-482.0","60ff2c3d915d23318b73ae8d","6213cd2eae1cf3333e0b3403","","","","","<p style=""color:darkgreen;font-size:24px;"">Correct :)</p>","",""
"3285","key","v","v","16.666487309644424","500","250","psychophysics","483","1535530","0.0-483.0","60ff2c3d915d23318b73ae8d","6213cd2eae1cf3333e0b3403","7","","","","","1","1"
"null","","","null","","","","html-keyboard-response","484","1536039","0.0-484.0","60ff2c3d915d23318b73ae8d","6213cd2eae1cf3333e0b3403","","","","","<p style=""color:darkgreen;font-size:24px;"">Correct :)</p>","",""
"3164","key","v","v","16.6660947368419","500","250","psychophysics","485","1539208","0.0-485.0","60ff2c3d915d23318b73ae8d","6213cd2eae1cf3333e0b3403","7","","","","","0","1"
"null","","","null","","","","html-keyboard-response","486","1539712","0.0-486.0","60ff2c3d915d23318b73ae8d","6213cd2eae1cf3333e0b3403","","","","","<p style=""color:darkgreen;font-size:24px;"">Correct :)</p>","",""
"2660","key","n","n","16.668818750001083","500","250","psychophysics","487","1542380","0.0-487.0","60ff2c3d915d23318b73ae8d","6213cd2eae1cf3333e0b3403","7","","","","","1","4"
"null","","","null","","","","html-keyboard-response","488","1542887","0.0-488.0","60ff2c3d915d23318b73ae8d","6213cd2eae1cf3333e0b3403","","","","","<p style=""color:red;font-size:24px;"">Error :(</p>","",""
"301","key","v","v","16.64788888888951","500","250","psychophysics","489","1543195","0.0-489.0","60ff2c3d915d23318b73ae8d","6213cd2eae1cf3333e0b3403","7","","","","","1","1"
"null","","","null","","","","html-keyboard-response","490","1543699","0.0-490.0","60ff2c3d915d23318b73ae8d","6213cd2eae1cf3333e0b3403","","","","","<p style=""color:darkgreen;font-size:24px;"">Correct :)</p>","",""
"3550","key","n","n","16.666333333333352","500","250","psychophysics","491","1547257","0.0-491.0","60ff2c3d915d23318b73ae8d","6213cd2eae1cf3333e0b3403","7","","","","","0","2"
"null","","","null","","","","html-keyboard-response","492","1547765","0.0-492.0","60ff2c3d915d23318b73ae8d","6213cd2eae1cf3333e0b3403","","","","","<p style=""color:darkgreen;font-size:24px;"">Correct :)</p>","",""
"3158","key","v","v","16.66485714285743","500","250","psychophysics","493","1550929","0.0-493.0","60ff2c3d915d23318b73ae8d","6213cd2eae1cf3333e0b3403","7","","","","","1","4"
"null","","","null","","","","html-keyboard-response","494","1551431","0.0-494.0","60ff2c3d915d23318b73ae8d","6213cd2eae1cf3333e0b3403","","","","","<p style=""color:darkgreen;font-size:24px;"">Correct :)</p>","",""
"2849","key","v","v","16.666274853800942","500","250","psychophysics","495","1554294","0.0-495.0","60ff2c3d915d23318b73ae8d","6213cd2eae1cf3333e0b3403","7","","","","","0","3"
"null","","","null","","","","html-keyboard-response","496","1554800","0.0-496.0","60ff2c3d915d23318b73ae8d","6213cd2eae1cf3333e0b3403","","","","","<p style=""color:darkgreen;font-size:24px;"">Correct :)</p>","",""
