"rt","response_type","key_press","response","avg_frame_time","center_x","center_y","trial_type","trial_index","time_elapsed","internal_node_id","pid","sid","phase","guide","targ","resp","stimulus","is5","stim"
"3291","key"," "," ","17.226291666666665","500","250","psychophysics","0","3313","0.0-0.0","5c925b0fb138fe0014e4036b","620a67344070d00caea8dd41","","","","","","",""
"3914","key"," "," ","16.702893162393163","500","250","psychophysics","1","7232","0.0-1.0","5c925b0fb138fe0014e4036b","620a67344070d00caea8dd41","","","","","","",""
"3357","key"," "," ","16.702890000000004","500","250","psychophysics","2","10593","0.0-2.0","5c925b0fb138fe0014e4036b","620a67344070d00caea8dd41","","","","","","",""
"1691","key"," "," ","16.70232","500","250","psychophysics","3","12288","0.0-3.0","5c925b0fb138fe0014e4036b","620a67344070d00caea8dd41","","","","","","",""
"2910","key"," "," ","16.70305172413792","500","250","psychophysics","4","15207","0.0-4.0","5c925b0fb138fe0014e4036b","620a67344070d00caea8dd41","","","","","","",""
"150","key"," "," ","16.697555555555383","500","250","psychophysics","5","15367","0.0-5.0","5c925b0fb138fe0014e4036b","620a67344070d00caea8dd41","","","","","","",""
"7415","key"," "," ","16.702907449209935","500","250","psychophysics","6","22785","0.0-6.0","5c925b0fb138fe0014e4036b","620a67344070d00caea8dd41","","","","","","",""
"13685","key"," "," ","16.70277261613692","500","250","psychophysics","7","36472","0.0-7.0","5c925b0fb138fe0014e4036b","620a67344070d00caea8dd41","","","","","","",""
"27207","key"," "," ","16.702756292203805","500","250","psychophysics","8","63697","0.0-8.0","5c925b0fb138fe0014e4036b","620a67344070d00caea8dd41","0","0","55","53","","",""
"9999","key"," "," ","16.70275752508362","500","250","psychophysics","9","73701","0.0-9.0","5c925b0fb138fe0014e4036b","620a67344070d00caea8dd41","","","","","","",""
"3013","key"," "," ","16.70294972067044","500","250","psychophysics","10","76723","0.0-10.0","5c925b0fb138fe0014e4036b","620a67344070d00caea8dd41","","","","","","",""
"2838","key"," "," ","16.801633136094647","500","250","psychophysics","11","79569","0.0-11.0","5c925b0fb138fe0014e4036b","620a67344070d00caea8dd41","","","","","","",""
"5820","key"," "," ","16.70291666666668","500","250","psychophysics","12","85393","0.0-12.0","5c925b0fb138fe0014e4036b","620a67344070d00caea8dd41","","","","","","",""
"2011","key"," "," ","16.702815126050375","500","250","psychophysics","13","87409","0.0-13.0","5c925b0fb138fe0014e4036b","620a67344070d00caea8dd41","","","","","","",""
"3927","key"," "," ","16.702914893617013","500","250","psychophysics","14","91345","0.0-14.0","5c925b0fb138fe0014e4036b","620a67344070d00caea8dd41","","","","","","",""
"2847","key"," "," ","16.702900000000014","500","250","psychophysics","15","94196","0.0-15.0","5c925b0fb138fe0014e4036b","620a67344070d00caea8dd41","","","","","","",""
"3120","key"," "," ","16.702763440860174","500","250","psychophysics","16","97321","0.0-16.0","5c925b0fb138fe0014e4036b","620a67344070d00caea8dd41","","","","","","",""
"7660","key"," "," ","16.70277947598255","500","250","psychophysics","17","104987","0.0-17.0","5c925b0fb138fe0014e4036b","620a67344070d00caea8dd41","1","0","36","39","","",""
"7235","key"," "," ","16.702782407407405","500","250","psychophysics","18","112226","0.0-18.0","5c925b0fb138fe0014e4036b","620a67344070d00caea8dd41","1","5","25","24","","",""
"9380","key"," "," ","16.70275757575758","500","250","psychophysics","19","121610","0.0-19.0","5c925b0fb138fe0014e4036b","620a67344070d00caea8dd41","1","0","41","68","","",""
"2597","key"," "," ","16.702709677419342","500","250","psychophysics","20","124211","0.0-20.0","5c925b0fb138fe0014e4036b","620a67344070d00caea8dd41","1","5","22","26","","",""
"5386","key"," "," ","16.702760124610577","500","250","psychophysics","21","129603","0.0-21.0","5c925b0fb138fe0014e4036b","620a67344070d00caea8dd41","1","0","47","68","","",""
"3175","key"," "," ","16.70311052631579","500","250","psychophysics","22","132786","0.0-22.0","5c925b0fb138fe0014e4036b","620a67344070d00caea8dd41","1","5","36","33","","",""
"4556","key"," "," ","16.702805147058825","500","250","psychophysics","23","137346","0.0-23.0","5c925b0fb138fe0014e4036b","620a67344070d00caea8dd41","1","0","60","94","","",""
"2748","key"," "," ","16.702768292682844","500","250","psychophysics","24","140098","0.0-24.0","5c925b0fb138fe0014e4036b","620a67344070d00caea8dd41","1","5","30","33","","",""
"5244","key"," "," ","16.702779552715658","500","250","psychophysics","25","145346","0.0-25.0","5c925b0fb138fe0014e4036b","620a67344070d00caea8dd41","1","0","26","32","","",""
"3162","key"," "," ","16.702783068783074","500","250","psychophysics","26","148513","0.0-26.0","5c925b0fb138fe0014e4036b","620a67344070d00caea8dd41","1","5","59","56","","",""
"4028","key"," "," ","16.702804166666706","500","250","psychophysics","27","152546","0.0-27.0","5c925b0fb138fe0014e4036b","620a67344070d00caea8dd41","1","0","56","71","","",""
"4183","key"," "," ","16.70292828685258","500","250","psychophysics","28","156748","0.0-28.0","5c925b0fb138fe0014e4036b","620a67344070d00caea8dd41","1","5","47","38","","",""
"5000","key"," "," ","16.70265771812078","500","250","psychophysics","29","161753","0.0-29.0","5c925b0fb138fe0014e4036b","620a67344070d00caea8dd41","1","0","28","35","","",""
"3964","key"," "," ","16.703172995780598","500","250","psychophysics","30","165721","0.0-30.0","5c925b0fb138fe0014e4036b","620a67344070d00caea8dd41","1","5","40","35","","",""
"2900","key"," "," ","16.702797687861118","500","250","psychophysics","31","168625","0.0-31.0","5c925b0fb138fe0014e4036b","620a67344070d00caea8dd41","1","0","27","40","","",""
"3300","key"," "," ","16.702796954314724","500","250","psychophysics","32","171930","0.0-32.0","5c925b0fb138fe0014e4036b","620a67344070d00caea8dd41","1","5","46","38","","",""
"3139","key"," "," ","16.702823529411685","500","250","psychophysics","33","175073","0.0-33.0","5c925b0fb138fe0014e4036b","620a67344070d00caea8dd41","1","0","29","37","","",""
"2101","key"," "," ","16.70282400000002","500","250","psychophysics","34","177178","0.0-34.0","5c925b0fb138fe0014e4036b","620a67344070d00caea8dd41","1","5","25","28","","",""
"3475","key"," "," ","16.70275362318841","500","250","psychophysics","35","180657","0.0-35.0","5c925b0fb138fe0014e4036b","620a67344070d00caea8dd41","1","0","55","68","","",""
"3940","key"," "," ","16.702804255319208","500","250","psychophysics","36","184601","0.0-36.0","5c925b0fb138fe0014e4036b","620a67344070d00caea8dd41","1","5","28","26","","",""
"2770","key"," "," ","16.702339393939386","500","250","psychophysics","37","187379","0.0-37.0","5c925b0fb138fe0014e4036b","620a67344070d00caea8dd41","","","","","","",""
"6772","key"," "," ","16.70299506172844","500","250","psychophysics","38","194153","0.0-38.0","5c925b0fb138fe0014e4036b","620a67344070d00caea8dd41","","","","","","",""
"2700","key"," "," ","16.702950310559114","500","250","psychophysics","39","196857","0.0-39.0","5c925b0fb138fe0014e4036b","620a67344070d00caea8dd41","","","","","","",""
"4965","key"," "," ","16.702797297297366","500","250","psychophysics","40","201827","0.0-40.0","5c925b0fb138fe0014e4036b","620a67344070d00caea8dd41","2","0","45","61","","",""
"4890","key"," "," ","16.702709897610923","500","250","psychophysics","41","206729","0.0-41.0","5c925b0fb138fe0014e4036b","620a67344070d00caea8dd41","","","","","","",""
"3508","key"," "," ","16.70297607655512","500","250","psychophysics","42","210241","0.0-42.0","5c925b0fb138fe0014e4036b","620a67344070d00caea8dd41","2","0","47","43","","",""
"2511","key"," "," ","16.70302000000006","500","250","psychophysics","43","212761","0.0-43.0","5c925b0fb138fe0014e4036b","620a67344070d00caea8dd41","","","","","","",""
"3723","key"," "," ","16.702954954954876","500","250","psychophysics","44","216491","0.0-44.0","5c925b0fb138fe0014e4036b","620a67344070d00caea8dd41","2","0","60","55","","",""
"2920","key"," "," ","16.703034285714217","500","250","psychophysics","45","219417","0.0-45.0","5c925b0fb138fe0014e4036b","620a67344070d00caea8dd41","","","","","","",""
"3764","key"," "," ","16.702727678571396","500","250","psychophysics","46","223185","0.0-46.0","5c925b0fb138fe0014e4036b","620a67344070d00caea8dd41","2","0","50","54","","",""
"2640","key"," "," ","16.703056962025215","500","250","psychophysics","47","225833","0.0-47.0","5c925b0fb138fe0014e4036b","620a67344070d00caea8dd41","","","","","","",""
"3876","key"," "," ","16.70273593073591","500","250","psychophysics","48","229713","0.0-48.0","5c925b0fb138fe0014e4036b","620a67344070d00caea8dd41","2","0","42","35","","",""
"2412","key"," "," ","16.70277083333349","500","250","psychophysics","49","232129","0.0-49.0","5c925b0fb138fe0014e4036b","620a67344070d00caea8dd41","","","","","","",""
"3660","key"," "," ","16.702784403669835","500","250","psychophysics","50","235793","0.0-50.0","5c925b0fb138fe0014e4036b","620a67344070d00caea8dd41","2","0","29","23","","",""
"2404","key"," "," ","16.70260139860146","500","250","psychophysics","51","238201","0.0-51.0","5c925b0fb138fe0014e4036b","620a67344070d00caea8dd41","","","","","","",""
"4624","key"," "," ","16.702855595667945","500","250","psychophysics","52","242833","0.0-52.0","5c925b0fb138fe0014e4036b","620a67344070d00caea8dd41","2","0","34","39","","",""
"2166","key"," "," ","16.70285937499989","500","250","psychophysics","53","245003","0.0-53.0","5c925b0fb138fe0014e4036b","620a67344070d00caea8dd41","","","","","","",""
"2408","key"," "," ","16.702777777777857","500","250","psychophysics","54","247417","0.0-54.0","5c925b0fb138fe0014e4036b","620a67344070d00caea8dd41","2","0","36","23","","",""
"1744","key"," "," ","16.703432692307754","500","250","psychophysics","55","249165","0.0-55.0","5c925b0fb138fe0014e4036b","620a67344070d00caea8dd41","","","","","","",""
"5816","key"," "," ","16.70274063400575","500","250","psychophysics","56","254985","0.0-56.0","5c925b0fb138fe0014e4036b","620a67344070d00caea8dd41","2","0","32","31","","",""
"1747","key"," "," ","16.70271153846149","500","250","psychophysics","57","256736","0.0-57.0","5c925b0fb138fe0014e4036b","620a67344070d00caea8dd41","","","","","","",""
"6935","key"," "," ","16.702879227053135","500","250","psychophysics","58","263673","0.0-58.0","5c925b0fb138fe0014e4036b","620a67344070d00caea8dd41","2","0","58","65","","",""
"1655","key"," "," ","16.70303030303007","500","250","psychophysics","59","265337","0.0-59.0","5c925b0fb138fe0014e4036b","620a67344070d00caea8dd41","","","","","","",""
"4796","key"," "," ","16.702744755244705","500","250","psychophysics","60","270139","0.0-60.0","5c925b0fb138fe0014e4036b","620a67344070d00caea8dd41","2","0","28","22","","",""
"1568","key"," "," ","16.70351063829792","500","250","psychophysics","61","271713","0.0-61.0","5c925b0fb138fe0014e4036b","620a67344070d00caea8dd41","","","","","","",""
"4667","key"," "," ","16.702787769784173","500","250","psychophysics","62","276386","0.0-62.0","5c925b0fb138fe0014e4036b","620a67344070d00caea8dd41","2","0","29","27","","",""
"1641","key"," "," ","16.703295918367445","500","250","psychophysics","63","278033","0.0-63.0","5c925b0fb138fe0014e4036b","620a67344070d00caea8dd41","","","","","","",""
"2461","key"," "," ","16.702870748299222","500","250","psychophysics","64","280499","0.0-64.0","5c925b0fb138fe0014e4036b","620a67344070d00caea8dd41","2","0","33","34","","",""
"2155","key"," "," ","16.702773437499673","500","250","psychophysics","65","282658","0.0-65.0","5c925b0fb138fe0014e4036b","620a67344070d00caea8dd41","","","","","","",""
"5318","key"," "," ","16.7027697160883","500","250","psychophysics","66","287980","0.0-66.0","5c925b0fb138fe0014e4036b","620a67344070d00caea8dd41","2","0","33","33","","",""
"1912","key"," "," ","16.703254385964676","500","250","psychophysics","67","289898","0.0-67.0","5c925b0fb138fe0014e4036b","620a67344070d00caea8dd41","","","","","","",""
"4040","key"," "," ","16.70291322314042","500","250","psychophysics","68","293946","0.0-68.0","5c925b0fb138fe0014e4036b","620a67344070d00caea8dd41","2","0","36","46","","",""
"1572","key"," "," ","16.702806451613263","500","250","psychophysics","69","295522","0.0-69.0","5c925b0fb138fe0014e4036b","620a67344070d00caea8dd41","","","","","","",""
"2556","key"," "," ","16.702756578947486","500","250","psychophysics","70","298082","0.0-70.0","5c925b0fb138fe0014e4036b","620a67344070d00caea8dd41","","","","","","",""
"2144","key"," "," ","16.702984375000142","500","250","psychophysics","71","300234","0.0-71.0","5c925b0fb138fe0014e4036b","620a67344070d00caea8dd41","","","","","","",""
"4674","key"," "," ","16.702931899641637","500","250","psychophysics","72","304914","0.0-72.0","5c925b0fb138fe0014e4036b","620a67344070d00caea8dd41","3","5","27","28","","",""
"4824","key"," "," ","16.70288235294108","500","250","psychophysics","73","309746","0.0-73.0","5c925b0fb138fe0014e4036b","620a67344070d00caea8dd41","3","0","20","23","","",""
"6628","key"," "," ","16.70276515151511","500","250","psychophysics","74","316378","0.0-74.0","5c925b0fb138fe0014e4036b","620a67344070d00caea8dd41","3","5","53","46","","",""
"6588","key"," "," ","16.702707379134836","500","250","psychophysics","75","322970","0.0-75.0","5c925b0fb138fe0014e4036b","620a67344070d00caea8dd41","3","0","34","45","","",""
"3840","key"," "," ","16.702991304347677","500","250","psychophysics","76","326818","0.0-76.0","5c925b0fb138fe0014e4036b","620a67344070d00caea8dd41","3","5","36","32","","",""
"4372","key"," "," ","16.70279310344829","500","250","psychophysics","77","331194","0.0-77.0","5c925b0fb138fe0014e4036b","620a67344070d00caea8dd41","3","0","53","63","","",""
"3428","key"," "," ","16.7024509803921","500","250","psychophysics","78","334626","0.0-78.0","5c925b0fb138fe0014e4036b","620a67344070d00caea8dd41","3","5","51","41","","",""
"3056","key"," "," ","16.70292349726781","500","250","psychophysics","79","337690","0.0-79.0","5c925b0fb138fe0014e4036b","620a67344070d00caea8dd41","3","0","48","62","","",""
"3796","key"," "," ","16.7028805309733","500","250","psychophysics","80","341490","0.0-80.0","5c925b0fb138fe0014e4036b","620a67344070d00caea8dd41","3","5","49","41","","",""
"2482","key"," "," ","16.702966216216147","500","250","psychophysics","81","343978","0.0-81.0","5c925b0fb138fe0014e4036b","620a67344070d00caea8dd41","3","0","33","41","","",""
"4740","key"," "," ","16.70288339222624","500","250","psychophysics","82","348722","0.0-82.0","5c925b0fb138fe0014e4036b","620a67344070d00caea8dd41","3","5","42","37","","",""
"6323","key"," "," ","16.702854497354508","500","250","psychophysics","83","355050","0.0-83.0","5c925b0fb138fe0014e4036b","620a67344070d00caea8dd41","3","0","21","26","","",""
"5676","key"," "," ","16.702820058997034","500","250","psychophysics","84","360730","0.0-84.0","5c925b0fb138fe0014e4036b","620a67344070d00caea8dd41","3","5","60","46","","",""
"3412","key"," "," ","16.70292647058822","500","250","psychophysics","85","364146","0.0-85.0","5c925b0fb138fe0014e4036b","620a67344070d00caea8dd41","3","0","23","24","","",""
"2485","key"," "," ","16.70267567567557","500","250","psychophysics","86","366635","0.0-86.0","5c925b0fb138fe0014e4036b","620a67344070d00caea8dd41","3","5","26","25","","",""
"3363","key"," "," ","16.70279999999999","500","250","psychophysics","87","370002","0.0-87.0","5c925b0fb138fe0014e4036b","620a67344070d00caea8dd41","3","0","25","25","","",""
"4841","key"," "," ","16.70286851211078","500","250","psychophysics","88","374852","0.0-88.0","5c925b0fb138fe0014e4036b","620a67344070d00caea8dd41","3","5","30","27","","",""
"4224","key"," "," ","16.702802371541534","500","250","psychophysics","89","379082","0.0-89.0","5c925b0fb138fe0014e4036b","620a67344070d00caea8dd41","3","0","50","68","","",""
"3583","key"," "," ","16.70274647887323","500","250","psychophysics","90","382669","0.0-90.0","5c925b0fb138fe0014e4036b","620a67344070d00caea8dd41","3","5","43","40","","",""
"3263","key"," "," ","16.702923076922815","500","250","psychophysics","91","385938","0.0-91.0","5c925b0fb138fe0014e4036b","620a67344070d00caea8dd41","3","0","34","47","","",""
"2191","key"," "," ","16.70296946564869","500","250","psychophysics","92","388138","0.0-92.0","5c925b0fb138fe0014e4036b","620a67344070d00caea8dd41","","","","","","",""
"32551","","","v","","","","html-keyboard-response","93","420691","0.0-93.0","5c925b0fb138fe0014e4036b","620a67344070d00caea8dd41","","","","","<p> In this part of the experiment, we are going present digits 1, 2, 3, 4, 6, 7, 8, and 9.  Notice that 5 is missing.  Your job is to say whether the presented digit is less than or greater than 5.  For example, 3 is less than 5 and 7 is greater than 5.  If the digit is less than 5, press the v key; if it is greater than 5, press the n key. We are going to do 200 of these in total, but only 50 righ now. They go real fast.</p>  <br><br>  Ready? (press v or n)","",""
"3808","key","v","v","16.678882096069774","500","250","psychophysics","94","424513","0.0-94.0","5c925b0fb138fe0014e4036b","620a67344070d00caea8dd41","4","","","","","1","4"
"null","","","null","","","","html-keyboard-response","95","425016","0.0-95.0","5c925b0fb138fe0014e4036b","620a67344070d00caea8dd41","","","","","<p style=""color:darkgreen;font-size:24px;"">Correct :)</p>","",""
"2724","key","v","v","16.70422085889571","500","250","psychophysics","96","427745","0.0-96.0","5c925b0fb138fe0014e4036b","620a67344070d00caea8dd41","4","","","","","1","4"
"null","","","null","","","","html-keyboard-response","97","428248","0.0-97.0","5c925b0fb138fe0014e4036b","620a67344070d00caea8dd41","","","","","<p style=""color:darkgreen;font-size:24px;"">Correct :)</p>","",""
"2573","key","v","v","16.703837662337683","500","250","psychophysics","98","430826","0.0-98.0","5c925b0fb138fe0014e4036b","620a67344070d00caea8dd41","4","","","","","1","3"
"null","","","null","","","","html-keyboard-response","99","431328","0.0-99.0","5c925b0fb138fe0014e4036b","620a67344070d00caea8dd41","","","","","<p style=""color:darkgreen;font-size:24px;"">Correct :)</p>","",""
"2652","key","v","v","16.703628930817477","500","250","psychophysics","100","433985","0.0-100.0","5c925b0fb138fe0014e4036b","620a67344070d00caea8dd41","4","","","","","1","2"
"null","","","null","","","","html-keyboard-response","101","434492","0.0-101.0","5c925b0fb138fe0014e4036b","620a67344070d00caea8dd41","","","","","<p style=""color:darkgreen;font-size:24px;"">Correct :)</p>","",""
"2521","key","n","n","16.814675496688764","500","250","psychophysics","102","437019","0.0-102.0","5c925b0fb138fe0014e4036b","620a67344070d00caea8dd41","4","","","","","1","6"
"null","","","null","","","","html-keyboard-response","103","437522","0.0-103.0","5c925b0fb138fe0014e4036b","620a67344070d00caea8dd41","","","","","<p style=""color:darkgreen;font-size:24px;"">Correct :)</p>","",""
"2531","key","v","v","16.70434868421044","500","250","psychophysics","104","440058","0.0-104.0","5c925b0fb138fe0014e4036b","620a67344070d00caea8dd41","4","","","","","1","4"
"null","","","null","","","","html-keyboard-response","105","440561","0.0-105.0","5c925b0fb138fe0014e4036b","620a67344070d00caea8dd41","","","","","<p style=""color:darkgreen;font-size:24px;"">Correct :)</p>","",""
"2501","key","v","v","16.703593333333266","500","250","psychophysics","106","443067","0.0-106.0","5c925b0fb138fe0014e4036b","620a67344070d00caea8dd41","4","","","","","1","4"
"null","","","null","","","","html-keyboard-response","107","443569","0.0-107.0","5c925b0fb138fe0014e4036b","620a67344070d00caea8dd41","","","","","<p style=""color:darkgreen;font-size:24px;"">Correct :)</p>","",""
"2492","key","v","v","16.703671140939658","500","250","psychophysics","108","446065","0.0-108.0","5c925b0fb138fe0014e4036b","620a67344070d00caea8dd41","4","","","","","1","1"
"null","","","null","","","","html-keyboard-response","109","446567","0.0-109.0","5c925b0fb138fe0014e4036b","620a67344070d00caea8dd41","","","","","<p style=""color:darkgreen;font-size:24px;"">Correct :)</p>","",""
"2557","key","v","v","16.703909090909104","500","250","psychophysics","110","449129","0.0-110.0","5c925b0fb138fe0014e4036b","620a67344070d00caea8dd41","4","","","","","1","2"
"null","","","null","","","","html-keyboard-response","111","449633","0.0-111.0","5c925b0fb138fe0014e4036b","620a67344070d00caea8dd41","","","","","<p style=""color:darkgreen;font-size:24px;"">Correct :)</p>","",""
"2660","key","n","n","16.703654088050275","500","250","psychophysics","112","452297","0.0-112.0","5c925b0fb138fe0014e4036b","620a67344070d00caea8dd41","4","","","","","1","8"
"null","","","null","","","","html-keyboard-response","113","452799","0.0-113.0","5c925b0fb138fe0014e4036b","620a67344070d00caea8dd41","","","","","<p style=""color:darkgreen;font-size:24px;"">Correct :)</p>","",""
"2600","key","v","v","16.702935064935303","500","250","psychophysics","114","455402","0.0-114.0","5c925b0fb138fe0014e4036b","620a67344070d00caea8dd41","4","","","","","1","2"
"null","","","null","","","","html-keyboard-response","115","455914","0.0-115.0","5c925b0fb138fe0014e4036b","620a67344070d00caea8dd41","","","","","<p style=""color:darkgreen;font-size:24px;"">Correct :)</p>","",""
"2850","key","v","v","16.70346783625734","500","250","psychophysics","116","458769","0.0-116.0","5c925b0fb138fe0014e4036b","620a67344070d00caea8dd41","4","","","","","1","2"
"null","","","null","","","","html-keyboard-response","117","459271","0.0-117.0","5c925b0fb138fe0014e4036b","620a67344070d00caea8dd41","","","","","<p style=""color:darkgreen;font-size:24px;"">Correct :)</p>","",""
"2429","key","n","n","16.703691780821927","500","250","psychophysics","118","461705","0.0-118.0","5c925b0fb138fe0014e4036b","620a67344070d00caea8dd41","4","","","","","1","8"
"null","","","null","","","","html-keyboard-response","119","462208","0.0-119.0","5c925b0fb138fe0014e4036b","620a67344070d00caea8dd41","","","","","<p style=""color:darkgreen;font-size:24px;"">Correct :)</p>","",""
"2412","key","n","n","16.70368750000004","500","250","psychophysics","120","464625","0.0-120.0","5c925b0fb138fe0014e4036b","620a67344070d00caea8dd41","4","","","","","1","8"
"null","","","null","","","","html-keyboard-response","121","465128","0.0-121.0","5c925b0fb138fe0014e4036b","620a67344070d00caea8dd41","","","","","<p style=""color:darkgreen;font-size:24px;"">Correct :)</p>","",""
"2613","key","v","v","16.703794871794972","500","250","psychophysics","122","467746","0.0-122.0","5c925b0fb138fe0014e4036b","620a67344070d00caea8dd41","4","","","","","1","3"
"null","","","null","","","","html-keyboard-response","123","468248","0.0-123.0","5c925b0fb138fe0014e4036b","620a67344070d00caea8dd41","","","","","<p style=""color:darkgreen;font-size:24px;"">Correct :)</p>","",""
"2532","key","v","v","16.70355921052626","500","250","psychophysics","124","470785","0.0-124.0","5c925b0fb138fe0014e4036b","620a67344070d00caea8dd41","4","","","","","1","1"
"null","","","null","","","","html-keyboard-response","125","471287","0.0-125.0","5c925b0fb138fe0014e4036b","620a67344070d00caea8dd41","","","","","<p style=""color:darkgreen;font-size:24px;"">Correct :)</p>","",""
"2693","key","n","n","16.703691358024823","500","250","psychophysics","126","473985","0.0-126.0","5c925b0fb138fe0014e4036b","620a67344070d00caea8dd41","4","","","","","1","7"
"null","","","null","","","","html-keyboard-response","127","474487","0.0-127.0","5c925b0fb138fe0014e4036b","620a67344070d00caea8dd41","","","","","<p style=""color:darkgreen;font-size:24px;"">Correct :)</p>","",""
"2509","key","v","v","16.703659999999992","500","250","psychophysics","128","477001","0.0-128.0","5c925b0fb138fe0014e4036b","620a67344070d00caea8dd41","4","","","","","1","3"
"null","","","null","","","","html-keyboard-response","129","477503","0.0-129.0","5c925b0fb138fe0014e4036b","620a67344070d00caea8dd41","","","","","<p style=""color:darkgreen;font-size:24px;"">Correct :)</p>","",""
"2655","key","n","n","16.70351572327042","500","250","psychophysics","130","480163","0.0-130.0","5c925b0fb138fe0014e4036b","620a67344070d00caea8dd41","4","","","","","1","7"
"null","","","null","","","","html-keyboard-response","131","480665","0.0-131.0","5c925b0fb138fe0014e4036b","620a67344070d00caea8dd41","","","","","<p style=""color:darkgreen;font-size:24px;"">Correct :)</p>","",""
"2564","key","v","v","16.703525974025933","500","250","psychophysics","132","483235","0.0-132.0","5c925b0fb138fe0014e4036b","620a67344070d00caea8dd41","4","","","","","1","4"
"null","","","null","","","","html-keyboard-response","133","483745","0.0-133.0","5c925b0fb138fe0014e4036b","620a67344070d00caea8dd41","","","","","<p style=""color:darkgreen;font-size:24px;"">Correct :)</p>","",""
"2492","key","n","n","16.703473333333385","500","250","psychophysics","134","486243","0.0-134.0","5c925b0fb138fe0014e4036b","620a67344070d00caea8dd41","4","","","","","1","8"
"null","","","null","","","","html-keyboard-response","135","486745","0.0-135.0","5c925b0fb138fe0014e4036b","620a67344070d00caea8dd41","","","","","<p style=""color:darkgreen;font-size:24px;"">Correct :)</p>","",""
"2412","key","n","n","16.703673611110894","500","250","psychophysics","136","489162","0.0-136.0","5c925b0fb138fe0014e4036b","620a67344070d00caea8dd41","4","","","","","1","8"
"null","","","null","","","","html-keyboard-response","137","489665","0.0-137.0","5c925b0fb138fe0014e4036b","620a67344070d00caea8dd41","","","","","<p style=""color:darkgreen;font-size:24px;"">Correct :)</p>","",""
"2525","key","n","n","16.703721854304554","500","250","psychophysics","138","492195","0.0-138.0","5c925b0fb138fe0014e4036b","620a67344070d00caea8dd41","4","","","","","1","9"
"null","","","null","","","","html-keyboard-response","139","492697","0.0-139.0","5c925b0fb138fe0014e4036b","620a67344070d00caea8dd41","","","","","<p style=""color:darkgreen;font-size:24px;"">Correct :)</p>","",""
"2644","key","v","v","16.703446540880492","500","250","psychophysics","140","495346","0.0-140.0","5c925b0fb138fe0014e4036b","620a67344070d00caea8dd41","4","","","","","1","1"
"null","","","null","","","","html-keyboard-response","141","495848","0.0-141.0","5c925b0fb138fe0014e4036b","620a67344070d00caea8dd41","","","","","<p style=""color:darkgreen;font-size:24px;"">Correct :)</p>","",""
"2533","key","n","n","16.703677631578774","500","250","psychophysics","142","498386","0.0-142.0","5c925b0fb138fe0014e4036b","620a67344070d00caea8dd41","4","","","","","1","8"
"null","","","null","","","","html-keyboard-response","143","498887","0.0-143.0","5c925b0fb138fe0014e4036b","620a67344070d00caea8dd41","","","","","<p style=""color:darkgreen;font-size:24px;"">Correct :)</p>","",""
"2574","key","v","v","16.70359740259735","500","250","psychophysics","144","501466","0.0-144.0","5c925b0fb138fe0014e4036b","620a67344070d00caea8dd41","4","","","","","1","3"
"null","","","null","","","","html-keyboard-response","145","501974","0.0-145.0","5c925b0fb138fe0014e4036b","620a67344070d00caea8dd41","","","","","<p style=""color:darkgreen;font-size:24px;"">Correct :)</p>","",""
"2632","key","n","n","16.703662420382017","500","250","psychophysics","146","504611","0.0-146.0","5c925b0fb138fe0014e4036b","620a67344070d00caea8dd41","4","","","","","1","9"
"null","","","null","","","","html-keyboard-response","147","505113","0.0-147.0","5c925b0fb138fe0014e4036b","620a67344070d00caea8dd41","","","","","<p style=""color:darkgreen;font-size:24px;"">Correct :)</p>","",""
"2628","key","v","v","16.80994904458606","500","250","psychophysics","148","507746","0.0-148.0","5c925b0fb138fe0014e4036b","620a67344070d00caea8dd41","4","","","","","1","4"
"null","","","null","","","","html-keyboard-response","149","508248","0.0-149.0","5c925b0fb138fe0014e4036b","620a67344070d00caea8dd41","","","","","<p style=""color:darkgreen;font-size:24px;"">Correct :)</p>","",""
"2900","key","v","v","16.703678160919555","500","250","psychophysics","150","511154","0.0-150.0","5c925b0fb138fe0014e4036b","620a67344070d00caea8dd41","4","","","","","1","1"
"null","","","null","","","","html-keyboard-response","151","511656","0.0-151.0","5c925b0fb138fe0014e4036b","620a67344070d00caea8dd41","","","","","<p style=""color:darkgreen;font-size:24px;"">Correct :)</p>","",""
"2621","key","v","v","16.703573248407707","500","250","psychophysics","152","514282","0.0-152.0","5c925b0fb138fe0014e4036b","620a67344070d00caea8dd41","4","","","","","1","4"
"null","","","null","","","","html-keyboard-response","153","514784","0.0-153.0","5c925b0fb138fe0014e4036b","620a67344070d00caea8dd41","","","","","<p style=""color:darkgreen;font-size:24px;"">Correct :)</p>","",""
"2736","key","v","v","16.806159509202335","500","250","psychophysics","154","517523","0.0-154.0","5c925b0fb138fe0014e4036b","620a67344070d00caea8dd41","4","","","","","1","3"
"null","","","null","","","","html-keyboard-response","155","518026","0.0-155.0","5c925b0fb138fe0014e4036b","620a67344070d00caea8dd41","","","","","<p style=""color:darkgreen;font-size:24px;"">Correct :)</p>","",""
"2539","key","n","n","16.703546052631665","500","250","psychophysics","156","520570","0.0-156.0","5c925b0fb138fe0014e4036b","620a67344070d00caea8dd41","4","","","","","1","9"
"null","","","null","","","","html-keyboard-response","157","521072","0.0-157.0","5c925b0fb138fe0014e4036b","620a67344070d00caea8dd41","","","","","<p style=""color:darkgreen;font-size:24px;"">Correct :)</p>","",""
"2701","key","n","n","16.703592592592344","500","250","psychophysics","158","523778","0.0-158.0","5c925b0fb138fe0014e4036b","620a67344070d00caea8dd41","4","","","","","1","9"
"null","","","null","","","","html-keyboard-response","159","524280","0.0-159.0","5c925b0fb138fe0014e4036b","620a67344070d00caea8dd41","","","","","<p style=""color:darkgreen;font-size:24px;"">Correct :)</p>","",""
"2605","key","n","n","16.703916666666583","500","250","psychophysics","160","526890","0.0-160.0","5c925b0fb138fe0014e4036b","620a67344070d00caea8dd41","4","","","","","1","7"
"null","","","null","","","","html-keyboard-response","161","527392","0.0-161.0","5c925b0fb138fe0014e4036b","620a67344070d00caea8dd41","","","","","<p style=""color:darkgreen;font-size:24px;"">Correct :)</p>","",""
"2518","key","v","v","16.703596026490178","500","250","psychophysics","162","529915","0.0-162.0","5c925b0fb138fe0014e4036b","620a67344070d00caea8dd41","4","","","","","1","2"
"null","","","null","","","","html-keyboard-response","163","530416","0.0-163.0","5c925b0fb138fe0014e4036b","620a67344070d00caea8dd41","","","","","<p style=""color:darkgreen;font-size:24px;"">Correct :)</p>","",""
"2468","key","v","v","16.703675675676266","500","250","psychophysics","164","532890","0.0-164.0","5c925b0fb138fe0014e4036b","620a67344070d00caea8dd41","4","","","","","1","1"
"null","","","null","","","","html-keyboard-response","165","533393","0.0-165.0","5c925b0fb138fe0014e4036b","620a67344070d00caea8dd41","","","","","<p style=""color:darkgreen;font-size:24px;"">Correct :)</p>","",""
"2628","key","v","v","16.703617834394862","500","250","psychophysics","166","536026","0.0-166.0","5c925b0fb138fe0014e4036b","620a67344070d00caea8dd41","4","","","","","1","2"
"null","","","null","","","","html-keyboard-response","167","536528","0.0-167.0","5c925b0fb138fe0014e4036b","620a67344070d00caea8dd41","","","","","<p style=""color:darkgreen;font-size:24px;"">Correct :)</p>","",""
"2501","key","n","n","16.70362666666663","500","250","psychophysics","168","539034","0.0-168.0","5c925b0fb138fe0014e4036b","620a67344070d00caea8dd41","4","","","","","1","7"
"null","","","null","","","","html-keyboard-response","169","539536","0.0-169.0","5c925b0fb138fe0014e4036b","620a67344070d00caea8dd41","","","","","<p style=""color:darkgreen;font-size:24px;"">Correct :)</p>","",""
"2486","key","v","v","16.703651006711684","500","250","psychophysics","170","542027","0.0-170.0","5c925b0fb138fe0014e4036b","620a67344070d00caea8dd41","4","","","","","1","2"
"null","","","null","","","","html-keyboard-response","171","542529","0.0-171.0","5c925b0fb138fe0014e4036b","620a67344070d00caea8dd41","","","","","<p style=""color:darkgreen;font-size:24px;"">Correct :)</p>","",""
"2747","key","v","v","16.70359146341443","500","250","psychophysics","172","545281","0.0-172.0","5c925b0fb138fe0014e4036b","620a67344070d00caea8dd41","4","","","","","1","4"
"null","","","null","","","","html-keyboard-response","173","545784","0.0-173.0","5c925b0fb138fe0014e4036b","620a67344070d00caea8dd41","","","","","<p style=""color:darkgreen;font-size:24px;"">Correct :)</p>","",""
"2622","key","v","v","16.810337579617823","500","250","psychophysics","174","548410","0.0-174.0","5c925b0fb138fe0014e4036b","620a67344070d00caea8dd41","4","","","","","1","4"
"null","","","null","","","","html-keyboard-response","175","548917","0.0-175.0","5c925b0fb138fe0014e4036b","620a67344070d00caea8dd41","","","","","<p style=""color:darkgreen;font-size:24px;"">Correct :)</p>","",""
"2616","key","n","n","16.703675159235384","500","250","psychophysics","176","551537","0.0-176.0","5c925b0fb138fe0014e4036b","620a67344070d00caea8dd41","4","","","","","1","9"
"null","","","null","","","","html-keyboard-response","177","552039","0.0-177.0","5c925b0fb138fe0014e4036b","620a67344070d00caea8dd41","","","","","<p style=""color:darkgreen;font-size:24px;"">Correct :)</p>","",""
"2774","key","n","n","16.703560240964364","500","250","psychophysics","178","554818","0.0-178.0","5c925b0fb138fe0014e4036b","620a67344070d00caea8dd41","4","","","","","1","8"
"null","","","null","","","","html-keyboard-response","179","555320","0.0-179.0","5c925b0fb138fe0014e4036b","620a67344070d00caea8dd41","","","","","<p style=""color:darkgreen;font-size:24px;"">Correct :)</p>","",""
"2460","key","n","n","16.703864864865004","500","250","psychophysics","180","557785","0.0-180.0","5c925b0fb138fe0014e4036b","620a67344070d00caea8dd41","4","","","","","1","8"
"null","","","null","","","","html-keyboard-response","181","558296","0.0-181.0","5c925b0fb138fe0014e4036b","620a67344070d00caea8dd41","","","","","<p style=""color:darkgreen;font-size:24px;"">Correct :)</p>","",""
"2653","key","n","n","16.703710691823986","500","250","psychophysics","182","560954","0.0-182.0","5c925b0fb138fe0014e4036b","620a67344070d00caea8dd41","4","","","","","1","7"
"null","","","null","","","","html-keyboard-response","183","561456","0.0-183.0","5c925b0fb138fe0014e4036b","620a67344070d00caea8dd41","","","","","<p style=""color:darkgreen;font-size:24px;"">Correct :)</p>","",""
"2524","key","n","n","16.70390728476846","500","250","psychophysics","184","563985","0.0-184.0","5c925b0fb138fe0014e4036b","620a67344070d00caea8dd41","4","","","","","1","9"
"null","","","null","","","","html-keyboard-response","185","564487","0.0-185.0","5c925b0fb138fe0014e4036b","620a67344070d00caea8dd41","","","","","<p style=""color:darkgreen;font-size:24px;"">Correct :)</p>","",""
"2678","key","n","n","16.703745341614635","500","250","psychophysics","186","567170","0.0-186.0","5c925b0fb138fe0014e4036b","620a67344070d00caea8dd41","4","","","","","1","6"
"null","","","null","","","","html-keyboard-response","187","567678","0.0-187.0","5c925b0fb138fe0014e4036b","620a67344070d00caea8dd41","","","","","<p style=""color:darkgreen;font-size:24px;"">Correct :)</p>","",""
"2783","key","n","n","16.70389820359268","500","250","psychophysics","188","570465","0.0-188.0","5c925b0fb138fe0014e4036b","620a67344070d00caea8dd41","4","","","","","1","7"
"null","","","null","","","","html-keyboard-response","189","570968","0.0-189.0","5c925b0fb138fe0014e4036b","620a67344070d00caea8dd41","","","","","<p style=""color:darkgreen;font-size:24px;"">Correct :)</p>","",""
"2758","key","v","v","16.70356363636357","500","250","psychophysics","190","573730","0.0-190.0","5c925b0fb138fe0014e4036b","620a67344070d00caea8dd41","4","","","","","1","4"
"null","","","null","","","","html-keyboard-response","191","574232","0.0-191.0","5c925b0fb138fe0014e4036b","620a67344070d00caea8dd41","","","","","<p style=""color:darkgreen;font-size:24px;"">Correct :)</p>","",""
"2885","key","v","v","16.70354335260109","500","250","psychophysics","192","577122","0.0-192.0","5c925b0fb138fe0014e4036b","620a67344070d00caea8dd41","4","","","","","1","2"
"null","","","null","","","","html-keyboard-response","193","577624","0.0-193.0","5c925b0fb138fe0014e4036b","620a67344070d00caea8dd41","","","","","<p style=""color:darkgreen;font-size:24px;"">Correct :)</p>","",""
"14569","","","v","","","","html-keyboard-response","194","592195","0.0-194.0","5c925b0fb138fe0014e4036b","620a67344070d00caea8dd41","","","","","<p> Ok, now we are going present the same digits as before.  Your job is to say whether the digit is even or odd  If the digit is odd, press to v key; if it is even, press the n key. We are going to do 50 of these.  </p>  <br><br>  Ready? (press v or n)","",""
"3432","key","n","n","16.727257281553126","500","250","psychophysics","195","595633","0.0-195.0","5c925b0fb138fe0014e4036b","620a67344070d00caea8dd41","5","","","","","0","4"
"null","","","null","","","","html-keyboard-response","196","596135","0.0-196.0","5c925b0fb138fe0014e4036b","620a67344070d00caea8dd41","","","","","<p style=""color:darkgreen;font-size:24px;"">Correct :)</p>","",""
"2998","key","n","n","16.703422222222436","500","250","psychophysics","197","599138","0.0-197.0","5c925b0fb138fe0014e4036b","620a67344070d00caea8dd41","5","","","","","0","8"
"null","","","null","","","","html-keyboard-response","198","599640","0.0-198.0","5c925b0fb138fe0014e4036b","620a67344070d00caea8dd41","","","","","<p style=""color:darkgreen;font-size:24px;"">Correct :)</p>","",""
"3046","key","v","v","16.70345054945082","500","250","psychophysics","199","602691","0.0-199.0","5c925b0fb138fe0014e4036b","620a67344070d00caea8dd41","5","","","","","0","9"
"null","","","null","","","","html-keyboard-response","200","603194","0.0-200.0","5c925b0fb138fe0014e4036b","620a67344070d00caea8dd41","","","","","<p style=""color:darkgreen;font-size:24px;"">Correct :)</p>","",""
"2803","key","n","n","16.703761904761667","500","250","psychophysics","201","606002","0.0-201.0","5c925b0fb138fe0014e4036b","620a67344070d00caea8dd41","5","","","","","0","8"
"null","","","null","","","","html-keyboard-response","202","606506","0.0-202.0","5c925b0fb138fe0014e4036b","620a67344070d00caea8dd41","","","","","<p style=""color:darkgreen;font-size:24px;"">Correct :)</p>","",""
"2987","key","n","n","16.70358659217899","500","250","psychophysics","203","609498","0.0-203.0","5c925b0fb138fe0014e4036b","620a67344070d00caea8dd41","5","","","","","0","6"
"null","","","null","","","","html-keyboard-response","204","610000","0.0-204.0","5c925b0fb138fe0014e4036b","620a67344070d00caea8dd41","","","","","<p style=""color:darkgreen;font-size:24px;"">Correct :)</p>","",""
"4022","key","n","n","16.703315352696897","500","250","psychophysics","205","614027","0.0-205.0","5c925b0fb138fe0014e4036b","620a67344070d00caea8dd41","5","","","","","0","2"
"null","","","null","","","","html-keyboard-response","206","614528","0.0-206.0","5c925b0fb138fe0014e4036b","620a67344070d00caea8dd41","","","","","<p style=""color:darkgreen;font-size:24px;"">Correct :)</p>","",""
"2853","key","n","n","16.70366666666695","500","250","psychophysics","207","617386","0.0-207.0","5c925b0fb138fe0014e4036b","620a67344070d00caea8dd41","5","","","","","0","6"
"null","","","null","","","","html-keyboard-response","208","617887","0.0-208.0","5c925b0fb138fe0014e4036b","620a67344070d00caea8dd41","","","","","<p style=""color:darkgreen;font-size:24px;"">Correct :)</p>","",""
"2750","key","n","n","16.703690909090536","500","250","psychophysics","209","620642","0.0-209.0","5c925b0fb138fe0014e4036b","620a67344070d00caea8dd41","5","","","","","0","8"
"null","","","null","","","","html-keyboard-response","210","621144","0.0-210.0","5c925b0fb138fe0014e4036b","620a67344070d00caea8dd41","","","","","<p style=""color:darkgreen;font-size:24px;"">Correct :)</p>","",""
"2837","key","n","n","16.703452941176124","500","250","psychophysics","211","623986","0.0-211.0","5c925b0fb138fe0014e4036b","620a67344070d00caea8dd41","5","","","","","0","2"
"null","","","null","","","","html-keyboard-response","212","624487","0.0-212.0","5c925b0fb138fe0014e4036b","620a67344070d00caea8dd41","","","","","<p style=""color:darkgreen;font-size:24px;"">Correct :)</p>","",""
"2840","key","n","n","16.80191764705883","500","250","psychophysics","213","627332","0.0-213.0","5c925b0fb138fe0014e4036b","620a67344070d00caea8dd41","5","","","","","0","8"
"null","","","null","","","","html-keyboard-response","214","627834","0.0-214.0","5c925b0fb138fe0014e4036b","620a67344070d00caea8dd41","","","","","<p style=""color:darkgreen;font-size:24px;"">Correct :)</p>","",""
"2587","key","n","n","16.70358709677483","500","250","psychophysics","215","630426","0.0-215.0","5c925b0fb138fe0014e4036b","620a67344070d00caea8dd41","5","","","","","0","6"
"null","","","null","","","","html-keyboard-response","216","630929","0.0-216.0","5c925b0fb138fe0014e4036b","620a67344070d00caea8dd41","","","","","<p style=""color:darkgreen;font-size:24px;"">Correct :)</p>","",""
"2779","key","v","v","16.70351497005967","500","250","psychophysics","217","633714","0.0-217.0","5c925b0fb138fe0014e4036b","620a67344070d00caea8dd41","5","","","","","0","1"
"null","","","null","","","","html-keyboard-response","218","634216","0.0-218.0","5c925b0fb138fe0014e4036b","620a67344070d00caea8dd41","","","","","<p style=""color:darkgreen;font-size:24px;"">Correct :)</p>","",""
"2981","key","v","v","16.703357541899837","500","250","psychophysics","219","637202","0.0-219.0","5c925b0fb138fe0014e4036b","620a67344070d00caea8dd41","5","","","","","0","9"
"null","","","null","","","","html-keyboard-response","220","637705","0.0-220.0","5c925b0fb138fe0014e4036b","620a67344070d00caea8dd41","","","","","<p style=""color:darkgreen;font-size:24px;"">Correct :)</p>","",""
"2813","key","n","n","16.70364880952374","500","250","psychophysics","221","640523","0.0-221.0","5c925b0fb138fe0014e4036b","620a67344070d00caea8dd41","5","","","","","0","2"
"null","","","null","","","","html-keyboard-response","222","641026","0.0-222.0","5c925b0fb138fe0014e4036b","620a67344070d00caea8dd41","","","","","<p style=""color:darkgreen;font-size:24px;"">Correct :)</p>","",""
"2620","key","n","n","16.703719745223278","500","250","psychophysics","223","643651","0.0-223.0","5c925b0fb138fe0014e4036b","620a67344070d00caea8dd41","5","","","","","0","2"
"null","","","null","","","","html-keyboard-response","224","644166","0.0-224.0","5c925b0fb138fe0014e4036b","620a67344070d00caea8dd41","","","","","<p style=""color:darkgreen;font-size:24px;"">Correct :)</p>","",""
"2663","key","v","v","16.703465408805183","500","250","psychophysics","225","646834","0.0-225.0","5c925b0fb138fe0014e4036b","620a67344070d00caea8dd41","5","","","","","0","7"
"null","","","null","","","","html-keyboard-response","226","647347","0.0-226.0","5c925b0fb138fe0014e4036b","620a67344070d00caea8dd41","","","","","<p style=""color:darkgreen;font-size:24px;"">Correct :)</p>","",""
"2770","key","v","v","16.703656626506202","500","250","psychophysics","227","650122","0.0-227.0","5c925b0fb138fe0014e4036b","620a67344070d00caea8dd41","5","","","","","0","9"
"null","","","null","","","","html-keyboard-response","228","650632","0.0-228.0","5c925b0fb138fe0014e4036b","620a67344070d00caea8dd41","","","","","<p style=""color:darkgreen;font-size:24px;"">Correct :)</p>","",""
"2614","key","n","n","16.703608974359202","500","250","psychophysics","229","653251","0.0-229.0","5c925b0fb138fe0014e4036b","620a67344070d00caea8dd41","5","","","","","0","8"
"null","","","null","","","","html-keyboard-response","230","653754","0.0-230.0","5c925b0fb138fe0014e4036b","620a67344070d00caea8dd41","","","","","<p style=""color:darkgreen;font-size:24px;"">Correct :)</p>","",""
"2723","key","v","v","16.703846625767312","500","250","psychophysics","231","656482","0.0-231.0","5c925b0fb138fe0014e4036b","620a67344070d00caea8dd41","5","","","","","0","7"
"null","","","null","","","","html-keyboard-response","232","656990","0.0-232.0","5c925b0fb138fe0014e4036b","620a67344070d00caea8dd41","","","","","<p style=""color:darkgreen;font-size:24px;"">Correct :)</p>","",""
"2653","key","v","v","16.703743749999557","500","250","psychophysics","233","659658","0.0-233.0","5c925b0fb138fe0014e4036b","620a67344070d00caea8dd41","5","","","","","0","3"
"null","","","null","","","","html-keyboard-response","234","660172","0.0-234.0","5c925b0fb138fe0014e4036b","620a67344070d00caea8dd41","","","","","<p style=""color:darkgreen;font-size:24px;"">Correct :)</p>","",""
"2713","key","v","v","16.703521472392634","500","250","psychophysics","235","662890","0.0-235.0","5c925b0fb138fe0014e4036b","620a67344070d00caea8dd41","5","","","","","0","9"
"null","","","null","","","","html-keyboard-response","236","663392","0.0-236.0","5c925b0fb138fe0014e4036b","620a67344070d00caea8dd41","","","","","<p style=""color:darkgreen;font-size:24px;"">Correct :)</p>","",""
"2957","key","n","n","16.70374576271167","500","250","psychophysics","237","666354","0.0-237.0","5c925b0fb138fe0014e4036b","620a67344070d00caea8dd41","5","","","","","0","2"
"null","","","null","","","","html-keyboard-response","238","666856","0.0-238.0","5c925b0fb138fe0014e4036b","620a67344070d00caea8dd41","","","","","<p style=""color:darkgreen;font-size:24px;"">Correct :)</p>","",""
"2573","key","n","n","16.704168831169085","500","250","psychophysics","239","669433","0.0-239.0","5c925b0fb138fe0014e4036b","620a67344070d00caea8dd41","5","","","","","0","8"
"null","","","null","","","","html-keyboard-response","240","669935","0.0-240.0","5c925b0fb138fe0014e4036b","620a67344070d00caea8dd41","","","","","<p style=""color:darkgreen;font-size:24px;"">Correct :)</p>","",""
"2782","key","n","n","16.80428313253046","500","250","psychophysics","241","672721","0.0-241.0","5c925b0fb138fe0014e4036b","620a67344070d00caea8dd41","5","","","","","0","2"
"null","","","null","","","","html-keyboard-response","242","673223","0.0-242.0","5c925b0fb138fe0014e4036b","620a67344070d00caea8dd41","","","","","<p style=""color:darkgreen;font-size:24px;"">Correct :)</p>","",""
"2494","key","n","n","16.703773333333277","500","250","psychophysics","243","675721","0.0-243.0","5c925b0fb138fe0014e4036b","620a67344070d00caea8dd41","5","","","","","0","8"
"null","","","null","","","","html-keyboard-response","244","676222","0.0-244.0","5c925b0fb138fe0014e4036b","620a67344070d00caea8dd41","","","","","<p style=""color:darkgreen;font-size:24px;"">Correct :)</p>","",""
"2703","key","v","v","16.703561728395503","500","250","psychophysics","245","678930","0.0-245.0","5c925b0fb138fe0014e4036b","620a67344070d00caea8dd41","5","","","","","0","3"
"null","","","null","","","","html-keyboard-response","246","679439","0.0-246.0","5c925b0fb138fe0014e4036b","620a67344070d00caea8dd41","","","","","<p style=""color:darkgreen;font-size:24px;"">Correct :)</p>","",""
"2845","key","v","v","16.802058823529276","500","250","psychophysics","247","682289","0.0-247.0","5c925b0fb138fe0014e4036b","620a67344070d00caea8dd41","5","","","","","0","1"
"null","","","null","","","","html-keyboard-response","248","682802","0.0-248.0","5c925b0fb138fe0014e4036b","620a67344070d00caea8dd41","","","","","<p style=""color:darkgreen;font-size:24px;"">Correct :)</p>","",""
"2754","key","v","v","16.703569696969918","500","250","psychophysics","249","685561","0.0-249.0","5c925b0fb138fe0014e4036b","620a67344070d00caea8dd41","5","","","","","0","3"
"null","","","null","","","","html-keyboard-response","250","686063","0.0-250.0","5c925b0fb138fe0014e4036b","620a67344070d00caea8dd41","","","","","<p style=""color:darkgreen;font-size:24px;"">Correct :)</p>","",""
"2829","key","v","v","16.703752941175996","500","250","psychophysics","251","688898","0.0-251.0","5c925b0fb138fe0014e4036b","620a67344070d00caea8dd41","5","","","","","0","7"
"null","","","null","","","","html-keyboard-response","252","689400","0.0-252.0","5c925b0fb138fe0014e4036b","620a67344070d00caea8dd41","","","","","<p style=""color:darkgreen;font-size:24px;"">Correct :)</p>","",""
"2630","key","v","v","16.704050955414523","500","250","psychophysics","253","692034","0.0-253.0","5c925b0fb138fe0014e4036b","620a67344070d00caea8dd41","5","","","","","0","3"
"null","","","null","","","","html-keyboard-response","254","692547","0.0-254.0","5c925b0fb138fe0014e4036b","620a67344070d00caea8dd41","","","","","<p style=""color:darkgreen;font-size:24px;"">Correct :)</p>","",""
"2642","key","v","v","16.704081761005696","500","250","psychophysics","255","695194","0.0-255.0","5c925b0fb138fe0014e4036b","620a67344070d00caea8dd41","5","","","","","0","1"
"null","","","null","","","","html-keyboard-response","256","695695","0.0-256.0","5c925b0fb138fe0014e4036b","620a67344070d00caea8dd41","","","","","<p style=""color:darkgreen;font-size:24px;"">Correct :)</p>","",""
"2645","key","v","v","16.7036329113924","500","250","psychophysics","257","698345","0.0-257.0","5c925b0fb138fe0014e4036b","620a67344070d00caea8dd41","5","","","","","0","1"
"null","","","null","","","","html-keyboard-response","258","698847","0.0-258.0","5c925b0fb138fe0014e4036b","620a67344070d00caea8dd41","","","","","<p style=""color:darkgreen;font-size:24px;"">Correct :)</p>","",""
"2685","key","n","n","16.808193750000648","500","250","psychophysics","259","701537","0.0-259.0","5c925b0fb138fe0014e4036b","620a67344070d00caea8dd41","5","","","","","0","8"
"null","","","null","","","","html-keyboard-response","260","702041","0.0-260.0","5c925b0fb138fe0014e4036b","620a67344070d00caea8dd41","","","","","<p style=""color:darkgreen;font-size:24px;"">Correct :)</p>","",""
"2756","key","v","v","16.703515151514896","500","250","psychophysics","261","704802","0.0-261.0","5c925b0fb138fe0014e4036b","620a67344070d00caea8dd41","5","","","","","0","3"
"null","","","null","","","","html-keyboard-response","262","705304","0.0-262.0","5c925b0fb138fe0014e4036b","620a67344070d00caea8dd41","","","","","<p style=""color:darkgreen;font-size:24px;"">Correct :)</p>","",""
"2765","key","v","v","16.703698795180802","500","250","psychophysics","263","708073","0.0-263.0","5c925b0fb138fe0014e4036b","620a67344070d00caea8dd41","5","","","","","0","3"
"null","","","null","","","","html-keyboard-response","264","708575","0.0-264.0","5c925b0fb138fe0014e4036b","620a67344070d00caea8dd41","","","","","<p style=""color:darkgreen;font-size:24px;"">Correct :)</p>","",""
"2813","key","n","n","16.703461538461593","500","250","psychophysics","265","711395","0.0-265.0","5c925b0fb138fe0014e4036b","620a67344070d00caea8dd41","5","","","","","0","2"
"null","","","null","","","","html-keyboard-response","266","711898","0.0-266.0","5c925b0fb138fe0014e4036b","620a67344070d00caea8dd41","","","","","<p style=""color:darkgreen;font-size:24px;"">Correct :)</p>","",""
"2466","key","n","n","16.703783783783216","500","250","psychophysics","267","714370","0.0-267.0","5c925b0fb138fe0014e4036b","620a67344070d00caea8dd41","5","","","","","0","4"
"null","","","null","","","","html-keyboard-response","268","714872","0.0-268.0","5c925b0fb138fe0014e4036b","620a67344070d00caea8dd41","","","","","<p style=""color:darkgreen;font-size:24px;"">Correct :)</p>","",""
"2421","key","n","n","16.703799999999845","500","250","psychophysics","269","717298","0.0-269.0","5c925b0fb138fe0014e4036b","620a67344070d00caea8dd41","5","","","","","0","4"
"null","","","null","","","","html-keyboard-response","270","717801","0.0-270.0","5c925b0fb138fe0014e4036b","620a67344070d00caea8dd41","","","","","<p style=""color:darkgreen;font-size:24px;"">Correct :)</p>","",""
"2499","key","n","n","16.70379999999966","500","250","psychophysics","271","720305","0.0-271.0","5c925b0fb138fe0014e4036b","620a67344070d00caea8dd41","5","","","","","0","2"
"null","","","null","","","","html-keyboard-response","272","720808","0.0-272.0","5c925b0fb138fe0014e4036b","620a67344070d00caea8dd41","","","","","<p style=""color:darkgreen;font-size:24px;"">Correct :)</p>","",""
"2829","key","v","v","16.703764705882435","500","250","psychophysics","273","723642","0.0-273.0","5c925b0fb138fe0014e4036b","620a67344070d00caea8dd41","5","","","","","0","7"
"null","","","null","","","","html-keyboard-response","274","724143","0.0-274.0","5c925b0fb138fe0014e4036b","620a67344070d00caea8dd41","","","","","<p style=""color:darkgreen;font-size:24px;"">Correct :)</p>","",""
"2647","key","n","n","16.703471698112928","500","250","psychophysics","275","726795","0.0-275.0","5c925b0fb138fe0014e4036b","620a67344070d00caea8dd41","5","","","","","0","6"
"null","","","null","","","","html-keyboard-response","276","727297","0.0-276.0","5c925b0fb138fe0014e4036b","620a67344070d00caea8dd41","","","","","<p style=""color:darkgreen;font-size:24px;"">Correct :)</p>","",""
"2853","key","v","v","16.703602339181238","500","250","psychophysics","277","730155","0.0-277.0","5c925b0fb138fe0014e4036b","620a67344070d00caea8dd41","5","","","","","0","9"
"null","","","null","","","","html-keyboard-response","278","730657","0.0-278.0","5c925b0fb138fe0014e4036b","620a67344070d00caea8dd41","","","","","<p style=""color:darkgreen;font-size:24px;"">Correct :)</p>","",""
"2908","key","n","n","16.70335057471215","500","250","psychophysics","279","733570","0.0-279.0","5c925b0fb138fe0014e4036b","620a67344070d00caea8dd41","5","","","","","0","6"
"null","","","null","","","","html-keyboard-response","280","734083","0.0-280.0","5c925b0fb138fe0014e4036b","620a67344070d00caea8dd41","","","","","<p style=""color:darkgreen;font-size:24px;"">Correct :)</p>","",""
"2858","key","v","v","16.703596491227742","500","250","psychophysics","281","736946","0.0-281.0","5c925b0fb138fe0014e4036b","620a67344070d00caea8dd41","5","","","","","0","7"
"null","","","null","","","","html-keyboard-response","282","737448","0.0-282.0","5c925b0fb138fe0014e4036b","620a67344070d00caea8dd41","","","","","<p style=""color:darkgreen;font-size:24px;"">Correct :)</p>","",""
"2734","key","v","v","16.806220858895642","500","250","psychophysics","283","740187","0.0-283.0","5c925b0fb138fe0014e4036b","620a67344070d00caea8dd41","5","","","","","0","3"
"null","","","null","","","","html-keyboard-response","284","740688","0.0-284.0","5c925b0fb138fe0014e4036b","620a67344070d00caea8dd41","","","","","<p style=""color:darkgreen;font-size:24px;"">Correct :)</p>","",""
"2756","key","v","v","16.80592727272729","500","250","psychophysics","285","743450","0.0-285.0","5c925b0fb138fe0014e4036b","620a67344070d00caea8dd41","5","","","","","0","1"
"null","","","null","","","","html-keyboard-response","286","743962","0.0-286.0","5c925b0fb138fe0014e4036b","620a67344070d00caea8dd41","","","","","<p style=""color:darkgreen;font-size:24px;"">Correct :)</p>","",""
"2907","key","n","n","16.799770114942717","500","250","psychophysics","287","746874","0.0-287.0","5c925b0fb138fe0014e4036b","620a67344070d00caea8dd41","5","","","","","0","8"
"null","","","null","","","","html-keyboard-response","288","747376","0.0-288.0","5c925b0fb138fe0014e4036b","620a67344070d00caea8dd41","","","","","<p style=""color:darkgreen;font-size:24px;"">Correct :)</p>","",""
"2500","key","n","n","16.703826666666817","500","250","psychophysics","289","749881","0.0-289.0","5c925b0fb138fe0014e4036b","620a67344070d00caea8dd41","5","","","","","0","4"
"null","","","null","","","","html-keyboard-response","290","750383","0.0-290.0","5c925b0fb138fe0014e4036b","620a67344070d00caea8dd41","","","","","<p style=""color:darkgreen;font-size:24px;"">Correct :)</p>","",""
"2607","key","v","v","16.703403846154032","500","250","psychophysics","291","752995","0.0-291.0","5c925b0fb138fe0014e4036b","620a67344070d00caea8dd41","5","","","","","0","7"
"null","","","null","","","","html-keyboard-response","292","753497","0.0-292.0","5c925b0fb138fe0014e4036b","620a67344070d00caea8dd41","","","","","<p style=""color:darkgreen;font-size:24px;"">Correct :)</p>","",""
"2852","key","n","n","16.703538011695525","500","250","psychophysics","293","756354","0.0-293.0","5c925b0fb138fe0014e4036b","620a67344070d00caea8dd41","5","","","","","0","2"
"null","","","null","","","","html-keyboard-response","294","756855","0.0-294.0","5c925b0fb138fe0014e4036b","620a67344070d00caea8dd41","","","","","<p style=""color:darkgreen;font-size:24px;"">Correct :)</p>","",""
"13491","","","v","","","","html-keyboard-response","295","770347","0.0-295.0","5c925b0fb138fe0014e4036b","620a67344070d00caea8dd41","","","","","<p> Here, the tasks are going to switch.  For some trials, your job is to decide if the digit is less than or greater than 5.  For others, it is to decide if the digit is even or odd.  You will be told which type of trial the current one is.  But, pay attention, the type of trial changes too.  We are going to do 50 of these.  </p>  <br><br>  Ready? (press v or n)","",""
"3370","key","v","v","16.72575742574259","500","250","psychophysics","296","773722","0.0-296.0","5c925b0fb138fe0014e4036b","620a67344070d00caea8dd41","6","","","","","1","4"
"null","","","null","","","","html-keyboard-response","297","774223","0.0-297.0","5c925b0fb138fe0014e4036b","620a67344070d00caea8dd41","","","","","<p style=""color:darkgreen;font-size:24px;"">Correct :)</p>","",""
"3268","key","n","n","16.704076530612596","500","250","psychophysics","298","777498","0.0-298.0","5c925b0fb138fe0014e4036b","620a67344070d00caea8dd41","6","","","","","1","6"
"null","","","null","","","","html-keyboard-response","299","777999","0.0-299.0","5c925b0fb138fe0014e4036b","620a67344070d00caea8dd41","","","","","<p style=""color:darkgreen;font-size:24px;"">Correct :)</p>","",""
"3176","key","n","n","16.70364921465967","500","250","psychophysics","300","781180","0.0-300.0","5c925b0fb138fe0014e4036b","620a67344070d00caea8dd41","6","","","","","0","8"
"null","","","null","","","","html-keyboard-response","301","781694","0.0-301.0","5c925b0fb138fe0014e4036b","620a67344070d00caea8dd41","","","","","<p style=""color:darkgreen;font-size:24px;"">Correct :)</p>","",""
"2806","key","n","n","16.70365476190498","500","250","psychophysics","302","784505","0.0-302.0","5c925b0fb138fe0014e4036b","620a67344070d00caea8dd41","6","","","","","0","4"
"null","","","null","","","","html-keyboard-response","303","785007","0.0-303.0","5c925b0fb138fe0014e4036b","620a67344070d00caea8dd41","","","","","<p style=""color:darkgreen;font-size:24px;"">Correct :)</p>","",""
"2916","key","n","n","16.70333142857134","500","250","psychophysics","304","787928","0.0-304.0","5c925b0fb138fe0014e4036b","620a67344070d00caea8dd41","6","","","","","0","6"
"null","","","null","","","","html-keyboard-response","305","788441","0.0-305.0","5c925b0fb138fe0014e4036b","620a67344070d00caea8dd41","","","","","<p style=""color:darkgreen;font-size:24px;"">Correct :)</p>","",""
"3212","key","n","n","16.704125000000204","500","250","psychophysics","306","791658","0.0-306.0","5c925b0fb138fe0014e4036b","620a67344070d00caea8dd41","6","","","","","0","2"
"null","","","null","","","","html-keyboard-response","307","792161","0.0-307.0","5c925b0fb138fe0014e4036b","620a67344070d00caea8dd41","","","","","<p style=""color:darkgreen;font-size:24px;"">Correct :)</p>","",""
"2979","key","n","n","16.70334636871495","500","250","psychophysics","308","795145","0.0-308.0","5c925b0fb138fe0014e4036b","620a67344070d00caea8dd41","6","","","","","0","6"
"null","","","null","","","","html-keyboard-response","309","795652","0.0-309.0","5c925b0fb138fe0014e4036b","620a67344070d00caea8dd41","","","","","<p style=""color:darkgreen;font-size:24px;"">Correct :)</p>","",""
"2912","key","n","n","16.703639999999933","500","250","psychophysics","310","798569","0.0-310.0","5c925b0fb138fe0014e4036b","620a67344070d00caea8dd41","6","","","","","1","8"
"null","","","null","","","","html-keyboard-response","311","799071","0.0-311.0","5c925b0fb138fe0014e4036b","620a67344070d00caea8dd41","","","","","<p style=""color:darkgreen;font-size:24px;"">Correct :)</p>","",""
"3430","key","v","v","16.70340975609767","500","250","psychophysics","312","802506","0.0-312.0","5c925b0fb138fe0014e4036b","620a67344070d00caea8dd41","6","","","","","0","1"
"null","","","null","","","","html-keyboard-response","313","803008","0.0-313.0","5c925b0fb138fe0014e4036b","620a67344070d00caea8dd41","","","","","<p style=""color:darkgreen;font-size:24px;"">Correct :)</p>","",""
"3332","key","v","v","16.70355276381901","500","250","psychophysics","314","806345","0.0-314.0","5c925b0fb138fe0014e4036b","620a67344070d00caea8dd41","6","","","","","0","3"
"null","","","null","","","","html-keyboard-response","315","806847","0.0-315.0","5c925b0fb138fe0014e4036b","620a67344070d00caea8dd41","","","","","<p style=""color:darkgreen;font-size:24px;"">Correct :)</p>","",""
"3629","key","n","n","16.780580645161553","500","250","psychophysics","316","810481","0.0-316.0","5c925b0fb138fe0014e4036b","620a67344070d00caea8dd41","6","","","","","1","9"
"null","","","null","","","","html-keyboard-response","317","810993","0.0-317.0","5c925b0fb138fe0014e4036b","620a67344070d00caea8dd41","","","","","<p style=""color:darkgreen;font-size:24px;"">Correct :)</p>","",""
"3571","key","v","v","16.70326168224309","500","250","psychophysics","318","814569","0.0-318.0","5c925b0fb138fe0014e4036b","620a67344070d00caea8dd41","6","","","","","0","3"
"null","","","null","","","","html-keyboard-response","319","815070","0.0-319.0","5c925b0fb138fe0014e4036b","620a67344070d00caea8dd41","","","","","<p style=""color:darkgreen;font-size:24px;"">Correct :)</p>","",""
"3190","key","n","n","16.703607329842757","500","250","psychophysics","320","818265","0.0-320.0","5c925b0fb138fe0014e4036b","620a67344070d00caea8dd41","6","","","","","0","4"
"null","","","null","","","","html-keyboard-response","321","818767","0.0-321.0","5c925b0fb138fe0014e4036b","620a67344070d00caea8dd41","","","","","<p style=""color:darkgreen;font-size:24px;"">Correct :)</p>","",""
"3285","key","n","n","16.70357360406058","500","250","psychophysics","322","822057","0.0-322.0","5c925b0fb138fe0014e4036b","620a67344070d00caea8dd41","6","","","","","1","9"
"null","","","null","","","","html-keyboard-response","323","822562","0.0-323.0","5c925b0fb138fe0014e4036b","620a67344070d00caea8dd41","","","","","<p style=""color:darkgreen;font-size:24px;"">Correct :)</p>","",""
"2963","key","v","v","16.703612359550657","500","250","psychophysics","324","825530","0.0-324.0","5c925b0fb138fe0014e4036b","620a67344070d00caea8dd41","6","","","","","1","4"
"null","","","null","","","","html-keyboard-response","325","826031","0.0-325.0","5c925b0fb138fe0014e4036b","620a67344070d00caea8dd41","","","","","<p style=""color:darkgreen;font-size:24px;"">Correct :)</p>","",""
"2966","key","n","n","16.703556179775322","500","250","psychophysics","326","829001","0.0-326.0","5c925b0fb138fe0014e4036b","620a67344070d00caea8dd41","6","","","","","1","9"
"null","","","null","","","","html-keyboard-response","327","829503","0.0-327.0","5c925b0fb138fe0014e4036b","620a67344070d00caea8dd41","","","","","<p style=""color:darkgreen;font-size:24px;"">Correct :)</p>","",""
"2999","key","v","v","16.7036666666662","500","250","psychophysics","328","832506","0.0-328.0","5c925b0fb138fe0014e4036b","620a67344070d00caea8dd41","6","","","","","1","3"
"null","","","null","","","","html-keyboard-response","329","833008","0.0-329.0","5c925b0fb138fe0014e4036b","620a67344070d00caea8dd41","","","","","<p style=""color:darkgreen;font-size:24px;"">Correct :)</p>","",""
"3349","key","v","v","16.703460000000195","500","250","psychophysics","330","836362","0.0-330.0","5c925b0fb138fe0014e4036b","620a67344070d00caea8dd41","6","","","","","0","3"
"null","","","null","","","","html-keyboard-response","331","836864","0.0-331.0","5c925b0fb138fe0014e4036b","620a67344070d00caea8dd41","","","","","<p style=""color:darkgreen;font-size:24px;"">Correct :)</p>","",""
"2773","key","n","n","16.70373493975943","500","250","psychophysics","332","839641","0.0-332.0","5c925b0fb138fe0014e4036b","620a67344070d00caea8dd41","6","","","","","0","6"
"null","","","null","","","","html-keyboard-response","333","840144","0.0-333.0","5c925b0fb138fe0014e4036b","620a67344070d00caea8dd41","","","","","<p style=""color:darkgreen;font-size:24px;"">Correct :)</p>","",""
"4076","key","n","n","16.703282786885346","500","250","psychophysics","334","844225","0.0-334.0","5c925b0fb138fe0014e4036b","620a67344070d00caea8dd41","6","","","","","0","6"
"null","","","null","","","","html-keyboard-response","335","844726","0.0-335.0","5c925b0fb138fe0014e4036b","620a67344070d00caea8dd41","","","","","<p style=""color:darkgreen;font-size:24px;"">Correct :)</p>","",""
"3311","key","n","n","16.703587939698323","500","250","psychophysics","336","848042","0.0-336.0","5c925b0fb138fe0014e4036b","620a67344070d00caea8dd41","6","","","","","1","7"
"null","","","null","","","","html-keyboard-response","337","848545","0.0-337.0","5c925b0fb138fe0014e4036b","620a67344070d00caea8dd41","","","","","<p style=""color:darkgreen;font-size:24px;"">Correct :)</p>","",""
"2964","key","v","v","16.703578651685195","500","250","psychophysics","338","851514","0.0-338.0","5c925b0fb138fe0014e4036b","620a67344070d00caea8dd41","6","","","","","0","1"
"null","","","null","","","","html-keyboard-response","339","852016","0.0-339.0","5c925b0fb138fe0014e4036b","620a67344070d00caea8dd41","","","","","<p style=""color:darkgreen;font-size:24px;"">Correct :)</p>","",""
"2980","key","n","n","16.70343258426972","500","250","psychophysics","340","855001","0.0-340.0","5c925b0fb138fe0014e4036b","620a67344070d00caea8dd41","6","","","","","0","2"
"null","","","null","","","","html-keyboard-response","341","855503","0.0-341.0","5c925b0fb138fe0014e4036b","620a67344070d00caea8dd41","","","","","<p style=""color:darkgreen;font-size:24px;"">Correct :)</p>","",""
"3158","key","v","v","16.70344444444445","500","250","psychophysics","342","858666","0.0-342.0","5c925b0fb138fe0014e4036b","620a67344070d00caea8dd41","6","","","","","1","3"
"null","","","null","","","","html-keyboard-response","343","859168","0.0-343.0","5c925b0fb138fe0014e4036b","620a67344070d00caea8dd41","","","","","<p style=""color:darkgreen;font-size:24px;"">Correct :)</p>","",""
"3412","key","n","n","16.703465686274427","500","250","psychophysics","344","862585","0.0-344.0","5c925b0fb138fe0014e4036b","620a67344070d00caea8dd41","6","","","","","0","4"
"null","","","null","","","","html-keyboard-response","345","863087","0.0-345.0","5c925b0fb138fe0014e4036b","620a67344070d00caea8dd41","","","","","<p style=""color:darkgreen;font-size:24px;"">Correct :)</p>","",""
"2966","key","n","n","16.70380225988752","500","250","psychophysics","346","866057","0.0-346.0","5c925b0fb138fe0014e4036b","620a67344070d00caea8dd41","6","","","","","1","9"
"null","","","null","","","","html-keyboard-response","347","866559","0.0-347.0","5c925b0fb138fe0014e4036b","620a67344070d00caea8dd41","","","","","<p style=""color:darkgreen;font-size:24px;"">Correct :)</p>","",""
"3350","key","n","n","16.703363184079258","500","250","psychophysics","348","869914","0.0-348.0","5c925b0fb138fe0014e4036b","620a67344070d00caea8dd41","6","","","","","0","8"
"null","","","null","","","","html-keyboard-response","349","870416","0.0-349.0","5c925b0fb138fe0014e4036b","620a67344070d00caea8dd41","","","","","<p style=""color:darkgreen;font-size:24px;"">Correct :)</p>","",""
"2932","key","v","v","16.703738636363678","500","250","psychophysics","350","873353","0.0-350.0","5c925b0fb138fe0014e4036b","620a67344070d00caea8dd41","6","","","","","1","2"
"null","","","null","","","","html-keyboard-response","351","873855","0.0-351.0","5c925b0fb138fe0014e4036b","620a67344070d00caea8dd41","","","","","<p style=""color:darkgreen;font-size:24px;"">Correct :)</p>","",""
"3621","key","v","v","16.703502304147616","500","250","psychophysics","352","877481","0.0-352.0","5c925b0fb138fe0014e4036b","620a67344070d00caea8dd41","6","","","","","0","7"
"null","","","null","","","","html-keyboard-response","353","877983","0.0-353.0","5c925b0fb138fe0014e4036b","620a67344070d00caea8dd41","","","","","<p style=""color:darkgreen;font-size:24px;"">Correct :)</p>","",""
"3113","key","v","v","16.703449197860564","500","250","psychophysics","354","881098","0.0-354.0","5c925b0fb138fe0014e4036b","620a67344070d00caea8dd41","6","","","","","1","1"
"null","","","null","","","","html-keyboard-response","355","881600","0.0-355.0","5c925b0fb138fe0014e4036b","620a67344070d00caea8dd41","","","","","<p style=""color:darkgreen;font-size:24px;"">Correct :)</p>","",""
"4180","key","v","v","16.703291999999898","500","250","psychophysics","356","885785","0.0-356.0","5c925b0fb138fe0014e4036b","620a67344070d00caea8dd41","6","","","","","0","1"
"null","","","null","","","","html-keyboard-response","357","886287","0.0-357.0","5c925b0fb138fe0014e4036b","620a67344070d00caea8dd41","","","","","<p style=""color:darkgreen;font-size:24px;"">Correct :)</p>","",""
"3205","key","v","v","16.703833333333023","500","250","psychophysics","358","889497","0.0-358.0","5c925b0fb138fe0014e4036b","620a67344070d00caea8dd41","6","","","","","0","1"
"null","","","null","","","","html-keyboard-response","359","889999","0.0-359.0","5c925b0fb138fe0014e4036b","620a67344070d00caea8dd41","","","","","<p style=""color:darkgreen;font-size:24px;"">Correct :)</p>","",""
"3366","key","v","v","16.7033217821782","500","250","psychophysics","360","893371","0.0-360.0","5c925b0fb138fe0014e4036b","620a67344070d00caea8dd41","6","","","","","0","7"
"null","","","null","","","","html-keyboard-response","361","893882","0.0-361.0","5c925b0fb138fe0014e4036b","620a67344070d00caea8dd41","","","","","<p style=""color:darkgreen;font-size:24px;"">Correct :)</p>","",""
"3018","key","v","v","16.70372375690646","500","250","psychophysics","362","896905","0.0-362.0","5c925b0fb138fe0014e4036b","620a67344070d00caea8dd41","6","","","","","1","3"
"null","","","null","","","","html-keyboard-response","363","897407","0.0-363.0","5c925b0fb138fe0014e4036b","620a67344070d00caea8dd41","","","","","<p style=""color:darkgreen;font-size:24px;"">Correct :)</p>","",""
"3013","key","n","n","16.703779005525295","500","250","psychophysics","364","900425","0.0-364.0","5c925b0fb138fe0014e4036b","620a67344070d00caea8dd41","6","","","","","1","9"
"null","","","null","","","","html-keyboard-response","365","900927","0.0-365.0","5c925b0fb138fe0014e4036b","620a67344070d00caea8dd41","","","","","<p style=""color:darkgreen;font-size:24px;"">Correct :)</p>","",""
"3032","key","v","v","16.70338461538495","500","250","psychophysics","366","903963","0.0-366.0","5c925b0fb138fe0014e4036b","620a67344070d00caea8dd41","6","","","","","0","1"
"null","","","null","","","","html-keyboard-response","367","904466","0.0-367.0","5c925b0fb138fe0014e4036b","620a67344070d00caea8dd41","","","","","<p style=""color:darkgreen;font-size:24px;"">Correct :)</p>","",""
"3282","key","v","v","16.703472081218436","500","250","psychophysics","368","907754","0.0-368.0","5c925b0fb138fe0014e4036b","620a67344070d00caea8dd41","6","","","","","1","2"
"null","","","null","","","","html-keyboard-response","369","908256","0.0-369.0","5c925b0fb138fe0014e4036b","620a67344070d00caea8dd41","","","","","<p style=""color:darkgreen;font-size:24px;"">Correct :)</p>","",""
"3301","key","v","v","16.703646464646685","500","250","psychophysics","370","911562","0.0-370.0","5c925b0fb138fe0014e4036b","620a67344070d00caea8dd41","6","","","","","0","7"
"null","","","null","","","","html-keyboard-response","371","912064","0.0-371.0","5c925b0fb138fe0014e4036b","620a67344070d00caea8dd41","","","","","<p style=""color:darkgreen;font-size:24px;"">Correct :)</p>","",""
"3493","key","v","v","16.703444976076643","500","250","psychophysics","372","915562","0.0-372.0","5c925b0fb138fe0014e4036b","620a67344070d00caea8dd41","6","","","","","1","4"
"null","","","null","","","","html-keyboard-response","373","916065","0.0-373.0","5c925b0fb138fe0014e4036b","620a67344070d00caea8dd41","","","","","<p style=""color:darkgreen;font-size:24px;"">Correct :)</p>","",""
"2916","key","n","n","16.703731428571047","500","250","psychophysics","374","918986","0.0-374.0","5c925b0fb138fe0014e4036b","620a67344070d00caea8dd41","6","","","","","1","7"
"null","","","null","","","","html-keyboard-response","375","919489","0.0-375.0","5c925b0fb138fe0014e4036b","620a67344070d00caea8dd41","","","","","<p style=""color:darkgreen;font-size:24px;"">Correct :)</p>","",""
"3419","key","n","n","16.7036439024389","500","250","psychophysics","376","922914","0.0-376.0","5c925b0fb138fe0014e4036b","620a67344070d00caea8dd41","6","","","","","1","6"
"null","","","null","","","","html-keyboard-response","377","923415","0.0-377.0","5c925b0fb138fe0014e4036b","620a67344070d00caea8dd41","","","","","<p style=""color:darkgreen;font-size:24px;"">Correct :)</p>","",""
"2662","key","n","n","16.70373124999969","500","250","psychophysics","378","926082","0.0-378.0","5c925b0fb138fe0014e4036b","620a67344070d00caea8dd41","6","","","","","1","7"
"null","","","null","","","","html-keyboard-response","379","926584","0.0-379.0","5c925b0fb138fe0014e4036b","620a67344070d00caea8dd41","","","","","<p style=""color:darkgreen;font-size:24px;"">Correct :)</p>","",""
"3157","key","v","v","16.703719576719713","500","250","psychophysics","380","929746","0.0-380.0","5c925b0fb138fe0014e4036b","620a67344070d00caea8dd41","6","","","","","1","2"
"null","","","null","","","","html-keyboard-response","381","930247","0.0-381.0","5c925b0fb138fe0014e4036b","620a67344070d00caea8dd41","","","","","<p style=""color:darkgreen;font-size:24px;"">Correct :)</p>","",""
"4381","key","v","v","16.70339163498087","500","250","psychophysics","382","934634","0.0-382.0","5c925b0fb138fe0014e4036b","620a67344070d00caea8dd41","6","","","","","0","9"
"null","","","null","","","","html-keyboard-response","383","935136","0.0-383.0","5c925b0fb138fe0014e4036b","620a67344070d00caea8dd41","","","","","<p style=""color:darkgreen;font-size:24px;"">Correct :)</p>","",""
"3701","key","n","n","16.703454954955028","500","250","psychophysics","384","938843","0.0-384.0","5c925b0fb138fe0014e4036b","620a67344070d00caea8dd41","6","","","","","0","2"
"null","","","null","","","","html-keyboard-response","385","939344","0.0-385.0","5c925b0fb138fe0014e4036b","620a67344070d00caea8dd41","","","","","<p style=""color:darkgreen;font-size:24px;"">Correct :)</p>","",""
"3076","key","v","v","16.703603260869503","500","250","psychophysics","386","942426","0.0-386.0","5c925b0fb138fe0014e4036b","620a67344070d00caea8dd41","6","","","","","0","3"
"null","","","null","","","","html-keyboard-response","387","942929","0.0-387.0","5c925b0fb138fe0014e4036b","620a67344070d00caea8dd41","","","","","<p style=""color:darkgreen;font-size:24px;"">Correct :)</p>","",""
"3269","key","n","n","16.703387755102344","500","250","psychophysics","388","946203","0.0-388.0","5c925b0fb138fe0014e4036b","620a67344070d00caea8dd41","6","","","","","1","7"
"null","","","null","","","","html-keyboard-response","389","946705","0.0-389.0","5c925b0fb138fe0014e4036b","620a67344070d00caea8dd41","","","","","<p style=""color:darkgreen;font-size:24px;"">Correct :)</p>","",""
"2461","key","n","n","16.703823129252093","500","250","psychophysics","390","949171","0.0-390.0","5c925b0fb138fe0014e4036b","620a67344070d00caea8dd41","6","","","","","1","9"
"null","","","null","","","","html-keyboard-response","391","949672","0.0-391.0","5c925b0fb138fe0014e4036b","620a67344070d00caea8dd41","","","","","<p style=""color:darkgreen;font-size:24px;"">Correct :)</p>","",""
"3006","key","n","n","16.703883333333458","500","250","psychophysics","392","952682","0.0-392.0","5c925b0fb138fe0014e4036b","620a67344070d00caea8dd41","6","","","","","1","7"
"null","","","null","","","","html-keyboard-response","393","953185","0.0-393.0","5c925b0fb138fe0014e4036b","620a67344070d00caea8dd41","","","","","<p style=""color:darkgreen;font-size:24px;"">Correct :)</p>","",""
"3284","key","v","v","16.703831632653067","500","250","psychophysics","394","956474","0.0-394.0","5c925b0fb138fe0014e4036b","620a67344070d00caea8dd41","6","","","","","0","3"
"null","","","null","","","","html-keyboard-response","395","956975","0.0-395.0","5c925b0fb138fe0014e4036b","620a67344070d00caea8dd41","","","","","<p style=""color:darkgreen;font-size:24px;"">Correct :)</p>","",""
"4426","","","v","","","","html-keyboard-response","396","961403","0.0-396.0","5c925b0fb138fe0014e4036b","620a67344070d00caea8dd41","","","","","<p> Last set of trials.  Here, the tasks are going to switch once again.  We are going to do 50 of these.  And then you are done with the experiment.  </p>  <br><br>  Ready? (press v or n)","",""
"3650","key","v","v","16.709633027522724","500","250","psychophysics","397","965058","0.0-397.0","5c925b0fb138fe0014e4036b","620a67344070d00caea8dd41","7","","","","","0","7"
"null","","","null","","","","html-keyboard-response","398","965559","0.0-398.0","5c925b0fb138fe0014e4036b","620a67344070d00caea8dd41","","","","","<p style=""color:darkgreen;font-size:24px;"">Correct :)</p>","",""
"3267","key","n","n","16.70387244897975","500","250","psychophysics","399","968841","0.0-399.0","5c925b0fb138fe0014e4036b","620a67344070d00caea8dd41","7","","","","","0","6"
"null","","","null","","","","html-keyboard-response","400","969344","0.0-400.0","5c925b0fb138fe0014e4036b","620a67344070d00caea8dd41","","","","","<p style=""color:darkgreen;font-size:24px;"">Correct :)</p>","",""
"3125","key","v","v","16.703951871657576","500","250","psychophysics","401","972475","0.0-401.0","5c925b0fb138fe0014e4036b","620a67344070d00caea8dd41","7","","","","","0","3"
"null","","","null","","","","html-keyboard-response","402","972978","0.0-402.0","5c925b0fb138fe0014e4036b","620a67344070d00caea8dd41","","","","","<p style=""color:darkgreen;font-size:24px;"">Correct :)</p>","",""
"3138","key","n","n","16.703537234042628","500","250","psychophysics","403","976121","0.0-403.0","5c925b0fb138fe0014e4036b","620a67344070d00caea8dd41","7","","","","","1","7"
"null","","","null","","","","html-keyboard-response","404","976623","0.0-404.0","5c925b0fb138fe0014e4036b","620a67344070d00caea8dd41","","","","","<p style=""color:darkgreen;font-size:24px;"">Correct :)</p>","",""
"3246","key","v","v","16.70378350515456","500","250","psychophysics","405","979874","0.0-405.0","5c925b0fb138fe0014e4036b","620a67344070d00caea8dd41","7","","","","","0","7"
"null","","","null","","","","html-keyboard-response","406","980380","0.0-406.0","5c925b0fb138fe0014e4036b","620a67344070d00caea8dd41","","","","","<p style=""color:darkgreen;font-size:24px;"">Correct :)</p>","",""
"3115","key","v","v","16.70328877005355","500","250","psychophysics","407","983500","0.0-407.0","5c925b0fb138fe0014e4036b","620a67344070d00caea8dd41","7","","","","","1","1"
"null","","","null","","","","html-keyboard-response","408","984002","0.0-408.0","5c925b0fb138fe0014e4036b","620a67344070d00caea8dd41","","","","","<p style=""color:darkgreen;font-size:24px;"">Correct :)</p>","",""
"3403","key","n","n","16.703612745098095","500","250","psychophysics","409","987410","0.0-409.0","5c925b0fb138fe0014e4036b","620a67344070d00caea8dd41","7","","","","","0","4"
"null","","","null","","","","html-keyboard-response","410","987912","0.0-410.0","5c925b0fb138fe0014e4036b","620a67344070d00caea8dd41","","","","","<p style=""color:darkgreen;font-size:24px;"">Correct :)</p>","",""
"2996","key","v","v","16.70329050279376","500","250","psychophysics","411","990914","0.0-411.0","5c925b0fb138fe0014e4036b","620a67344070d00caea8dd41","7","","","","","0","3"
"null","","","null","","","","html-keyboard-response","412","991416","0.0-412.0","5c925b0fb138fe0014e4036b","620a67344070d00caea8dd41","","","","","<p style=""color:darkgreen;font-size:24px;"">Correct :)</p>","",""
"3925","key","n","n","16.70334893617026","500","250","psychophysics","413","995346","0.0-413.0","5c925b0fb138fe0014e4036b","620a67344070d00caea8dd41","7","","","","","0","2"
"null","","","null","","","","html-keyboard-response","414","995848","0.0-414.0","5c925b0fb138fe0014e4036b","620a67344070d00caea8dd41","","","","","<p style=""color:darkgreen;font-size:24px;"">Correct :)</p>","",""
"4188","key","n","n","16.70334262948203","500","250","psychophysics","415","1000041","0.0-415.0","5c925b0fb138fe0014e4036b","620a67344070d00caea8dd41","7","","","","","0","6"
"null","","","null","","","","html-keyboard-response","416","1000555","0.0-416.0","5c925b0fb138fe0014e4036b","620a67344070d00caea8dd41","","","","","<p style=""color:darkgreen;font-size:24px;"">Correct :)</p>","",""
"3745","key","v","v","16.703441964285698","500","250","psychophysics","417","1004305","0.0-417.0","5c925b0fb138fe0014e4036b","620a67344070d00caea8dd41","7","","","","","0","3"
"null","","","null","","","","html-keyboard-response","418","1004807","0.0-418.0","5c925b0fb138fe0014e4036b","620a67344070d00caea8dd41","","","","","<p style=""color:darkgreen;font-size:24px;"">Correct :)</p>","",""
"3085","key","v","v","16.703464864864568","500","250","psychophysics","419","1007898","0.0-419.0","5c925b0fb138fe0014e4036b","620a67344070d00caea8dd41","7","","","","","0","3"
"null","","","null","","","","html-keyboard-response","420","1008400","0.0-420.0","5c925b0fb138fe0014e4036b","620a67344070d00caea8dd41","","","","","<p style=""color:darkgreen;font-size:24px;"">Correct :)</p>","",""
"4396","key","v","v","16.766977186311664","500","250","psychophysics","421","1012801","0.0-421.0","5c925b0fb138fe0014e4036b","620a67344070d00caea8dd41","7","","","","","0","1"
"null","","","null","","","","html-keyboard-response","422","1013304","0.0-422.0","5c925b0fb138fe0014e4036b","620a67344070d00caea8dd41","","","","","<p style=""color:darkgreen;font-size:24px;"">Correct :)</p>","",""
"6374","key","v","v","16.70321989528797","500","250","psychophysics","423","1019682","0.0-423.0","5c925b0fb138fe0014e4036b","620a67344070d00caea8dd41","7","","","","","1","1"
"null","","","null","","","","html-keyboard-response","424","1020184","0.0-424.0","5c925b0fb138fe0014e4036b","620a67344070d00caea8dd41","","","","","<p style=""color:darkgreen;font-size:24px;"">Correct :)</p>","",""
"8276","key","n","n","16.703048387096892","500","250","psychophysics","425","1028465","0.0-425.0","5c925b0fb138fe0014e4036b","620a67344070d00caea8dd41","7","","","","","0","6"
"null","","","null","","","","html-keyboard-response","426","1028967","0.0-426.0","5c925b0fb138fe0014e4036b","620a67344070d00caea8dd41","","","","","<p style=""color:darkgreen;font-size:24px;"">Correct :)</p>","",""
"3535","key","v","v","16.703863207546814","500","250","psychophysics","427","1032506","0.0-427.0","5c925b0fb138fe0014e4036b","620a67344070d00caea8dd41","7","","","","","0","1"
"null","","","null","","","","html-keyboard-response","428","1033009","0.0-428.0","5c925b0fb138fe0014e4036b","620a67344070d00caea8dd41","","","","","<p style=""color:darkgreen;font-size:24px;"">Correct :)</p>","",""
"4315","key","v","v","16.703472868216767","500","250","psychophysics","429","1037329","0.0-429.0","5c925b0fb138fe0014e4036b","620a67344070d00caea8dd41","7","","","","","1","4"
"null","","","null","","","","html-keyboard-response","430","1037831","0.0-430.0","5c925b0fb138fe0014e4036b","620a67344070d00caea8dd41","","","","","<p style=""color:darkgreen;font-size:24px;"">Correct :)</p>","",""
"4109","key","v","v","16.703211382113782","500","250","psychophysics","431","1041945","0.0-431.0","5c925b0fb138fe0014e4036b","620a67344070d00caea8dd41","7","","","","","1","2"
"null","","","null","","","","html-keyboard-response","432","1042447","0.0-432.0","5c925b0fb138fe0014e4036b","620a67344070d00caea8dd41","","","","","<p style=""color:darkgreen;font-size:24px;"">Correct :)</p>","",""
"3278","key","v","v","16.703433673469497","500","250","psychophysics","433","1045730","0.0-433.0","5c925b0fb138fe0014e4036b","620a67344070d00caea8dd41","7","","","","","1","4"
"null","","","null","","","","html-keyboard-response","434","1046245","0.0-434.0","5c925b0fb138fe0014e4036b","620a67344070d00caea8dd41","","","","","<p style=""color:darkgreen;font-size:24px;"">Correct :)</p>","",""
"3071","key","n","n","16.703527173913166","500","250","psychophysics","435","1049321","0.0-435.0","5c925b0fb138fe0014e4036b","620a67344070d00caea8dd41","7","","","","","1","6"
"null","","","null","","","","html-keyboard-response","436","1049824","0.0-436.0","5c925b0fb138fe0014e4036b","620a67344070d00caea8dd41","","","","","<p style=""color:darkgreen;font-size:24px;"">Correct :)</p>","",""
"3340","key","v","v","16.703660000000383","500","250","psychophysics","437","1053169","0.0-437.0","5c925b0fb138fe0014e4036b","620a67344070d00caea8dd41","7","","","","","1","3"
"null","","","null","","","","html-keyboard-response","438","1053671","0.0-438.0","5c925b0fb138fe0014e4036b","620a67344070d00caea8dd41","","","","","<p style=""color:darkgreen;font-size:24px;"">Correct :)</p>","",""
"3446","key","v","v","16.703359223300936","500","250","psychophysics","439","1057122","0.0-439.0","5c925b0fb138fe0014e4036b","620a67344070d00caea8dd41","7","","","","","1","3"
"null","","","null","","","","html-keyboard-response","440","1057624","0.0-440.0","5c925b0fb138fe0014e4036b","620a67344070d00caea8dd41","","","","","<p style=""color:darkgreen;font-size:24px;"">Correct :)</p>","",""
"4869","key","v","v","16.703316151202877","500","250","psychophysics","441","1062497","0.0-441.0","5c925b0fb138fe0014e4036b","620a67344070d00caea8dd41","7","","","","","1","4"
"null","","","null","","","","html-keyboard-response","442","1062999","0.0-442.0","5c925b0fb138fe0014e4036b","620a67344070d00caea8dd41","","","","","<p style=""color:darkgreen;font-size:24px;"">Correct :)</p>","",""
"3381","key","v","v","16.703566502463165","500","250","psychophysics","443","1066385","0.0-443.0","5c925b0fb138fe0014e4036b","620a67344070d00caea8dd41","7","","","","","1","4"
"null","","","null","","","","html-keyboard-response","444","1066887","0.0-444.0","5c925b0fb138fe0014e4036b","620a67344070d00caea8dd41","","","","","<p style=""color:darkgreen;font-size:24px;"">Correct :)</p>","",""
"3079","key","v","v","16.703578378378438","500","250","psychophysics","445","1069971","0.0-445.0","5c925b0fb138fe0014e4036b","620a67344070d00caea8dd41","7","","","","","1","1"
"null","","","null","","","","html-keyboard-response","446","1070473","0.0-446.0","5c925b0fb138fe0014e4036b","620a67344070d00caea8dd41","","","","","<p style=""color:darkgreen;font-size:24px;"">Correct :)</p>","",""
"3059","key","n","n","16.703464480875255","500","250","psychophysics","447","1073537","0.0-447.0","5c925b0fb138fe0014e4036b","620a67344070d00caea8dd41","7","","","","","0","6"
"null","","","null","","","","html-keyboard-response","448","1074039","0.0-448.0","5c925b0fb138fe0014e4036b","620a67344070d00caea8dd41","","","","","<p style=""color:darkgreen;font-size:24px;"">Correct :)</p>","",""
"3098","key","v","v","16.70357219251321","500","250","psychophysics","449","1077153","0.0-449.0","5c925b0fb138fe0014e4036b","620a67344070d00caea8dd41","7","","","","","0","7"
"null","","","null","","","","html-keyboard-response","450","1077656","0.0-450.0","5c925b0fb138fe0014e4036b","620a67344070d00caea8dd41","","","","","<p style=""color:darkgreen;font-size:24px;"">Correct :)</p>","",""
"7173","key","n","n","16.70300930232557","500","250","psychophysics","451","1084835","0.0-451.0","5c925b0fb138fe0014e4036b","620a67344070d00caea8dd41","7","","","","","0","6"
"null","","","null","","","","html-keyboard-response","452","1085338","0.0-452.0","5c925b0fb138fe0014e4036b","620a67344070d00caea8dd41","","","","","<p style=""color:darkgreen;font-size:24px;"">Correct :)</p>","",""
"3114","key","v","v","16.703494623655164","500","250","psychophysics","453","1088457","0.0-453.0","5c925b0fb138fe0014e4036b","620a67344070d00caea8dd41","7","","","","","0","3"
"null","","","null","","","","html-keyboard-response","454","1088961","0.0-454.0","5c925b0fb138fe0014e4036b","620a67344070d00caea8dd41","","","","","<p style=""color:darkgreen;font-size:24px;"">Correct :)</p>","",""
"3691","key","v","v","16.703479638009235","500","250","psychophysics","455","1092657","0.0-455.0","5c925b0fb138fe0014e4036b","620a67344070d00caea8dd41","7","","","","","1","2"
"null","","","null","","","","html-keyboard-response","456","1093158","0.0-456.0","5c925b0fb138fe0014e4036b","620a67344070d00caea8dd41","","","","","<p style=""color:darkgreen;font-size:24px;"">Correct :)</p>","",""
"3470","key","n","n","16.70349038461483","500","250","psychophysics","457","1096634","0.0-457.0","5c925b0fb138fe0014e4036b","620a67344070d00caea8dd41","7","","","","","1","6"
"null","","","null","","","","html-keyboard-response","458","1097136","0.0-458.0","5c925b0fb138fe0014e4036b","620a67344070d00caea8dd41","","","","","<p style=""color:darkgreen;font-size:24px;"">Correct :)</p>","",""
"3262","key","v","v","16.703301020408507","500","250","psychophysics","459","1100402","0.0-459.0","5c925b0fb138fe0014e4036b","620a67344070d00caea8dd41","7","","","","","0","3"
"null","","","null","","","","html-keyboard-response","460","1100904","0.0-460.0","5c925b0fb138fe0014e4036b","620a67344070d00caea8dd41","","","","","<p style=""color:darkgreen;font-size:24px;"">Correct :)</p>","",""
"3749","key","v","v","16.703410714285774","500","250","psychophysics","461","1104657","0.0-461.0","5c925b0fb138fe0014e4036b","620a67344070d00caea8dd41","7","","","","","1","2"
"null","","","null","","","","html-keyboard-response","462","1105159","0.0-462.0","5c925b0fb138fe0014e4036b","620a67344070d00caea8dd41","","","","","<p style=""color:darkgreen;font-size:24px;"">Correct :)</p>","",""
"3710","key","v","v","16.778752252251866","500","250","psychophysics","463","1108874","0.0-463.0","5c925b0fb138fe0014e4036b","620a67344070d00caea8dd41","7","","","","","1","1"
"null","","","null","","","","html-keyboard-response","464","1109376","0.0-464.0","5c925b0fb138fe0014e4036b","620a67344070d00caea8dd41","","","","","<p style=""color:darkgreen;font-size:24px;"">Correct :)</p>","",""
"3781","key","n","n","16.703256637168085","500","250","psychophysics","465","1113161","0.0-465.0","5c925b0fb138fe0014e4036b","620a67344070d00caea8dd41","7","","","","","0","6"
"null","","","null","","","","html-keyboard-response","466","1113670","0.0-466.0","5c925b0fb138fe0014e4036b","620a67344070d00caea8dd41","","","","","<p style=""color:darkgreen;font-size:24px;"">Correct :)</p>","",""
"3253","key","v","v","16.703599999999053","500","250","psychophysics","467","1116929","0.0-467.0","5c925b0fb138fe0014e4036b","620a67344070d00caea8dd41","7","","","","","1","3"
"null","","","null","","","","html-keyboard-response","468","1117431","0.0-468.0","5c925b0fb138fe0014e4036b","620a67344070d00caea8dd41","","","","","<p style=""color:darkgreen;font-size:24px;"">Correct :)</p>","",""
"3269","key","v","v","16.703551020409094","500","250","psychophysics","469","1120706","0.0-469.0","5c925b0fb138fe0014e4036b","620a67344070d00caea8dd41","7","","","","","0","3"
"null","","","null","","","","html-keyboard-response","470","1121208","0.0-470.0","5c925b0fb138fe0014e4036b","620a67344070d00caea8dd41","","","","","<p style=""color:darkgreen;font-size:24px;"">Correct :)</p>","",""
"3236","key","v","v","16.703788659794583","500","250","psychophysics","471","1124449","0.0-471.0","5c925b0fb138fe0014e4036b","620a67344070d00caea8dd41","7","","","","","0","1"
"null","","","null","","","","html-keyboard-response","472","1124951","0.0-472.0","5c925b0fb138fe0014e4036b","620a67344070d00caea8dd41","","","","","<p style=""color:darkgreen;font-size:24px;"">Correct :)</p>","",""
"3653","key","v","v","16.779999999999102","500","250","psychophysics","473","1128609","0.0-473.0","5c925b0fb138fe0014e4036b","620a67344070d00caea8dd41","7","","","","","0","3"
"null","","","null","","","","html-keyboard-response","474","1129111","0.0-474.0","5c925b0fb138fe0014e4036b","620a67344070d00caea8dd41","","","","","<p style=""color:darkgreen;font-size:24px;"">Correct :)</p>","",""
"3982","key","v","v","16.703441176470566","500","250","psychophysics","475","1133098","0.0-475.0","5c925b0fb138fe0014e4036b","620a67344070d00caea8dd41","7","","","","","1","2"
"null","","","null","","","","html-keyboard-response","476","1133600","0.0-476.0","5c925b0fb138fe0014e4036b","620a67344070d00caea8dd41","","","","","<p style=""color:darkgreen;font-size:24px;"">Correct :)</p>","",""
"7980","key","v","v","16.703054393305557","500","250","psychophysics","477","1141585","0.0-477.0","5c925b0fb138fe0014e4036b","620a67344070d00caea8dd41","7","","","","","1","2"
"null","","","null","","","","html-keyboard-response","478","1142087","0.0-478.0","5c925b0fb138fe0014e4036b","620a67344070d00caea8dd41","","","","","<p style=""color:darkgreen;font-size:24px;"">Correct :)</p>","",""
"3270","key","v","v","16.703535714285323","500","250","psychophysics","479","1145362","0.0-479.0","5c925b0fb138fe0014e4036b","620a67344070d00caea8dd41","7","","","","","1","3"
"null","","","null","","","","html-keyboard-response","480","1145875","0.0-480.0","5c925b0fb138fe0014e4036b","620a67344070d00caea8dd41","","","","","<p style=""color:darkgreen;font-size:24px;"">Correct :)</p>","",""
"3064","key","n","n","16.703298913042882","500","250","psychophysics","481","1148944","0.0-481.0","5c925b0fb138fe0014e4036b","620a67344070d00caea8dd41","7","","","","","0","6"
"null","","","null","","","","html-keyboard-response","482","1149447","0.0-482.0","5c925b0fb138fe0014e4036b","620a67344070d00caea8dd41","","","","","<p style=""color:darkgreen;font-size:24px;"">Correct :)</p>","",""
"4596","key","v","v","16.7035200000004","500","250","psychophysics","483","1154049","0.0-483.0","5c925b0fb138fe0014e4036b","620a67344070d00caea8dd41","7","","","","","1","2"
"null","","","null","","","","html-keyboard-response","484","1154552","0.0-484.0","5c925b0fb138fe0014e4036b","620a67344070d00caea8dd41","","","","","<p style=""color:darkgreen;font-size:24px;"">Correct :)</p>","",""
"3877","key","v","v","16.703431034482744","500","250","psychophysics","485","1158434","0.0-485.0","5c925b0fb138fe0014e4036b","620a67344070d00caea8dd41","7","","","","","1","2"
"null","","","null","","","","html-keyboard-response","486","1158936","0.0-486.0","5c925b0fb138fe0014e4036b","620a67344070d00caea8dd41","","","","","<p style=""color:darkgreen;font-size:24px;"">Correct :)</p>","",""
"3349","key","v","v","16.70354228855727","500","250","psychophysics","487","1162289","0.0-487.0","5c925b0fb138fe0014e4036b","620a67344070d00caea8dd41","7","","","","","1","1"
"null","","","null","","","","html-keyboard-response","488","1162791","0.0-488.0","5c925b0fb138fe0014e4036b","620a67344070d00caea8dd41","","","","","<p style=""color:darkgreen;font-size:24px;"">Correct :)</p>","",""
"3460","key","v","v","16.70291787439593","500","250","psychophysics","489","1166256","0.0-489.0","5c925b0fb138fe0014e4036b","620a67344070d00caea8dd41","7","","","","","0","3"
"null","","","null","","","","html-keyboard-response","490","1166757","0.0-490.0","5c925b0fb138fe0014e4036b","620a67344070d00caea8dd41","","","","","<p style=""color:darkgreen;font-size:24px;"">Correct :)</p>","",""
"4234","key","n","n","16.70335826771719","500","250","psychophysics","491","1170994","0.0-491.0","5c925b0fb138fe0014e4036b","620a67344070d00caea8dd41","7","","","","","1","6"
"null","","","null","","","","html-keyboard-response","492","1171497","0.0-492.0","5c925b0fb138fe0014e4036b","620a67344070d00caea8dd41","","","","","<p style=""color:darkgreen;font-size:24px;"">Correct :)</p>","",""
"3012","key","n","n","16.703403314917725","500","250","psychophysics","493","1174513","0.0-493.0","5c925b0fb138fe0014e4036b","620a67344070d00caea8dd41","7","","","","","1","7"
"null","","","null","","","","html-keyboard-response","494","1175016","0.0-494.0","5c925b0fb138fe0014e4036b","620a67344070d00caea8dd41","","","","","<p style=""color:darkgreen;font-size:24px;"">Correct :)</p>","",""
"3668","key","v","v","16.703718181818047","500","250","psychophysics","495","1178689","0.0-495.0","5c925b0fb138fe0014e4036b","620a67344070d00caea8dd41","7","","","","","0","7"
"null","","","null","","","","html-keyboard-response","496","1179191","0.0-496.0","5c925b0fb138fe0014e4036b","620a67344070d00caea8dd41","","","","","<p style=""color:darkgreen;font-size:24px;"">Correct :)</p>","",""
