"rt","response_type","key_press","response","avg_frame_time","center_x","center_y","trial_type","trial_index","time_elapsed","internal_node_id","pid","sid","phase","guide","targ","resp","stimulus","is5","stim"
"333404","key"," "," ","370.48470000000003","500","250","psychophysics","0","333436","0.0-0.0","5d38dd61cd5594000137c4be","6213d34ea824646cc77cdaac","","","","","","",""
"3885","key"," "," ","16.672685344827688","500","250","psychophysics","1","337325","0.0-1.0","5d38dd61cd5594000137c4be","6213d34ea824646cc77cdaac","","","","","","",""
"1729","key"," "," ","16.67243689320387","500","250","psychophysics","2","339056","0.0-2.0","5d38dd61cd5594000137c4be","6213d34ea824646cc77cdaac","","","","","","",""
"877","key"," "," ","16.672346153846146","500","250","psychophysics","3","339937","0.0-3.0","5d38dd61cd5594000137c4be","6213d34ea824646cc77cdaac","","","","","","",""
"2836","key"," "," ","16.672579881656617","500","250","psychophysics","4","342775","0.0-4.0","5d38dd61cd5594000137c4be","6213d34ea824646cc77cdaac","","","","","","",""
"5166","key"," "," ","16.672614886731356","500","250","psychophysics","5","347943","0.0-5.0","5d38dd61cd5594000137c4be","6213d34ea824646cc77cdaac","","","","","","",""
"2562","key"," "," ","16.672594771241872","500","250","psychophysics","6","350508","0.0-6.0","5d38dd61cd5594000137c4be","6213d34ea824646cc77cdaac","","","","","","",""
"2658","key"," "," ","16.67259748427691","500","250","psychophysics","7","353168","0.0-7.0","5d38dd61cd5594000137c4be","6213d34ea824646cc77cdaac","","","","","","",""
"4714","key"," "," ","16.6726205673759","500","250","psychophysics","8","357886","0.0-8.0","5d38dd61cd5594000137c4be","6213d34ea824646cc77cdaac","0","0","40","40","","",""
"1216","key"," "," ","16.673333333333076","500","250","psychophysics","9","359107","0.0-9.0","5d38dd61cd5594000137c4be","6213d34ea824646cc77cdaac","","","","","","",""
"2008","key"," "," ","16.672428571428817","500","250","psychophysics","10","361118","0.0-10.0","5d38dd61cd5594000137c4be","6213d34ea824646cc77cdaac","","","","","","",""
"1394","key"," "," ","16.67263855421649","500","250","psychophysics","11","362516","0.0-11.0","5d38dd61cd5594000137c4be","6213d34ea824646cc77cdaac","","","","","","",""
"1070","key"," "," ","16.672031250000146","500","250","psychophysics","12","363588","0.0-12.0","5d38dd61cd5594000137c4be","6213d34ea824646cc77cdaac","","","","","","",""
"756","key"," "," ","16.672818181818002","500","250","psychophysics","13","364346","0.0-13.0","5d38dd61cd5594000137c4be","6213d34ea824646cc77cdaac","","","","","","",""
"1407","key"," "," ","16.672845238095586","500","250","psychophysics","14","365755","0.0-14.0","5d38dd61cd5594000137c4be","6213d34ea824646cc77cdaac","","","","","","",""
"1444","key"," "," ","16.672576470588854","500","250","psychophysics","15","367202","0.0-15.0","5d38dd61cd5594000137c4be","6213d34ea824646cc77cdaac","","","","","","",""
"604","key"," "," ","16.672027777778567","500","250","psychophysics","16","367809","0.0-16.0","5d38dd61cd5594000137c4be","6213d34ea824646cc77cdaac","","","","","","",""
"6590","key"," "," ","16.67271573604058","500","250","psychophysics","17","374401","0.0-17.0","5d38dd61cd5594000137c4be","6213d34ea824646cc77cdaac","1","0","39","41","","",""
"4166","key"," "," ","16.672618473895657","500","250","psychophysics","18","378570","0.0-18.0","5d38dd61cd5594000137c4be","6213d34ea824646cc77cdaac","1","5","30","30","","",""
"4328","key"," "," ","16.67261003861006","500","250","psychophysics","19","382901","0.0-19.0","5d38dd61cd5594000137c4be","6213d34ea824646cc77cdaac","1","0","29","29","","",""
"5121","key"," "," ","16.67266993464052","500","250","psychophysics","20","388025","0.0-20.0","5d38dd61cd5594000137c4be","6213d34ea824646cc77cdaac","1","5","56","51","","",""
"6251","key"," "," ","16.67263368983958","500","250","psychophysics","21","394277","0.0-21.0","5d38dd61cd5594000137c4be","6213d34ea824646cc77cdaac","1","0","52","55","","",""
"2436","key"," "," ","16.672575342465727","500","250","psychophysics","22","396716","0.0-22.0","5d38dd61cd5594000137c4be","6213d34ea824646cc77cdaac","1","5","31","35","","",""
"2514","key"," "," ","16.67242000000008","500","250","psychophysics","23","399235","0.0-23.0","5d38dd61cd5594000137c4be","6213d34ea824646cc77cdaac","1","0","31","32","","",""
"2218","key"," "," ","16.673181818181714","500","250","psychophysics","24","401456","0.0-24.0","5d38dd61cd5594000137c4be","6213d34ea824646cc77cdaac","1","5","23","24","","",""
"4544","key"," "," ","16.67279044117651","500","250","psychophysics","25","406004","0.0-25.0","5d38dd61cd5594000137c4be","6213d34ea824646cc77cdaac","1","0","44","49","","",""
"4573","key"," "," ","16.672626373626507","500","250","psychophysics","26","410581","0.0-26.0","5d38dd61cd5594000137c4be","6213d34ea824646cc77cdaac","1","5","43","45","","",""
"3981","key"," "," ","16.672672268907647","500","250","psychophysics","27","414564","0.0-27.0","5d38dd61cd5594000137c4be","6213d34ea824646cc77cdaac","1","0","36","41","","",""
"3315","key"," "," ","16.67275252525261","500","250","psychophysics","28","417882","0.0-28.0","5d38dd61cd5594000137c4be","6213d34ea824646cc77cdaac","1","5","49","52","","",""
"3381","key"," "," ","16.672648514851485","500","250","psychophysics","29","421267","0.0-29.0","5d38dd61cd5594000137c4be","6213d34ea824646cc77cdaac","1","0","48","51","","",""
"3813","key"," "," ","16.672583333333534","500","250","psychophysics","30","425083","0.0-30.0","5d38dd61cd5594000137c4be","6213d34ea824646cc77cdaac","1","5","30","34","","",""
"3187","key"," "," ","16.67264210526329","500","250","psychophysics","31","428273","0.0-31.0","5d38dd61cd5594000137c4be","6213d34ea824646cc77cdaac","1","0","27","32","","",""
"3730","key"," "," ","16.672484304932638","500","250","psychophysics","32","432008","0.0-32.0","5d38dd61cd5594000137c4be","6213d34ea824646cc77cdaac","1","5","21","22","","",""
"3551","key"," "," ","16.6725849056606","500","250","psychophysics","33","435560","0.0-33.0","5d38dd61cd5594000137c4be","6213d34ea824646cc77cdaac","1","0","36","40","","",""
"2406","key"," "," ","16.672666666666675","500","250","psychophysics","34","437970","0.0-34.0","5d38dd61cd5594000137c4be","6213d34ea824646cc77cdaac","1","5","24","28","","",""
"3306","key"," "," ","16.672583756345233","500","250","psychophysics","35","441278","0.0-35.0","5d38dd61cd5594000137c4be","6213d34ea824646cc77cdaac","1","0","43","43","","",""
"1977","key"," "," ","16.672508474576023","500","250","psychophysics","36","443258","0.0-36.0","5d38dd61cd5594000137c4be","6213d34ea824646cc77cdaac","1","5","39","42","","",""
"2226","key"," "," ","16.67249624060136","500","250","psychophysics","37","445486","0.0-37.0","5d38dd61cd5594000137c4be","6213d34ea824646cc77cdaac","","","","","","",""
"3220","key"," "," ","16.67259374999988","500","250","psychophysics","38","448708","0.0-38.0","5d38dd61cd5594000137c4be","6213d34ea824646cc77cdaac","","","","","","",""
"678","key"," "," ","16.672874999999475","500","250","psychophysics","39","449389","0.0-39.0","5d38dd61cd5594000137c4be","6213d34ea824646cc77cdaac","","","","","","",""
"4212","key"," "," ","16.672678571428396","500","250","psychophysics","40","453603","0.0-40.0","5d38dd61cd5594000137c4be","6213d34ea824646cc77cdaac","2","0","50","53","","",""
"1818","key"," "," ","16.672398148148204","500","250","psychophysics","41","455425","0.0-41.0","5d38dd61cd5594000137c4be","6213d34ea824646cc77cdaac","","","","","","",""
"3809","key"," "," ","16.67263876651988","500","250","psychophysics","42","459235","0.0-42.0","5d38dd61cd5594000137c4be","6213d34ea824646cc77cdaac","2","0","40","46","","",""
"1338","key"," "," ","16.67242499999993","500","250","psychophysics","43","460576","0.0-43.0","5d38dd61cd5594000137c4be","6213d34ea824646cc77cdaac","","","","","","",""
"3741","key"," "," ","16.67264125560543","500","250","psychophysics","44","464319","0.0-44.0","5d38dd61cd5594000137c4be","6213d34ea824646cc77cdaac","2","0","33","35","","",""
"978","key"," "," ","16.672206896551934","500","250","psychophysics","45","465300","0.0-45.0","5d38dd61cd5594000137c4be","6213d34ea824646cc77cdaac","","","","","","",""
"3702","key"," "," ","16.672642533936564","500","250","psychophysics","46","469004","0.0-46.0","5d38dd61cd5594000137c4be","6213d34ea824646cc77cdaac","2","0","28","28","","",""
"924","key"," "," ","16.672254545454315","500","250","psychophysics","47","469930","0.0-47.0","5d38dd61cd5594000137c4be","6213d34ea824646cc77cdaac","","","","","","",""
"3649","key"," "," ","16.67268348623862","500","250","psychophysics","48","473581","0.0-48.0","5d38dd61cd5594000137c4be","6213d34ea824646cc77cdaac","2","0","31","33","","",""
"789","key"," "," ","16.67276086956617","500","250","psychophysics","49","474373","0.0-49.0","5d38dd61cd5594000137c4be","6213d34ea824646cc77cdaac","","","","","","",""
"5109","key"," "," ","16.672571895424745","500","250","psychophysics","50","479484","0.0-50.0","5d38dd61cd5594000137c4be","6213d34ea824646cc77cdaac","2","0","45","46","","",""
"955","key"," "," ","16.67335714285686","500","250","psychophysics","51","480442","0.0-51.0","5d38dd61cd5594000137c4be","6213d34ea824646cc77cdaac","","","","","","",""
"3401","key"," "," ","16.672389162561554","500","250","psychophysics","52","483845","0.0-52.0","5d38dd61cd5594000137c4be","6213d34ea824646cc77cdaac","2","0","41","42","","",""
"759","key"," "," ","16.67366666666672","500","250","psychophysics","53","484609","0.0-53.0","5d38dd61cd5594000137c4be","6213d34ea824646cc77cdaac","","","","","","",""
"4366","key"," "," ","16.672551724138014","500","250","psychophysics","54","488978","0.0-54.0","5d38dd61cd5594000137c4be","6213d34ea824646cc77cdaac","2","0","31","34","","",""
"834","key"," "," ","16.672419999999693","500","250","psychophysics","55","489816","0.0-55.0","5d38dd61cd5594000137c4be","6213d34ea824646cc77cdaac","","","","","","",""
"4007","key"," "," ","16.67269037656898","500","250","psychophysics","56","493826","0.0-56.0","5d38dd61cd5594000137c4be","6213d34ea824646cc77cdaac","2","0","27","30","","",""
"768","key"," "," ","16.672844444444248","500","250","psychophysics","57","494597","0.0-57.0","5d38dd61cd5594000137c4be","6213d34ea824646cc77cdaac","","","","","","",""
"3066","key"," "," ","16.672617486338996","500","250","psychophysics","58","497666","0.0-58.0","5d38dd61cd5594000137c4be","6213d34ea824646cc77cdaac","2","0","56","58","","",""
"795","key"," "," ","16.672234042552596","500","250","psychophysics","59","498464","0.0-59.0","5d38dd61cd5594000137c4be","6213d34ea824646cc77cdaac","","","","","","",""
"2968","key"," "," ","16.67188700564971","500","250","psychophysics","60","501434","0.0-60.0","5d38dd61cd5594000137c4be","6213d34ea824646cc77cdaac","2","0","45","47","","",""
"705","key"," "," ","16.672309523810068","500","250","psychophysics","61","502142","0.0-61.0","5d38dd61cd5594000137c4be","6213d34ea824646cc77cdaac","","","","","","",""
"3967","key"," "," ","16.672586497890258","500","250","psychophysics","62","506111","0.0-62.0","5d38dd61cd5594000137c4be","6213d34ea824646cc77cdaac","2","0","52","51","","",""
"838","key"," "," ","16.67279591836743","500","250","psychophysics","63","506951","0.0-63.0","5d38dd61cd5594000137c4be","6213d34ea824646cc77cdaac","","","","","","",""
"3026","key"," "," ","16.67277348066297","500","250","psychophysics","64","509979","0.0-64.0","5d38dd61cd5594000137c4be","6213d34ea824646cc77cdaac","2","0","54","54","","",""
"742","key"," "," ","16.672068181818098","500","250","psychophysics","65","510725","0.0-65.0","5d38dd61cd5594000137c4be","6213d34ea824646cc77cdaac","","","","","","",""
"4212","key"," "," ","16.672593625497992","500","250","psychophysics","66","514939","0.0-66.0","5d38dd61cd5594000137c4be","6213d34ea824646cc77cdaac","2","0","43","45","","",""
"675","key"," "," ","16.672199999999428","500","250","psychophysics","67","515616","0.0-67.0","5d38dd61cd5594000137c4be","6213d34ea824646cc77cdaac","","","","","","",""
"4120","key"," "," ","16.67276016260143","500","250","psychophysics","68","519739","0.0-68.0","5d38dd61cd5594000137c4be","6213d34ea824646cc77cdaac","2","0","35","40","","",""
"765","key"," "," ","16.672630434782427","500","250","psychophysics","69","520515","0.0-69.0","5d38dd61cd5594000137c4be","6213d34ea824646cc77cdaac","","","","","","",""
"998","key"," "," ","16.672000000000757","500","250","psychophysics","70","521516","0.0-70.0","5d38dd61cd5594000137c4be","6213d34ea824646cc77cdaac","","","","","","",""
"652","key"," "," ","16.672842105263907","500","250","psychophysics","71","522171","0.0-71.0","5d38dd61cd5594000137c4be","6213d34ea824646cc77cdaac","","","","","","",""
"7082","key"," "," ","16.67246698113219","500","250","psychophysics","72","529256","0.0-72.0","5d38dd61cd5594000137c4be","6213d34ea824646cc77cdaac","3","5","60","63","","",""
"3368","key"," "," ","16.67248258706465","500","250","psychophysics","73","532626","0.0-73.0","5d38dd61cd5594000137c4be","6213d34ea824646cc77cdaac","3","0","41","43","","",""
"4158","key"," "," ","16.672176706827205","500","250","psychophysics","74","536787","0.0-74.0","5d38dd61cd5594000137c4be","6213d34ea824646cc77cdaac","3","5","40","42","","",""
"3839","key"," "," ","16.67273362445407","500","250","psychophysics","75","540629","0.0-75.0","5d38dd61cd5594000137c4be","6213d34ea824646cc77cdaac","3","0","20","22","","",""
"3896","key"," "," ","16.672575107295977","500","250","psychophysics","76","544526","0.0-76.0","5d38dd61cd5594000137c4be","6213d34ea824646cc77cdaac","3","5","34","35","","",""
"4361","key"," "," ","16.672789272030645","500","250","psychophysics","77","548891","0.0-77.0","5d38dd61cd5594000137c4be","6213d34ea824646cc77cdaac","3","0","49","54","","",""
"2692","key"," "," ","16.672350000000005","500","250","psychophysics","78","551586","0.0-78.0","5d38dd61cd5594000137c4be","6213d34ea824646cc77cdaac","3","5","33","40","","",""
"2859","key"," "," ","16.67264912280728","500","250","psychophysics","79","554449","0.0-79.0","5d38dd61cd5594000137c4be","6213d34ea824646cc77cdaac","3","0","32","36","","",""
"2015","key"," "," ","16.67214166666672","500","250","psychophysics","80","556466","0.0-80.0","5d38dd61cd5594000137c4be","6213d34ea824646cc77cdaac","3","5","21","22","","",""
"5339","key"," "," ","16.67262499999997","500","250","psychophysics","81","561808","0.0-81.0","5d38dd61cd5594000137c4be","6213d34ea824646cc77cdaac","3","0","54","56","","",""
"3935","key"," "," ","16.672774468084917","500","250","psychophysics","82","565747","0.0-82.0","5d38dd61cd5594000137c4be","6213d34ea824646cc77cdaac","3","5","46","52","","",""
"4276","key"," "," ","16.672737254901772","500","250","psychophysics","83","570024","0.0-83.0","5d38dd61cd5594000137c4be","6213d34ea824646cc77cdaac","3","0","34","40","","",""
"2184","key"," "," ","16.672725190839532","500","250","psychophysics","84","572212","0.0-84.0","5d38dd61cd5594000137c4be","6213d34ea824646cc77cdaac","3","5","24","29","","",""
"2720","key"," "," ","16.672580246913483","500","250","psychophysics","85","574936","0.0-85.0","5d38dd61cd5594000137c4be","6213d34ea824646cc77cdaac","3","0","35","39","","",""
"2428","key"," "," ","16.672517241379406","500","250","psychophysics","86","577366","0.0-86.0","5d38dd61cd5594000137c4be","6213d34ea824646cc77cdaac","3","5","29","33","","",""
"3811","key"," "," ","16.672691629955953","500","250","psychophysics","87","581180","0.0-87.0","5d38dd61cd5594000137c4be","6213d34ea824646cc77cdaac","3","0","46","51","","",""
"2913","key"," "," ","16.67250000000008","500","250","psychophysics","88","584098","0.0-88.0","5d38dd61cd5594000137c4be","6213d34ea824646cc77cdaac","3","5","42","47","","",""
"3050","key"," "," ","16.672584699453466","500","250","psychophysics","89","587152","0.0-89.0","5d38dd61cd5594000137c4be","6213d34ea824646cc77cdaac","3","0","41","42","","",""
"2187","key"," "," ","16.672692307692845","500","250","psychophysics","90","589342","0.0-90.0","5d38dd61cd5594000137c4be","6213d34ea824646cc77cdaac","3","5","27","33","","",""
"2647","key"," "," ","16.67298734177175","500","250","psychophysics","91","591991","0.0-91.0","5d38dd61cd5594000137c4be","6213d34ea824646cc77cdaac","3","0","55","59","","",""
"945","key"," "," ","16.674000000001147","500","250","psychophysics","92","592944","0.0-92.0","5d38dd61cd5594000137c4be","6213d34ea824646cc77cdaac","","","","","","",""
"25585","","","n","","","","html-keyboard-response","93","618530","0.0-93.0","5d38dd61cd5594000137c4be","6213d34ea824646cc77cdaac","","","","","<p> In this part of the experiment, we are going present digits 1, 2, 3, 4, 6, 7, 8, and 9.  Notice that 5 is missing.  Your job is to say whether the presented digit is less than or greater than 5.  For example, 3 is less than 5 and 7 is greater than 5.  If the digit is less than 5, press the v key; if it is greater than 5, press the n key. We are going to do 200 of these in total, but only 50 righ now. They go real fast.</p>  <br><br>  Ready? (press v or n)","",""
"2665","key","n","n","16.67711249999993","500","250","psychophysics","94","621200","0.0-94.0","5d38dd61cd5594000137c4be","6213d34ea824646cc77cdaac","4","","","","","1","9"
"null","","","null","","","","html-keyboard-response","95","621702","0.0-95.0","5d38dd61cd5594000137c4be","6213d34ea824646cc77cdaac","","","","","<p style=""color:darkgreen;font-size:24px;"">Correct :)</p>","",""
"2440","key","n","n","16.672801369863357","500","250","psychophysics","96","624144","0.0-96.0","5d38dd61cd5594000137c4be","6213d34ea824646cc77cdaac","4","","","","","1","6"
"null","","","null","","","","html-keyboard-response","97","624645","0.0-97.0","5d38dd61cd5594000137c4be","6213d34ea824646cc77cdaac","","","","","<p style=""color:darkgreen;font-size:24px;"">Correct :)</p>","",""
"2455","key","n","n","16.672777027027003","500","250","psychophysics","98","627102","0.0-98.0","5d38dd61cd5594000137c4be","6213d34ea824646cc77cdaac","4","","","","","1","7"
"null","","","null","","","","html-keyboard-response","99","627603","0.0-99.0","5d38dd61cd5594000137c4be","6213d34ea824646cc77cdaac","","","","","<p style=""color:darkgreen;font-size:24px;"">Correct :)</p>","",""
"2395","key","v","v","16.672812500000063","500","250","psychophysics","100","629999","0.0-100.0","5d38dd61cd5594000137c4be","6213d34ea824646cc77cdaac","4","","","","","1","2"
"null","","","null","","","","html-keyboard-response","101","630501","0.0-101.0","5d38dd61cd5594000137c4be","6213d34ea824646cc77cdaac","","","","","<p style=""color:darkgreen;font-size:24px;"">Correct :)</p>","",""
"2418","key","n","n","16.672993103448494","500","250","psychophysics","102","632922","0.0-102.0","5d38dd61cd5594000137c4be","6213d34ea824646cc77cdaac","4","","","","","1","7"
"null","","","null","","","","html-keyboard-response","103","633424","0.0-103.0","5d38dd61cd5594000137c4be","6213d34ea824646cc77cdaac","","","","","<p style=""color:darkgreen;font-size:24px;"">Correct :)</p>","",""
"2410","key","v","v","16.67260689655126","500","250","psychophysics","104","635836","0.0-104.0","5d38dd61cd5594000137c4be","6213d34ea824646cc77cdaac","4","","","","","1","4"
"null","","","null","","","","html-keyboard-response","105","636337","0.0-105.0","5d38dd61cd5594000137c4be","6213d34ea824646cc77cdaac","","","","","<p style=""color:darkgreen;font-size:24px;"">Correct :)</p>","",""
"2390","key","n","n","16.672846153845775","500","250","psychophysics","106","638731","0.0-106.0","5d38dd61cd5594000137c4be","6213d34ea824646cc77cdaac","4","","","","","1","7"
"null","","","null","","","","html-keyboard-response","107","639232","0.0-107.0","5d38dd61cd5594000137c4be","6213d34ea824646cc77cdaac","","","","","<p style=""color:darkgreen;font-size:24px;"">Correct :)</p>","",""
"2380","key","v","v","16.67278321678392","500","250","psychophysics","108","641614","0.0-108.0","5d38dd61cd5594000137c4be","6213d34ea824646cc77cdaac","4","","","","","1","3"
"null","","","null","","","","html-keyboard-response","109","642115","0.0-109.0","5d38dd61cd5594000137c4be","6213d34ea824646cc77cdaac","","","","","<p style=""color:darkgreen;font-size:24px;"">Correct :)</p>","",""
"2368","key","n","n","16.673105633802855","500","250","psychophysics","110","644485","0.0-110.0","5d38dd61cd5594000137c4be","6213d34ea824646cc77cdaac","4","","","","","1","7"
"null","","","null","","","","html-keyboard-response","111","644986","0.0-111.0","5d38dd61cd5594000137c4be","6213d34ea824646cc77cdaac","","","","","<p style=""color:darkgreen;font-size:24px;"">Correct :)</p>","",""
"2441","key","v","v","16.787006849315407","500","250","psychophysics","112","647430","0.0-112.0","5d38dd61cd5594000137c4be","6213d34ea824646cc77cdaac","4","","","","","1","2"
"null","","","null","","","","html-keyboard-response","113","647931","0.0-113.0","5d38dd61cd5594000137c4be","6213d34ea824646cc77cdaac","","","","","<p style=""color:darkgreen;font-size:24px;"">Correct :)</p>","",""
"2423","key","n","n","16.67306849315096","500","250","psychophysics","114","650357","0.0-114.0","5d38dd61cd5594000137c4be","6213d34ea824646cc77cdaac","4","","","","","1","6"
"null","","","null","","","","html-keyboard-response","115","650860","0.0-115.0","5d38dd61cd5594000137c4be","6213d34ea824646cc77cdaac","","","","","<p style=""color:darkgreen;font-size:24px;"">Correct :)</p>","",""
"2370","key","v","v","16.672845070422497","500","250","psychophysics","116","653233","0.0-116.0","5d38dd61cd5594000137c4be","6213d34ea824646cc77cdaac","4","","","","","1","2"
"null","","","null","","","","html-keyboard-response","117","653735","0.0-117.0","5d38dd61cd5594000137c4be","6213d34ea824646cc77cdaac","","","","","<p style=""color:darkgreen;font-size:24px;"">Correct :)</p>","",""
"2376","key","n","n","16.673125874125756","500","250","psychophysics","118","656113","0.0-118.0","5d38dd61cd5594000137c4be","6213d34ea824646cc77cdaac","4","","","","","1","9"
"null","","","null","","","","html-keyboard-response","119","656615","0.0-119.0","5d38dd61cd5594000137c4be","6213d34ea824646cc77cdaac","","","","","<p style=""color:darkgreen;font-size:24px;"">Correct :)</p>","",""
"2372","key","v","v","16.67277464788722","500","250","psychophysics","120","658989","0.0-120.0","5d38dd61cd5594000137c4be","6213d34ea824646cc77cdaac","4","","","","","1","4"
"null","","","null","","","","html-keyboard-response","121","659491","0.0-121.0","5d38dd61cd5594000137c4be","6213d34ea824646cc77cdaac","","","","","<p style=""color:darkgreen;font-size:24px;"">Correct :)</p>","",""
"2391","key","v","v","16.67276388888907","500","250","psychophysics","122","661885","0.0-122.0","5d38dd61cd5594000137c4be","6213d34ea824646cc77cdaac","4","","","","","1","4"
"null","","","null","","","","html-keyboard-response","123","662386","0.0-123.0","5d38dd61cd5594000137c4be","6213d34ea824646cc77cdaac","","","","","<p style=""color:darkgreen;font-size:24px;"">Correct :)</p>","",""
"2489","key","v","v","16.672798657717944","500","250","psychophysics","124","664878","0.0-124.0","5d38dd61cd5594000137c4be","6213d34ea824646cc77cdaac","4","","","","","1","2"
"null","","","null","","","","html-keyboard-response","125","665380","0.0-125.0","5d38dd61cd5594000137c4be","6213d34ea824646cc77cdaac","","","","","<p style=""color:darkgreen;font-size:24px;"">Correct :)</p>","",""
"2399","key","v","v","16.672666666666274","500","250","psychophysics","126","667782","0.0-126.0","5d38dd61cd5594000137c4be","6213d34ea824646cc77cdaac","4","","","","","1","3"
"null","","","null","","","","html-keyboard-response","127","668284","0.0-127.0","5d38dd61cd5594000137c4be","6213d34ea824646cc77cdaac","","","","","<p style=""color:darkgreen;font-size:24px;"">Correct :)</p>","",""
"2426","key","n","n","16.67270344827597","500","250","psychophysics","128","670711","0.0-128.0","5d38dd61cd5594000137c4be","6213d34ea824646cc77cdaac","4","","","","","1","9"
"null","","","null","","","","html-keyboard-response","129","671213","0.0-129.0","5d38dd61cd5594000137c4be","6213d34ea824646cc77cdaac","","","","","<p style=""color:darkgreen;font-size:24px;"">Correct :)</p>","",""
"2369","key","v","v","16.790274647887614","500","250","psychophysics","130","673584","0.0-130.0","5d38dd61cd5594000137c4be","6213d34ea824646cc77cdaac","4","","","","","1","2"
"null","","","null","","","","html-keyboard-response","131","674085","0.0-131.0","5d38dd61cd5594000137c4be","6213d34ea824646cc77cdaac","","","","","<p style=""color:darkgreen;font-size:24px;"">Correct :)</p>","",""
"2393","key","n","n","16.672720279720437","500","250","psychophysics","132","676480","0.0-132.0","5d38dd61cd5594000137c4be","6213d34ea824646cc77cdaac","4","","","","","1","8"
"null","","","null","","","","html-keyboard-response","133","676982","0.0-133.0","5d38dd61cd5594000137c4be","6213d34ea824646cc77cdaac","","","","","<p style=""color:darkgreen;font-size:24px;"">Correct :)</p>","",""
"2441","key","n","n","16.672999999999412","500","250","psychophysics","134","679424","0.0-134.0","5d38dd61cd5594000137c4be","6213d34ea824646cc77cdaac","4","","","","","1","9"
"null","","","null","","","","html-keyboard-response","135","679926","0.0-135.0","5d38dd61cd5594000137c4be","6213d34ea824646cc77cdaac","","","","","<p style=""color:darkgreen;font-size:24px;"">Correct :)</p>","",""
"2401","key","v","v","16.67298611111134","500","250","psychophysics","136","682329","0.0-136.0","5d38dd61cd5594000137c4be","6213d34ea824646cc77cdaac","4","","","","","1","2"
"null","","","null","","","","html-keyboard-response","137","682831","0.0-137.0","5d38dd61cd5594000137c4be","6213d34ea824646cc77cdaac","","","","","<p style=""color:darkgreen;font-size:24px;"">Correct :)</p>","",""
"2424","key","n","n","16.672739726027206","500","250","psychophysics","138","685257","0.0-138.0","5d38dd61cd5594000137c4be","6213d34ea824646cc77cdaac","4","","","","","1","6"
"null","","","null","","","","html-keyboard-response","139","685759","0.0-139.0","5d38dd61cd5594000137c4be","6213d34ea824646cc77cdaac","","","","","<p style=""color:darkgreen;font-size:24px;"">Correct :)</p>","",""
"2389","key","v","v","16.67290909090926","500","250","psychophysics","140","688150","0.0-140.0","5d38dd61cd5594000137c4be","6213d34ea824646cc77cdaac","4","","","","","1","2"
"null","","","null","","","","html-keyboard-response","141","688652","0.0-141.0","5d38dd61cd5594000137c4be","6213d34ea824646cc77cdaac","","","","","<p style=""color:darkgreen;font-size:24px;"">Correct :)</p>","",""
"2433","key","v","v","16.78706164383537","500","250","psychophysics","142","691087","0.0-142.0","5d38dd61cd5594000137c4be","6213d34ea824646cc77cdaac","4","","","","","1","3"
"null","","","null","","","","html-keyboard-response","143","691589","0.0-143.0","5d38dd61cd5594000137c4be","6213d34ea824646cc77cdaac","","","","","<p style=""color:darkgreen;font-size:24px;"">Correct :)</p>","",""
"2415","key","n","n","16.67244137931005","500","250","psychophysics","144","694007","0.0-144.0","5d38dd61cd5594000137c4be","6213d34ea824646cc77cdaac","4","","","","","1","8"
"null","","","null","","","","html-keyboard-response","145","694510","0.0-145.0","5d38dd61cd5594000137c4be","6213d34ea824646cc77cdaac","","","","","<p style=""color:darkgreen;font-size:24px;"">Correct :)</p>","",""
"2359","key","v","v","16.67274468085078","500","250","psychophysics","146","696871","0.0-146.0","5d38dd61cd5594000137c4be","6213d34ea824646cc77cdaac","4","","","","","1","3"
"null","","","null","","","","html-keyboard-response","147","697372","0.0-147.0","5d38dd61cd5594000137c4be","6213d34ea824646cc77cdaac","","","","","<p style=""color:darkgreen;font-size:24px;"">Correct :)</p>","",""
"2421","key","v","v","16.67284827586183","500","250","psychophysics","148","699796","0.0-148.0","5d38dd61cd5594000137c4be","6213d34ea824646cc77cdaac","4","","","","","1","1"
"null","","","null","","","","html-keyboard-response","149","700299","0.0-149.0","5d38dd61cd5594000137c4be","6213d34ea824646cc77cdaac","","","","","<p style=""color:darkgreen;font-size:24px;"">Correct :)</p>","",""
"2399","key","v","v","16.673486111110833","500","250","psychophysics","150","702700","0.0-150.0","5d38dd61cd5594000137c4be","6213d34ea824646cc77cdaac","4","","","","","1","3"
"null","","","null","","","","html-keyboard-response","151","703202","0.0-151.0","5d38dd61cd5594000137c4be","6213d34ea824646cc77cdaac","","","","","<p style=""color:darkgreen;font-size:24px;"">Correct :)</p>","",""
"2375","key","v","v","16.671895104895142","500","250","psychophysics","152","705580","0.0-152.0","5d38dd61cd5594000137c4be","6213d34ea824646cc77cdaac","4","","","","","1","2"
"null","","","null","","","","html-keyboard-response","153","706081","0.0-153.0","5d38dd61cd5594000137c4be","6213d34ea824646cc77cdaac","","","","","<p style=""color:darkgreen;font-size:24px;"">Correct :)</p>","",""
"2381","key","v","v","16.67276923076927","500","250","psychophysics","154","708464","0.0-154.0","5d38dd61cd5594000137c4be","6213d34ea824646cc77cdaac","4","","","","","1","1"
"null","","","null","","","","html-keyboard-response","155","708966","0.0-155.0","5d38dd61cd5594000137c4be","6213d34ea824646cc77cdaac","","","","","<p style=""color:darkgreen;font-size:24px;"">Correct :)</p>","",""
"2405","key","v","v","16.67283333333358","500","250","psychophysics","156","711373","0.0-156.0","5d38dd61cd5594000137c4be","6213d34ea824646cc77cdaac","4","","","","","1","4"
"null","","","null","","","","html-keyboard-response","157","711874","0.0-157.0","5d38dd61cd5594000137c4be","6213d34ea824646cc77cdaac","","","","","<p style=""color:darkgreen;font-size:24px;"">Correct :)</p>","",""
"2423","key","n","n","16.672753424657994","500","250","psychophysics","158","714299","0.0-158.0","5d38dd61cd5594000137c4be","6213d34ea824646cc77cdaac","4","","","","","1","8"
"null","","","null","","","","html-keyboard-response","159","714800","0.0-159.0","5d38dd61cd5594000137c4be","6213d34ea824646cc77cdaac","","","","","<p style=""color:darkgreen;font-size:24px;"">Correct :)</p>","",""
"2447","key","n","n","16.672680272109375","500","250","psychophysics","160","717249","0.0-160.0","5d38dd61cd5594000137c4be","6213d34ea824646cc77cdaac","4","","","","","1","7"
"null","","","null","","","","html-keyboard-response","161","717751","0.0-161.0","5d38dd61cd5594000137c4be","6213d34ea824646cc77cdaac","","","","","<p style=""color:darkgreen;font-size:24px;"">Correct :)</p>","",""
"2361","key","n","n","16.6731134751772","500","250","psychophysics","162","720114","0.0-162.0","5d38dd61cd5594000137c4be","6213d34ea824646cc77cdaac","4","","","","","1","6"
"null","","","null","","","","html-keyboard-response","163","720615","0.0-163.0","5d38dd61cd5594000137c4be","6213d34ea824646cc77cdaac","","","","","<p style=""color:darkgreen;font-size:24px;"">Correct :)</p>","",""
"2407","key","v","v","16.67298611111053","500","250","psychophysics","164","723025","0.0-164.0","5d38dd61cd5594000137c4be","6213d34ea824646cc77cdaac","4","","","","","1","1"
"null","","","null","","","","html-keyboard-response","165","723527","0.0-165.0","5d38dd61cd5594000137c4be","6213d34ea824646cc77cdaac","","","","","<p style=""color:darkgreen;font-size:24px;"">Correct :)</p>","",""
"2371","key","v","v","16.6727412587416","500","250","psychophysics","166","725900","0.0-166.0","5d38dd61cd5594000137c4be","6213d34ea824646cc77cdaac","4","","","","","1","3"
"null","","","null","","","","html-keyboard-response","167","726401","0.0-167.0","5d38dd61cd5594000137c4be","6213d34ea824646cc77cdaac","","","","","<p style=""color:darkgreen;font-size:24px;"">Correct :)</p>","",""
"2433","key","v","v","16.673212328767054","500","250","psychophysics","168","728838","0.0-168.0","5d38dd61cd5594000137c4be","6213d34ea824646cc77cdaac","4","","","","","1","3"
"null","","","null","","","","html-keyboard-response","169","729339","0.0-169.0","5d38dd61cd5594000137c4be","6213d34ea824646cc77cdaac","","","","","<p style=""color:darkgreen;font-size:24px;"">Correct :)</p>","",""
"2432","key","n","n","16.6727465753426","500","250","psychophysics","170","731773","0.0-170.0","5d38dd61cd5594000137c4be","6213d34ea824646cc77cdaac","4","","","","","1","8"
"null","","","null","","","","html-keyboard-response","171","732275","0.0-171.0","5d38dd61cd5594000137c4be","6213d34ea824646cc77cdaac","","","","","<p style=""color:darkgreen;font-size:24px;"">Correct :)</p>","",""
"2412","key","n","n","16.67282068965523","500","250","psychophysics","172","734688","0.0-172.0","5d38dd61cd5594000137c4be","6213d34ea824646cc77cdaac","4","","","","","1","8"
"null","","","null","","","","html-keyboard-response","173","735189","0.0-173.0","5d38dd61cd5594000137c4be","6213d34ea824646cc77cdaac","","","","","<p style=""color:darkgreen;font-size:24px;"">Correct :)</p>","",""
"2392","key","v","v","16.672895104895424","500","250","psychophysics","174","737584","0.0-174.0","5d38dd61cd5594000137c4be","6213d34ea824646cc77cdaac","4","","","","","1","4"
"null","","","null","","","","html-keyboard-response","175","738085","0.0-175.0","5d38dd61cd5594000137c4be","6213d34ea824646cc77cdaac","","","","","<p style=""color:darkgreen;font-size:24px;"">Correct :)</p>","",""
"2456","key","n","n","16.67335135135186","500","250","psychophysics","176","740544","0.0-176.0","5d38dd61cd5594000137c4be","6213d34ea824646cc77cdaac","4","","","","","1","7"
"null","","","null","","","","html-keyboard-response","177","741045","0.0-177.0","5d38dd61cd5594000137c4be","6213d34ea824646cc77cdaac","","","","","<p style=""color:darkgreen;font-size:24px;"">Correct :)</p>","",""
"2443","key","n","n","16.672646258503903","500","250","psychophysics","178","743490","0.0-178.0","5d38dd61cd5594000137c4be","6213d34ea824646cc77cdaac","4","","","","","1","9"
"null","","","null","","","","html-keyboard-response","179","743992","0.0-179.0","5d38dd61cd5594000137c4be","6213d34ea824646cc77cdaac","","","","","<p style=""color:darkgreen;font-size:24px;"">Correct :)</p>","",""
"2417","key","n","n","16.672710344828022","500","250","psychophysics","180","746412","0.0-180.0","5d38dd61cd5594000137c4be","6213d34ea824646cc77cdaac","4","","","","","1","6"
"null","","","null","","","","html-keyboard-response","181","746913","0.0-181.0","5d38dd61cd5594000137c4be","6213d34ea824646cc77cdaac","","","","","<p style=""color:darkgreen;font-size:24px;"">Correct :)</p>","",""
"2402","key","n","n","16.67287500000061","500","250","psychophysics","182","749317","0.0-182.0","5d38dd61cd5594000137c4be","6213d34ea824646cc77cdaac","4","","","","","1","7"
"null","","","null","","","","html-keyboard-response","183","749818","0.0-183.0","5d38dd61cd5594000137c4be","6213d34ea824646cc77cdaac","","","","","<p style=""color:darkgreen;font-size:24px;"">Correct :)</p>","",""
"2389","key","v","v","16.67281944444484","500","250","psychophysics","184","752210","0.0-184.0","5d38dd61cd5594000137c4be","6213d34ea824646cc77cdaac","4","","","","","1","3"
"null","","","null","","","","html-keyboard-response","185","752712","0.0-185.0","5d38dd61cd5594000137c4be","6213d34ea824646cc77cdaac","","","","","<p style=""color:darkgreen;font-size:24px;"">Correct :)</p>","",""
"2394","key","v","v","16.6728531468531","500","250","psychophysics","186","755109","0.0-186.0","5d38dd61cd5594000137c4be","6213d34ea824646cc77cdaac","4","","","","","1","3"
"null","","","null","","","","html-keyboard-response","187","755612","0.0-187.0","5d38dd61cd5594000137c4be","6213d34ea824646cc77cdaac","","","","","<p style=""color:darkgreen;font-size:24px;"">Correct :)</p>","",""
"2405","key","n","n","16.672027777778567","500","250","psychophysics","188","758025","0.0-188.0","5d38dd61cd5594000137c4be","6213d34ea824646cc77cdaac","4","","","","","1","9"
"null","","","null","","","","html-keyboard-response","189","758526","0.0-189.0","5d38dd61cd5594000137c4be","6213d34ea824646cc77cdaac","","","","","<p style=""color:darkgreen;font-size:24px;"">Correct :)</p>","",""
"2393","key","n","n","16.672756944444295","500","250","psychophysics","190","760921","0.0-190.0","5d38dd61cd5594000137c4be","6213d34ea824646cc77cdaac","4","","","","","1","8"
"null","","","null","","","","html-keyboard-response","191","761424","0.0-191.0","5d38dd61cd5594000137c4be","6213d34ea824646cc77cdaac","","","","","<p style=""color:darkgreen;font-size:24px;"">Correct :)</p>","",""
"2356","key","v","v","16.6727112676058","500","250","psychophysics","192","763782","0.0-192.0","5d38dd61cd5594000137c4be","6213d34ea824646cc77cdaac","4","","","","","1","3"
"null","","","null","","","","html-keyboard-response","193","764284","0.0-193.0","5d38dd61cd5594000137c4be","6213d34ea824646cc77cdaac","","","","","<p style=""color:darkgreen;font-size:24px;"">Correct :)</p>","",""
"14544","","","n","","","","html-keyboard-response","194","778829","0.0-194.0","5d38dd61cd5594000137c4be","6213d34ea824646cc77cdaac","","","","","<p> Ok, now we are going present the same digits as before.  Your job is to say whether the digit is even or odd  If the digit is odd, press to v key; if it is even, press the n key. We are going to do 50 of these.  </p>  <br><br>  Ready? (press v or n)","",""
"2474","key","n","n","16.676442953019603","500","250","psychophysics","195","781306","0.0-195.0","5d38dd61cd5594000137c4be","6213d34ea824646cc77cdaac","5","","","","","0","6"
"null","","","null","","","","html-keyboard-response","196","781807","0.0-196.0","5d38dd61cd5594000137c4be","6213d34ea824646cc77cdaac","","","","","<p style=""color:darkgreen;font-size:24px;"">Correct :)</p>","",""
"2536","key","n","n","16.67236184210541","500","250","psychophysics","197","784345","0.0-197.0","5d38dd61cd5594000137c4be","6213d34ea824646cc77cdaac","5","","","","","0","2"
"null","","","null","","","","html-keyboard-response","198","784847","0.0-198.0","5d38dd61cd5594000137c4be","6213d34ea824646cc77cdaac","","","","","<p style=""color:darkgreen;font-size:24px;"">Correct :)</p>","",""
"2386","key","n","n","16.672818181818105","500","250","psychophysics","199","787234","0.0-199.0","5d38dd61cd5594000137c4be","6213d34ea824646cc77cdaac","5","","","","","0","6"
"null","","","null","","","","html-keyboard-response","200","787736","0.0-200.0","5d38dd61cd5594000137c4be","6213d34ea824646cc77cdaac","","","","","<p style=""color:darkgreen;font-size:24px;"">Correct :)</p>","",""
"2435","key","v","v","16.672768707482973","500","250","psychophysics","201","790174","0.0-201.0","5d38dd61cd5594000137c4be","6213d34ea824646cc77cdaac","5","","","","","0","1"
"null","","","null","","","","html-keyboard-response","202","790675","0.0-202.0","5d38dd61cd5594000137c4be","6213d34ea824646cc77cdaac","","","","","<p style=""color:darkgreen;font-size:24px;"">Correct :)</p>","",""
"2544","key","n","n","16.672756578947116","500","250","psychophysics","203","793222","0.0-203.0","5d38dd61cd5594000137c4be","6213d34ea824646cc77cdaac","5","","","","","0","8"
"null","","","null","","","","html-keyboard-response","204","793723","0.0-204.0","5d38dd61cd5594000137c4be","6213d34ea824646cc77cdaac","","","","","<p style=""color:darkgreen;font-size:24px;"">Correct :)</p>","",""
"2425","key","n","n","16.66577083333363","500","250","psychophysics","205","796150","0.0-205.0","5d38dd61cd5594000137c4be","6213d34ea824646cc77cdaac","5","","","","","0","8"
"null","","","null","","","","html-keyboard-response","206","796651","0.0-206.0","5d38dd61cd5594000137c4be","6213d34ea824646cc77cdaac","","","","","<p style=""color:darkgreen;font-size:24px;"">Correct :)</p>","",""
"2509","key","v","v","16.67281456953624","500","250","psychophysics","207","799163","0.0-207.0","5d38dd61cd5594000137c4be","6213d34ea824646cc77cdaac","5","","","","","0","9"
"null","","","null","","","","html-keyboard-response","208","799665","0.0-208.0","5d38dd61cd5594000137c4be","6213d34ea824646cc77cdaac","","","","","<p style=""color:darkgreen;font-size:24px;"">Correct :)</p>","",""
"2414","key","n","n","16.672696551724723","500","250","psychophysics","209","802080","0.0-209.0","5d38dd61cd5594000137c4be","6213d34ea824646cc77cdaac","5","","","","","0","4"
"null","","","null","","","","html-keyboard-response","210","802581","0.0-210.0","5d38dd61cd5594000137c4be","6213d34ea824646cc77cdaac","","","","","<p style=""color:darkgreen;font-size:24px;"">Correct :)</p>","",""
"2396","key","v","v","16.672895833333314","500","250","psychophysics","211","804979","0.0-211.0","5d38dd61cd5594000137c4be","6213d34ea824646cc77cdaac","5","","","","","0","3"
"null","","","null","","","","html-keyboard-response","212","805481","0.0-212.0","5d38dd61cd5594000137c4be","6213d34ea824646cc77cdaac","","","","","<p style=""color:darkgreen;font-size:24px;"">Correct :)</p>","",""
"2528","key","n","n","16.672324503311696","500","250","psychophysics","213","808011","0.0-213.0","5d38dd61cd5594000137c4be","6213d34ea824646cc77cdaac","5","","","","","0","6"
"null","","","null","","","","html-keyboard-response","214","808513","0.0-214.0","5d38dd61cd5594000137c4be","6213d34ea824646cc77cdaac","","","","","<p style=""color:darkgreen;font-size:24px;"">Correct :)</p>","",""
"2443","key","v","v","16.6727465753418","500","250","psychophysics","215","810958","0.0-215.0","5d38dd61cd5594000137c4be","6213d34ea824646cc77cdaac","5","","","","","0","3"
"null","","","null","","","","html-keyboard-response","216","811460","0.0-216.0","5d38dd61cd5594000137c4be","6213d34ea824646cc77cdaac","","","","","<p style=""color:darkgreen;font-size:24px;"">Correct :)</p>","",""
"2422","key","v","v","16.673212328767054","500","250","psychophysics","217","813884","0.0-217.0","5d38dd61cd5594000137c4be","6213d34ea824646cc77cdaac","5","","","","","0","7"
"null","","","null","","","","html-keyboard-response","218","814387","0.0-218.0","5d38dd61cd5594000137c4be","6213d34ea824646cc77cdaac","","","","","<p style=""color:darkgreen;font-size:24px;"">Correct :)</p>","",""
"2440","key","v","v","16.673109589041726","500","250","psychophysics","219","816830","0.0-219.0","5d38dd61cd5594000137c4be","6213d34ea824646cc77cdaac","5","","","","","0","1"
"null","","","null","","","","html-keyboard-response","220","817331","0.0-220.0","5d38dd61cd5594000137c4be","6213d34ea824646cc77cdaac","","","","","<p style=""color:darkgreen;font-size:24px;"">Correct :)</p>","",""
"2399","key","n","n","16.672340277778048","500","250","psychophysics","221","819732","0.0-221.0","5d38dd61cd5594000137c4be","6213d34ea824646cc77cdaac","5","","","","","0","6"
"null","","","null","","","","html-keyboard-response","222","820233","0.0-222.0","5d38dd61cd5594000137c4be","6213d34ea824646cc77cdaac","","","","","<p style=""color:darkgreen;font-size:24px;"">Correct :)</p>","",""
"2412","key","v","v","16.788590277777985","500","250","psychophysics","223","822648","0.0-223.0","5d38dd61cd5594000137c4be","6213d34ea824646cc77cdaac","5","","","","","0","7"
"null","","","null","","","","html-keyboard-response","224","823149","0.0-224.0","5d38dd61cd5594000137c4be","6213d34ea824646cc77cdaac","","","","","<p style=""color:darkgreen;font-size:24px;"">Correct :)</p>","",""
"2428","key","n","n","16.672527397260364","500","250","psychophysics","225","825580","0.0-225.0","5d38dd61cd5594000137c4be","6213d34ea824646cc77cdaac","5","","","","","0","9"
"null","","","null","","","","html-keyboard-response","226","826081","0.0-226.0","5d38dd61cd5594000137c4be","6213d34ea824646cc77cdaac","","","","","<p style=""color:red;font-size:24px;"">Error :(</p>","",""
"2419","key","n","n","16.6724620689654","500","250","psychophysics","227","828503","0.0-227.0","5d38dd61cd5594000137c4be","6213d34ea824646cc77cdaac","5","","","","","0","8"
"null","","","null","","","","html-keyboard-response","228","829004","0.0-228.0","5d38dd61cd5594000137c4be","6213d34ea824646cc77cdaac","","","","","<p style=""color:darkgreen;font-size:24px;"">Correct :)</p>","",""
"2441","key","v","v","16.672445205479626","500","250","psychophysics","229","831448","0.0-229.0","5d38dd61cd5594000137c4be","6213d34ea824646cc77cdaac","5","","","","","0","1"
"null","","","null","","","","html-keyboard-response","230","831950","0.0-230.0","5d38dd61cd5594000137c4be","6213d34ea824646cc77cdaac","","","","","<p style=""color:darkgreen;font-size:24px;"">Correct :)</p>","",""
"2420","key","v","v","16.67278620689658","500","250","psychophysics","231","834372","0.0-231.0","5d38dd61cd5594000137c4be","6213d34ea824646cc77cdaac","5","","","","","0","1"
"null","","","null","","","","html-keyboard-response","232","834874","0.0-232.0","5d38dd61cd5594000137c4be","6213d34ea824646cc77cdaac","","","","","<p style=""color:darkgreen;font-size:24px;"">Correct :)</p>","",""
"2404","key","v","v","16.672798611111325","500","250","psychophysics","233","837283","0.0-233.0","5d38dd61cd5594000137c4be","6213d34ea824646cc77cdaac","5","","","","","0","1"
"null","","","null","","","","html-keyboard-response","234","837785","0.0-234.0","5d38dd61cd5594000137c4be","6213d34ea824646cc77cdaac","","","","","<p style=""color:darkgreen;font-size:24px;"">Correct :)</p>","",""
"2492","key","v","v","16.672793333333296","500","250","psychophysics","235","840280","0.0-235.0","5d38dd61cd5594000137c4be","6213d34ea824646cc77cdaac","5","","","","","0","7"
"null","","","null","","","","html-keyboard-response","236","840781","0.0-236.0","5d38dd61cd5594000137c4be","6213d34ea824646cc77cdaac","","","","","<p style=""color:darkgreen;font-size:24px;"">Correct :)</p>","",""
"2521","key","n","n","16.672774834437327","500","250","psychophysics","237","843305","0.0-237.0","5d38dd61cd5594000137c4be","6213d34ea824646cc77cdaac","5","","","","","0","6"
"null","","","null","","","","html-keyboard-response","238","843806","0.0-238.0","5d38dd61cd5594000137c4be","6213d34ea824646cc77cdaac","","","","","<p style=""color:darkgreen;font-size:24px;"">Correct :)</p>","",""
"2409","key","n","n","16.672813793103177","500","250","psychophysics","239","846217","0.0-239.0","5d38dd61cd5594000137c4be","6213d34ea824646cc77cdaac","5","","","","","0","4"
"null","","","null","","","","html-keyboard-response","240","846719","0.0-240.0","5d38dd61cd5594000137c4be","6213d34ea824646cc77cdaac","","","","","<p style=""color:darkgreen;font-size:24px;"">Correct :)</p>","",""
"2449","key","v","v","16.672700680272026","500","250","psychophysics","241","849170","0.0-241.0","5d38dd61cd5594000137c4be","6213d34ea824646cc77cdaac","5","","","","","0","9"
"null","","","null","","","","html-keyboard-response","242","849672","0.0-242.0","5d38dd61cd5594000137c4be","6213d34ea824646cc77cdaac","","","","","<p style=""color:darkgreen;font-size:24px;"">Correct :)</p>","",""
"2602","key","v","v","16.6726730769233","500","250","psychophysics","243","852276","0.0-243.0","5d38dd61cd5594000137c4be","6213d34ea824646cc77cdaac","5","","","","","0","9"
"null","","","null","","","","html-keyboard-response","244","852777","0.0-244.0","5d38dd61cd5594000137c4be","6213d34ea824646cc77cdaac","","","","","<p style=""color:darkgreen;font-size:24px;"">Correct :)</p>","",""
"2508","key","n","n","16.784046666667177","500","250","psychophysics","245","855288","0.0-245.0","5d38dd61cd5594000137c4be","6213d34ea824646cc77cdaac","5","","","","","0","6"
"null","","","null","","","","html-keyboard-response","246","855789","0.0-246.0","5d38dd61cd5594000137c4be","6213d34ea824646cc77cdaac","","","","","<p style=""color:darkgreen;font-size:24px;"">Correct :)</p>","",""
"2380","key","v","v","16.672762237762758","500","250","psychophysics","247","858171","0.0-247.0","5d38dd61cd5594000137c4be","6213d34ea824646cc77cdaac","5","","","","","0","1"
"null","","","null","","","","html-keyboard-response","248","858673","0.0-248.0","5d38dd61cd5594000137c4be","6213d34ea824646cc77cdaac","","","","","<p style=""color:darkgreen;font-size:24px;"">Correct :)</p>","",""
"2414","key","n","n","16.672799999999878","500","250","psychophysics","249","861088","0.0-249.0","5d38dd61cd5594000137c4be","6213d34ea824646cc77cdaac","5","","","","","0","2"
"null","","","null","","","","html-keyboard-response","250","861590","0.0-250.0","5d38dd61cd5594000137c4be","6213d34ea824646cc77cdaac","","","","","<p style=""color:darkgreen;font-size:24px;"">Correct :)</p>","",""
"2373","key","n","n","16.672781690141075","500","250","psychophysics","251","863965","0.0-251.0","5d38dd61cd5594000137c4be","6213d34ea824646cc77cdaac","5","","","","","0","4"
"null","","","null","","","","html-keyboard-response","252","864467","0.0-252.0","5d38dd61cd5594000137c4be","6213d34ea824646cc77cdaac","","","","","<p style=""color:darkgreen;font-size:24px;"">Correct :)</p>","",""
"2371","key","n","n","16.6727394366204","500","250","psychophysics","253","866841","0.0-253.0","5d38dd61cd5594000137c4be","6213d34ea824646cc77cdaac","5","","","","","0","4"
"null","","","null","","","","html-keyboard-response","254","867342","0.0-254.0","5d38dd61cd5594000137c4be","6213d34ea824646cc77cdaac","","","","","<p style=""color:darkgreen;font-size:24px;"">Correct :)</p>","",""
"2387","key","v","v","16.672839160839263","500","250","psychophysics","255","869732","0.0-255.0","5d38dd61cd5594000137c4be","6213d34ea824646cc77cdaac","5","","","","","0","1"
"null","","","null","","","","html-keyboard-response","256","870233","0.0-256.0","5d38dd61cd5594000137c4be","6213d34ea824646cc77cdaac","","","","","<p style=""color:darkgreen;font-size:24px;"">Correct :)</p>","",""
"2446","key","n","n","16.67263265306108","500","250","psychophysics","257","872681","0.0-257.0","5d38dd61cd5594000137c4be","6213d34ea824646cc77cdaac","5","","","","","0","2"
"null","","","null","","","","html-keyboard-response","258","873183","0.0-258.0","5d38dd61cd5594000137c4be","6213d34ea824646cc77cdaac","","","","","<p style=""color:darkgreen;font-size:24px;"">Correct :)</p>","",""
"2393","key","v","v","16.672715277778074","500","250","psychophysics","259","875577","0.0-259.0","5d38dd61cd5594000137c4be","6213d34ea824646cc77cdaac","5","","","","","0","3"
"null","","","null","","","","html-keyboard-response","260","876080","0.0-260.0","5d38dd61cd5594000137c4be","6213d34ea824646cc77cdaac","","","","","<p style=""color:darkgreen;font-size:24px;"">Correct :)</p>","",""
"2510","key","v","v","16.672649006622947","500","250","psychophysics","261","878592","0.0-261.0","5d38dd61cd5594000137c4be","6213d34ea824646cc77cdaac","5","","","","","0","7"
"null","","","null","","","","html-keyboard-response","262","879094","0.0-262.0","5d38dd61cd5594000137c4be","6213d34ea824646cc77cdaac","","","","","<p style=""color:darkgreen;font-size:24px;"">Correct :)</p>","",""
"2469","key","v","v","16.67277027027071","500","250","psychophysics","263","881564","0.0-263.0","5d38dd61cd5594000137c4be","6213d34ea824646cc77cdaac","5","","","","","0","1"
"null","","","null","","","","html-keyboard-response","264","882065","0.0-264.0","5d38dd61cd5594000137c4be","6213d34ea824646cc77cdaac","","","","","<p style=""color:darkgreen;font-size:24px;"">Correct :)</p>","",""
"2392","key","n","n","16.673319444444335","500","250","psychophysics","265","884459","0.0-265.0","5d38dd61cd5594000137c4be","6213d34ea824646cc77cdaac","5","","","","","0","8"
"null","","","null","","","","html-keyboard-response","266","884961","0.0-266.0","5d38dd61cd5594000137c4be","6213d34ea824646cc77cdaac","","","","","<p style=""color:darkgreen;font-size:24px;"">Correct :)</p>","",""
"2381","key","n","n","16.672755244755432","500","250","psychophysics","267","887344","0.0-267.0","5d38dd61cd5594000137c4be","6213d34ea824646cc77cdaac","5","","","","","0","8"
"null","","","null","","","","html-keyboard-response","268","887846","0.0-268.0","5d38dd61cd5594000137c4be","6213d34ea824646cc77cdaac","","","","","<p style=""color:darkgreen;font-size:24px;"">Correct :)</p>","",""
"2353","key","n","n","16.672751773049697","500","250","psychophysics","269","890201","0.0-269.0","5d38dd61cd5594000137c4be","6213d34ea824646cc77cdaac","5","","","","","0","8"
"null","","","null","","","","html-keyboard-response","270","890703","0.0-270.0","5d38dd61cd5594000137c4be","6213d34ea824646cc77cdaac","","","","","<p style=""color:darkgreen;font-size:24px;"">Correct :)</p>","",""
"2355","key","n","n","16.67277464788722","500","250","psychophysics","271","893060","0.0-271.0","5d38dd61cd5594000137c4be","6213d34ea824646cc77cdaac","5","","","","","0","8"
"null","","","null","","","","html-keyboard-response","272","893562","0.0-272.0","5d38dd61cd5594000137c4be","6213d34ea824646cc77cdaac","","","","","<p style=""color:darkgreen;font-size:24px;"">Correct :)</p>","",""
"2427","key","v","v","16.672675862068566","500","250","psychophysics","273","895992","0.0-273.0","5d38dd61cd5594000137c4be","6213d34ea824646cc77cdaac","5","","","","","0","1"
"null","","","null","","","","html-keyboard-response","274","896493","0.0-274.0","5d38dd61cd5594000137c4be","6213d34ea824646cc77cdaac","","","","","<p style=""color:darkgreen;font-size:24px;"">Correct :)</p>","",""
"2439","key","n","n","16.786938356163862","500","250","psychophysics","275","898935","0.0-275.0","5d38dd61cd5594000137c4be","6213d34ea824646cc77cdaac","5","","","","","0","8"
"null","","","null","","","","html-keyboard-response","276","899436","0.0-276.0","5d38dd61cd5594000137c4be","6213d34ea824646cc77cdaac","","","","","<p style=""color:darkgreen;font-size:24px;"">Correct :)</p>","",""
"2510","key","n","n","16.672741721854514","500","250","psychophysics","277","901950","0.0-277.0","5d38dd61cd5594000137c4be","6213d34ea824646cc77cdaac","5","","","","","0","2"
"null","","","null","","","","html-keyboard-response","278","902451","0.0-278.0","5d38dd61cd5594000137c4be","6213d34ea824646cc77cdaac","","","","","<p style=""color:darkgreen;font-size:24px;"">Correct :)</p>","",""
"2364","key","n","n","16.672823943661747","500","250","psychophysics","279","904819","0.0-279.0","5d38dd61cd5594000137c4be","6213d34ea824646cc77cdaac","5","","","","","0","2"
"null","","","null","","","","html-keyboard-response","280","905320","0.0-280.0","5d38dd61cd5594000137c4be","6213d34ea824646cc77cdaac","","","","","<p style=""color:darkgreen;font-size:24px;"">Correct :)</p>","",""
"2445","key","n","n","16.67293197278893","500","250","psychophysics","281","907767","0.0-281.0","5d38dd61cd5594000137c4be","6213d34ea824646cc77cdaac","5","","","","","0","6"
"null","","","null","","","","html-keyboard-response","282","908269","0.0-282.0","5d38dd61cd5594000137c4be","6213d34ea824646cc77cdaac","","","","","<p style=""color:darkgreen;font-size:24px;"">Correct :)</p>","",""
"2356","key","n","n","16.672787234041813","500","250","psychophysics","283","910628","0.0-283.0","5d38dd61cd5594000137c4be","6213d34ea824646cc77cdaac","5","","","","","0","2"
"null","","","null","","","","html-keyboard-response","284","911129","0.0-284.0","5d38dd61cd5594000137c4be","6213d34ea824646cc77cdaac","","","","","<p style=""color:darkgreen;font-size:24px;"">Correct :)</p>","",""
"2391","key","n","n","16.673013888888818","500","250","psychophysics","285","913522","0.0-285.0","5d38dd61cd5594000137c4be","6213d34ea824646cc77cdaac","5","","","","","0","8"
"null","","","null","","","","html-keyboard-response","286","914023","0.0-286.0","5d38dd61cd5594000137c4be","6213d34ea824646cc77cdaac","","","","","<p style=""color:darkgreen;font-size:24px;"">Correct :)</p>","",""
"2409","key","n","n","16.67256944444428","500","250","psychophysics","287","916434","0.0-287.0","5d38dd61cd5594000137c4be","6213d34ea824646cc77cdaac","5","","","","","0","6"
"null","","","null","","","","html-keyboard-response","288","916936","0.0-288.0","5d38dd61cd5594000137c4be","6213d34ea824646cc77cdaac","","","","","<p style=""color:darkgreen;font-size:24px;"">Correct :)</p>","",""
"2383","key","n","n","16.672720279720437","500","250","psychophysics","289","919321","0.0-289.0","5d38dd61cd5594000137c4be","6213d34ea824646cc77cdaac","5","","","","","0","6"
"null","","","null","","","","html-keyboard-response","290","919822","0.0-290.0","5d38dd61cd5594000137c4be","6213d34ea824646cc77cdaac","","","","","<p style=""color:darkgreen;font-size:24px;"">Correct :)</p>","",""
"2469","key","n","n","16.672770270269925","500","250","psychophysics","291","922292","0.0-291.0","5d38dd61cd5594000137c4be","6213d34ea824646cc77cdaac","5","","","","","0","4"
"null","","","null","","","","html-keyboard-response","292","922795","0.0-292.0","5d38dd61cd5594000137c4be","6213d34ea824646cc77cdaac","","","","","<p style=""color:darkgreen;font-size:24px;"">Correct :)</p>","",""
"2471","key","n","n","16.67272297297274","500","250","psychophysics","293","925268","0.0-293.0","5d38dd61cd5594000137c4be","6213d34ea824646cc77cdaac","5","","","","","0","8"
"null","","","null","","","","html-keyboard-response","294","925769","0.0-294.0","5d38dd61cd5594000137c4be","6213d34ea824646cc77cdaac","","","","","<p style=""color:darkgreen;font-size:24px;"">Correct :)</p>","",""
"6808","","","n","","","","html-keyboard-response","295","932579","0.0-295.0","5d38dd61cd5594000137c4be","6213d34ea824646cc77cdaac","","","","","<p> Here, the tasks are going to switch.  For some trials, your job is to decide if the digit is less than or greater than 5.  For others, it is to decide if the digit is even or odd.  You will be told which type of trial the current one is.  But, pay attention, the type of trial changes too.  We are going to do 50 of these.  </p>  <br><br>  Ready? (press v or n)","",""
"2737","key","v","v","16.674274390243937","500","250","psychophysics","296","935318","0.0-296.0","5d38dd61cd5594000137c4be","6213d34ea824646cc77cdaac","6","","","","","0","3"
"null","","","null","","","","html-keyboard-response","297","935819","0.0-297.0","5d38dd61cd5594000137c4be","6213d34ea824646cc77cdaac","","","","","<p style=""color:darkgreen;font-size:24px;"">Correct :)</p>","",""
"2359","key","v","v","16.673056338028328","500","250","psychophysics","298","938181","0.0-298.0","5d38dd61cd5594000137c4be","6213d34ea824646cc77cdaac","6","","","","","1","4"
"null","","","null","","","","html-keyboard-response","299","938682","0.0-299.0","5d38dd61cd5594000137c4be","6213d34ea824646cc77cdaac","","","","","<p style=""color:darkgreen;font-size:24px;"">Correct :)</p>","",""
"2496","key","n","n","16.672766666666917","500","250","psychophysics","300","941180","0.0-300.0","5d38dd61cd5594000137c4be","6213d34ea824646cc77cdaac","6","","","","","0","2"
"null","","","null","","","","html-keyboard-response","301","941682","0.0-301.0","5d38dd61cd5594000137c4be","6213d34ea824646cc77cdaac","","","","","<p style=""color:darkgreen;font-size:24px;"">Correct :)</p>","",""
"2413","key","v","v","16.672620689655364","500","250","psychophysics","302","944097","0.0-302.0","5d38dd61cd5594000137c4be","6213d34ea824646cc77cdaac","6","","","","","1","4"
"null","","","null","","","","html-keyboard-response","303","944599","0.0-303.0","5d38dd61cd5594000137c4be","6213d34ea824646cc77cdaac","","","","","<p style=""color:darkgreen;font-size:24px;"">Correct :)</p>","",""
"2399","key","v","v","16.672826388888804","500","250","psychophysics","304","947001","0.0-304.0","5d38dd61cd5594000137c4be","6213d34ea824646cc77cdaac","6","","","","","0","1"
"null","","","null","","","","html-keyboard-response","305","947502","0.0-305.0","5d38dd61cd5594000137c4be","6213d34ea824646cc77cdaac","","","","","<p style=""color:darkgreen;font-size:24px;"">Correct :)</p>","",""
"2439","key","n","n","16.67320547945166","500","250","psychophysics","306","949945","0.0-306.0","5d38dd61cd5594000137c4be","6213d34ea824646cc77cdaac","6","","","","","1","9"
"null","","","null","","","","html-keyboard-response","307","950447","0.0-307.0","5d38dd61cd5594000137c4be","6213d34ea824646cc77cdaac","","","","","<p style=""color:darkgreen;font-size:24px;"">Correct :)</p>","",""
"2430","key","v","v","16.672758620689976","500","250","psychophysics","308","952880","0.0-308.0","5d38dd61cd5594000137c4be","6213d34ea824646cc77cdaac","6","","","","","0","1"
"null","","","null","","","","html-keyboard-response","309","953381","0.0-309.0","5d38dd61cd5594000137c4be","6213d34ea824646cc77cdaac","","","","","<p style=""color:darkgreen;font-size:24px;"">Correct :)</p>","",""
"2504","key","n","n","16.78403333333321","500","250","psychophysics","310","955887","0.0-310.0","5d38dd61cd5594000137c4be","6213d34ea824646cc77cdaac","6","","","","","1","2"
"null","","","null","","","","html-keyboard-response","311","956388","0.0-311.0","5d38dd61cd5594000137c4be","6213d34ea824646cc77cdaac","","","","","<p style=""color:red;font-size:24px;"">Error :(</p>","",""
"2408","key","v","v","16.67279166666655","500","250","psychophysics","312","958798","0.0-312.0","5d38dd61cd5594000137c4be","6213d34ea824646cc77cdaac","6","","","","","0","3"
"null","","","null","","","","html-keyboard-response","313","959300","0.0-313.0","5d38dd61cd5594000137c4be","6213d34ea824646cc77cdaac","","","","","<p style=""color:darkgreen;font-size:24px;"">Correct :)</p>","",""
"2580","key","n","n","16.78105194805199","500","250","psychophysics","314","961882","0.0-314.0","5d38dd61cd5594000137c4be","6213d34ea824646cc77cdaac","6","","","","","0","6"
"null","","","null","","","","html-keyboard-response","315","962383","0.0-315.0","5d38dd61cd5594000137c4be","6213d34ea824646cc77cdaac","","","","","<p style=""color:darkgreen;font-size:24px;"">Correct :)</p>","",""
"2415","key","v","v","16.67281379310398","500","250","psychophysics","316","964800","0.0-316.0","5d38dd61cd5594000137c4be","6213d34ea824646cc77cdaac","6","","","","","0","1"
"null","","","null","","","","html-keyboard-response","317","965301","0.0-317.0","5d38dd61cd5594000137c4be","6213d34ea824646cc77cdaac","","","","","<p style=""color:darkgreen;font-size:24px;"">Correct :)</p>","",""
"2454","key","n","n","16.672817567567108","500","250","psychophysics","318","967758","0.0-318.0","5d38dd61cd5594000137c4be","6213d34ea824646cc77cdaac","6","","","","","0","4"
"null","","","null","","","","html-keyboard-response","319","968259","0.0-319.0","5d38dd61cd5594000137c4be","6213d34ea824646cc77cdaac","","","","","<p style=""color:darkgreen;font-size:24px;"">Correct :)</p>","",""
"2434","key","v","v","16.6727465753426","500","250","psychophysics","320","970695","0.0-320.0","5d38dd61cd5594000137c4be","6213d34ea824646cc77cdaac","6","","","","","0","9"
"null","","","null","","","","html-keyboard-response","321","971197","0.0-321.0","5d38dd61cd5594000137c4be","6213d34ea824646cc77cdaac","","","","","<p style=""color:darkgreen;font-size:24px;"">Correct :)</p>","",""
"2455","key","n","n","16.672877551020807","500","250","psychophysics","322","973654","0.0-322.0","5d38dd61cd5594000137c4be","6213d34ea824646cc77cdaac","6","","","","","0","6"
"null","","","null","","","","html-keyboard-response","323","974155","0.0-323.0","5d38dd61cd5594000137c4be","6213d34ea824646cc77cdaac","","","","","<p style=""color:darkgreen;font-size:24px;"">Correct :)</p>","",""
"2421","key","n","n","16.672806896551126","500","250","psychophysics","324","976578","0.0-324.0","5d38dd61cd5594000137c4be","6213d34ea824646cc77cdaac","6","","","","","0","2"
"null","","","null","","","","html-keyboard-response","325","977080","0.0-325.0","5d38dd61cd5594000137c4be","6213d34ea824646cc77cdaac","","","","","<p style=""color:darkgreen;font-size:24px;"">Correct :)</p>","",""
"2402","key","n","n","16.672722222222042","500","250","psychophysics","326","979484","0.0-326.0","5d38dd61cd5594000137c4be","6213d34ea824646cc77cdaac","6","","","","","1","7"
"null","","","null","","","","html-keyboard-response","327","979985","0.0-327.0","5d38dd61cd5594000137c4be","6213d34ea824646cc77cdaac","","","","","<p style=""color:darkgreen;font-size:24px;"">Correct :)</p>","",""
"2734","key","v","v","16.672737804877503","500","250","psychophysics","328","982721","0.0-328.0","5d38dd61cd5594000137c4be","6213d34ea824646cc77cdaac","6","","","","","1","4"
"null","","","null","","","","html-keyboard-response","329","983222","0.0-329.0","5d38dd61cd5594000137c4be","6213d34ea824646cc77cdaac","","","","","<p style=""color:darkgreen;font-size:24px;"">Correct :)</p>","",""
"2389","key","v","v","16.672770833333036","500","250","psychophysics","330","985613","0.0-330.0","5d38dd61cd5594000137c4be","6213d34ea824646cc77cdaac","6","","","","","1","2"
"null","","","null","","","","html-keyboard-response","331","986116","0.0-331.0","5d38dd61cd5594000137c4be","6213d34ea824646cc77cdaac","","","","","<p style=""color:darkgreen;font-size:24px;"">Correct :)</p>","",""
"2529","key","v","v","16.672986842105228","500","250","psychophysics","332","988649","0.0-332.0","5d38dd61cd5594000137c4be","6213d34ea824646cc77cdaac","6","","","","","1","4"
"null","","","null","","","","html-keyboard-response","333","989151","0.0-333.0","5d38dd61cd5594000137c4be","6213d34ea824646cc77cdaac","","","","","<p style=""color:darkgreen;font-size:24px;"">Correct :)</p>","",""
"2410","key","v","v","16.67296551724189","500","250","psychophysics","334","991563","0.0-334.0","5d38dd61cd5594000137c4be","6213d34ea824646cc77cdaac","6","","","","","0","3"
"null","","","null","","","","html-keyboard-response","335","992065","0.0-335.0","5d38dd61cd5594000137c4be","6213d34ea824646cc77cdaac","","","","","<p style=""color:darkgreen;font-size:24px;"">Correct :)</p>","",""
"2393","key","n","n","16.672657342657764","500","250","psychophysics","336","994461","0.0-336.0","5d38dd61cd5594000137c4be","6213d34ea824646cc77cdaac","6","","","","","1","9"
"null","","","null","","","","html-keyboard-response","337","994963","0.0-337.0","5d38dd61cd5594000137c4be","6213d34ea824646cc77cdaac","","","","","<p style=""color:darkgreen;font-size:24px;"">Correct :)</p>","",""
"2407","key","n","n","16.672472222222293","500","250","psychophysics","338","997373","0.0-338.0","5d38dd61cd5594000137c4be","6213d34ea824646cc77cdaac","6","","","","","0","6"
"null","","","null","","","","html-keyboard-response","339","997874","0.0-339.0","5d38dd61cd5594000137c4be","6213d34ea824646cc77cdaac","","","","","<p style=""color:darkgreen;font-size:24px;"">Correct :)</p>","",""
"2678","key","v","v","16.67286335403658","500","250","psychophysics","340","1000554","0.0-340.0","5d38dd61cd5594000137c4be","6213d34ea824646cc77cdaac","6","","","","","1","4"
"null","","","null","","","","html-keyboard-response","341","1001055","0.0-341.0","5d38dd61cd5594000137c4be","6213d34ea824646cc77cdaac","","","","","<p style=""color:darkgreen;font-size:24px;"">Correct :)</p>","",""
"2495","key","n","n","16.672700000000187","500","250","psychophysics","342","1003553","0.0-342.0","5d38dd61cd5594000137c4be","6213d34ea824646cc77cdaac","6","","","","","0","8"
"null","","","null","","","","html-keyboard-response","343","1004054","0.0-343.0","5d38dd61cd5594000137c4be","6213d34ea824646cc77cdaac","","","","","<p style=""color:darkgreen;font-size:24px;"">Correct :)</p>","",""
"2413","key","v","v","16.67284827586183","500","250","psychophysics","344","1006470","0.0-344.0","5d38dd61cd5594000137c4be","6213d34ea824646cc77cdaac","6","","","","","0","7"
"null","","","null","","","","html-keyboard-response","345","1006972","0.0-345.0","5d38dd61cd5594000137c4be","6213d34ea824646cc77cdaac","","","","","<p style=""color:darkgreen;font-size:24px;"">Correct :)</p>","",""
"2424","key","n","n","16.67270344827597","500","250","psychophysics","346","1009398","0.0-346.0","5d38dd61cd5594000137c4be","6213d34ea824646cc77cdaac","6","","","","","0","6"
"null","","","null","","","","html-keyboard-response","347","1009898","0.0-347.0","5d38dd61cd5594000137c4be","6213d34ea824646cc77cdaac","","","","","<p style=""color:darkgreen;font-size:24px;"">Correct :)</p>","",""
"2488","key","v","v","16.67273333333355","500","250","psychophysics","348","1012389","0.0-348.0","5d38dd61cd5594000137c4be","6213d34ea824646cc77cdaac","6","","","","","0","7"
"null","","","null","","","","html-keyboard-response","349","1012890","0.0-349.0","5d38dd61cd5594000137c4be","6213d34ea824646cc77cdaac","","","","","<p style=""color:darkgreen;font-size:24px;"">Correct :)</p>","",""
"2472","key","n","n","16.67278378378329","500","250","psychophysics","350","1015366","0.0-350.0","5d38dd61cd5594000137c4be","6213d34ea824646cc77cdaac","6","","","","","1","7"
"null","","","null","","","","html-keyboard-response","351","1015869","0.0-351.0","5d38dd61cd5594000137c4be","6213d34ea824646cc77cdaac","","","","","<p style=""color:darkgreen;font-size:24px;"">Correct :)</p>","",""
"2401","key","n","n","16.788666666666458","500","250","psychophysics","352","1018272","0.0-352.0","5d38dd61cd5594000137c4be","6213d34ea824646cc77cdaac","6","","","","","0","4"
"null","","","null","","","","html-keyboard-response","353","1018773","0.0-353.0","5d38dd61cd5594000137c4be","6213d34ea824646cc77cdaac","","","","","<p style=""color:darkgreen;font-size:24px;"">Correct :)</p>","",""
"2414","key","v","v","16.67283448275853","500","250","psychophysics","354","1021190","0.0-354.0","5d38dd61cd5594000137c4be","6213d34ea824646cc77cdaac","6","","","","","1","2"
"null","","","null","","","","html-keyboard-response","355","1021691","0.0-355.0","5d38dd61cd5594000137c4be","6213d34ea824646cc77cdaac","","","","","<p style=""color:darkgreen;font-size:24px;"">Correct :)</p>","",""
"2489","key","v","v","16.672785234899298","500","250","psychophysics","356","1024185","0.0-356.0","5d38dd61cd5594000137c4be","6213d34ea824646cc77cdaac","6","","","","","1","2"
"null","","","null","","","","html-keyboard-response","357","1024686","0.0-357.0","5d38dd61cd5594000137c4be","6213d34ea824646cc77cdaac","","","","","<p style=""color:darkgreen;font-size:24px;"">Correct :)</p>","",""
"2390","key","v","v","16.672694444443753","500","250","psychophysics","358","1027078","0.0-358.0","5d38dd61cd5594000137c4be","6213d34ea824646cc77cdaac","6","","","","","1","2"
"null","","","null","","","","html-keyboard-response","359","1027579","0.0-359.0","5d38dd61cd5594000137c4be","6213d34ea824646cc77cdaac","","","","","<p style=""color:darkgreen;font-size:24px;"">Correct :)</p>","",""
"2448","key","n","n","16.67351020408199","500","250","psychophysics","360","1030030","0.0-360.0","5d38dd61cd5594000137c4be","6213d34ea824646cc77cdaac","6","","","","","0","8"
"null","","","null","","","","html-keyboard-response","361","1030531","0.0-361.0","5d38dd61cd5594000137c4be","6213d34ea824646cc77cdaac","","","","","<p style=""color:darkgreen;font-size:24px;"">Correct :)</p>","",""
"2384","key","v","v","16.67290909090926","500","250","psychophysics","362","1032918","0.0-362.0","5d38dd61cd5594000137c4be","6213d34ea824646cc77cdaac","6","","","","","0","7"
"null","","","null","","","","html-keyboard-response","363","1033419","0.0-363.0","5d38dd61cd5594000137c4be","6213d34ea824646cc77cdaac","","","","","<p style=""color:darkgreen;font-size:24px;"">Correct :)</p>","",""
"2465","key","n","n","16.67306081081089","500","250","psychophysics","364","1035886","0.0-364.0","5d38dd61cd5594000137c4be","6213d34ea824646cc77cdaac","6","","","","","1","8"
"null","","","null","","","","html-keyboard-response","365","1036388","0.0-365.0","5d38dd61cd5594000137c4be","6213d34ea824646cc77cdaac","","","","","<p style=""color:darkgreen;font-size:24px;"">Correct :)</p>","",""
"2442","key","n","n","16.672693877550614","500","250","psychophysics","366","1038831","0.0-366.0","5d38dd61cd5594000137c4be","6213d34ea824646cc77cdaac","6","","","","","1","6"
"null","","","null","","","","html-keyboard-response","367","1039334","0.0-367.0","5d38dd61cd5594000137c4be","6213d34ea824646cc77cdaac","","","","","<p style=""color:darkgreen;font-size:24px;"">Correct :)</p>","",""
"2357","key","n","n","16.67273049645377","500","250","psychophysics","368","1041694","0.0-368.0","5d38dd61cd5594000137c4be","6213d34ea824646cc77cdaac","6","","","","","0","6"
"null","","","null","","","","html-keyboard-response","369","1042195","0.0-369.0","5d38dd61cd5594000137c4be","6213d34ea824646cc77cdaac","","","","","<p style=""color:darkgreen;font-size:24px;"">Correct :)</p>","",""
"2546","key","v","v","16.782657894736314","500","250","psychophysics","370","1044743","0.0-370.0","5d38dd61cd5594000137c4be","6213d34ea824646cc77cdaac","6","","","","","0","7"
"null","","","null","","","","html-keyboard-response","371","1045244","0.0-371.0","5d38dd61cd5594000137c4be","6213d34ea824646cc77cdaac","","","","","<p style=""color:darkgreen;font-size:24px;"">Correct :)</p>","",""
"2488","key","v","v","16.672886666667182","500","250","psychophysics","372","1047734","0.0-372.0","5d38dd61cd5594000137c4be","6213d34ea824646cc77cdaac","6","","","","","0","3"
"null","","","null","","","","html-keyboard-response","373","1048237","0.0-373.0","5d38dd61cd5594000137c4be","6213d34ea824646cc77cdaac","","","","","<p style=""color:darkgreen;font-size:24px;"">Correct :)</p>","",""
"2437","key","n","n","16.672808219177956","500","250","psychophysics","374","1050676","0.0-374.0","5d38dd61cd5594000137c4be","6213d34ea824646cc77cdaac","6","","","","","0","8"
"null","","","null","","","","html-keyboard-response","375","1051177","0.0-375.0","5d38dd61cd5594000137c4be","6213d34ea824646cc77cdaac","","","","","<p style=""color:darkgreen;font-size:24px;"">Correct :)</p>","",""
"2374","key","v","v","16.672748251748107","500","250","psychophysics","376","1053552","0.0-376.0","5d38dd61cd5594000137c4be","6213d34ea824646cc77cdaac","6","","","","","0","9"
"null","","","null","","","","html-keyboard-response","377","1054055","0.0-377.0","5d38dd61cd5594000137c4be","6213d34ea824646cc77cdaac","","","","","<p style=""color:darkgreen;font-size:24px;"">Correct :)</p>","",""
"2472","key","n","n","16.672810810811605","500","250","psychophysics","378","1056529","0.0-378.0","5d38dd61cd5594000137c4be","6213d34ea824646cc77cdaac","6","","","","","1","8"
"null","","","null","","","","html-keyboard-response","379","1057031","0.0-379.0","5d38dd61cd5594000137c4be","6213d34ea824646cc77cdaac","","","","","<p style=""color:darkgreen;font-size:24px;"">Correct :)</p>","",""
"2407","key","v","v","16.672737931034625","500","250","psychophysics","380","1059440","0.0-380.0","5d38dd61cd5594000137c4be","6213d34ea824646cc77cdaac","6","","","","","1","3"
"null","","","null","","","","html-keyboard-response","381","1059942","0.0-381.0","5d38dd61cd5594000137c4be","6213d34ea824646cc77cdaac","","","","","<p style=""color:darkgreen;font-size:24px;"">Correct :)</p>","",""
"2469","key","v","v","16.672310810811453","500","250","psychophysics","382","1062412","0.0-382.0","5d38dd61cd5594000137c4be","6213d34ea824646cc77cdaac","6","","","","","0","3"
"null","","","null","","","","html-keyboard-response","383","1062914","0.0-383.0","5d38dd61cd5594000137c4be","6213d34ea824646cc77cdaac","","","","","<p style=""color:darkgreen;font-size:24px;"">Correct :)</p>","",""
"2388","key","n","n","16.672798611110515","500","250","psychophysics","384","1065305","0.0-384.0","5d38dd61cd5594000137c4be","6213d34ea824646cc77cdaac","6","","","","","0","6"
"null","","","null","","","","html-keyboard-response","385","1065807","0.0-385.0","5d38dd61cd5594000137c4be","6213d34ea824646cc77cdaac","","","","","<p style=""color:darkgreen;font-size:24px;"">Correct :)</p>","",""
"2521","key","n","n","16.672443708609975","500","250","psychophysics","386","1068332","0.0-386.0","5d38dd61cd5594000137c4be","6213d34ea824646cc77cdaac","6","","","","","0","6"
"null","","","null","","","","html-keyboard-response","387","1068834","0.0-387.0","5d38dd61cd5594000137c4be","6213d34ea824646cc77cdaac","","","","","<p style=""color:darkgreen;font-size:24px;"">Correct :)</p>","",""
"2668","key","n","n","16.672950000000128","500","250","psychophysics","388","1071504","0.0-388.0","5d38dd61cd5594000137c4be","6213d34ea824646cc77cdaac","6","","","","","1","9"
"null","","","null","","","","html-keyboard-response","389","1072006","0.0-389.0","5d38dd61cd5594000137c4be","6213d34ea824646cc77cdaac","","","","","<p style=""color:darkgreen;font-size:24px;"">Correct :)</p>","",""
"2401","key","n","n","16.78825000000102","500","250","psychophysics","390","1074409","0.0-390.0","5d38dd61cd5594000137c4be","6213d34ea824646cc77cdaac","6","","","","","1","6"
"null","","","null","","","","html-keyboard-response","391","1074912","0.0-391.0","5d38dd61cd5594000137c4be","6213d34ea824646cc77cdaac","","","","","<p style=""color:darkgreen;font-size:24px;"">Correct :)</p>","",""
"2470","key","v","v","16.672310810811453","500","250","psychophysics","392","1077385","0.0-392.0","5d38dd61cd5594000137c4be","6213d34ea824646cc77cdaac","6","","","","","1","1"
"null","","","null","","","","html-keyboard-response","393","1077887","0.0-393.0","5d38dd61cd5594000137c4be","6213d34ea824646cc77cdaac","","","","","<p style=""color:darkgreen;font-size:24px;"">Correct :)</p>","",""
"2593","key","n","n","16.672647435897186","500","250","psychophysics","394","1080481","0.0-394.0","5d38dd61cd5594000137c4be","6213d34ea824646cc77cdaac","6","","","","","0","6"
"null","","","null","","","","html-keyboard-response","395","1080982","0.0-395.0","5d38dd61cd5594000137c4be","6213d34ea824646cc77cdaac","","","","","<p style=""color:darkgreen;font-size:24px;"">Correct :)</p>","",""
"4848","","","n","","","","html-keyboard-response","396","1085831","0.0-396.0","5d38dd61cd5594000137c4be","6213d34ea824646cc77cdaac","","","","","<p> Last set of trials.  Here, the tasks are going to switch once again.  We are going to do 50 of these.  And then you are done with the experiment.  </p>  <br><br>  Ready? (press v or n)","",""
"2381","key","v","v","16.674027972029183","500","250","psychophysics","397","1088215","0.0-397.0","5d38dd61cd5594000137c4be","6213d34ea824646cc77cdaac","7","","","","","1","4"
"null","","","null","","","","html-keyboard-response","398","1088717","0.0-398.0","5d38dd61cd5594000137c4be","6213d34ea824646cc77cdaac","","","","","<p style=""color:darkgreen;font-size:24px;"">Correct :)</p>","",""
"2384","key","v","v","16.67279020979043","500","250","psychophysics","399","1091102","0.0-399.0","5d38dd61cd5594000137c4be","6213d34ea824646cc77cdaac","7","","","","","0","3"
"null","","","null","","","","html-keyboard-response","400","1091604","0.0-400.0","5d38dd61cd5594000137c4be","6213d34ea824646cc77cdaac","","","","","<p style=""color:darkgreen;font-size:24px;"">Correct :)</p>","",""
"2439","key","n","n","16.67276027397259","500","250","psychophysics","401","1094045","0.0-401.0","5d38dd61cd5594000137c4be","6213d34ea824646cc77cdaac","7","","","","","0","2"
"null","","","null","","","","html-keyboard-response","402","1094546","0.0-402.0","5d38dd61cd5594000137c4be","6213d34ea824646cc77cdaac","","","","","<p style=""color:darkgreen;font-size:24px;"">Correct :)</p>","",""
"2360","key","v","v","16.672795774647966","500","250","psychophysics","403","1096911","0.0-403.0","5d38dd61cd5594000137c4be","6213d34ea824646cc77cdaac","7","","","","","1","1"
"null","","","null","","","","html-keyboard-response","404","1097412","0.0-404.0","5d38dd61cd5594000137c4be","6213d34ea824646cc77cdaac","","","","","<p style=""color:darkgreen;font-size:24px;"">Correct :)</p>","",""
"2536","key","n","n","16.672723684211775","500","250","psychophysics","405","1099950","0.0-405.0","5d38dd61cd5594000137c4be","6213d34ea824646cc77cdaac","7","","","","","0","4"
"null","","","null","","","","html-keyboard-response","406","1100451","0.0-406.0","5d38dd61cd5594000137c4be","6213d34ea824646cc77cdaac","","","","","<p style=""color:darkgreen;font-size:24px;"">Correct :)</p>","",""
"2493","key","n","n","16.672677852347768","500","250","psychophysics","407","1102947","0.0-407.0","5d38dd61cd5594000137c4be","6213d34ea824646cc77cdaac","7","","","","","0","4"
"null","","","null","","","","html-keyboard-response","408","1103450","0.0-408.0","5d38dd61cd5594000137c4be","6213d34ea824646cc77cdaac","","","","","<p style=""color:darkgreen;font-size:24px;"">Correct :)</p>","",""
"2379","key","v","v","16.672762237762758","500","250","psychophysics","409","1105832","0.0-409.0","5d38dd61cd5594000137c4be","6213d34ea824646cc77cdaac","7","","","","","1","1"
"null","","","null","","","","html-keyboard-response","410","1106333","0.0-410.0","5d38dd61cd5594000137c4be","6213d34ea824646cc77cdaac","","","","","<p style=""color:darkgreen;font-size:24px;"">Correct :)</p>","",""
"2418","key","n","n","16.672544827586812","500","250","psychophysics","411","1108753","0.0-411.0","5d38dd61cd5594000137c4be","6213d34ea824646cc77cdaac","7","","","","","1","7"
"null","","","null","","","","html-keyboard-response","412","1109254","0.0-412.0","5d38dd61cd5594000137c4be","6213d34ea824646cc77cdaac","","","","","<p style=""color:darkgreen;font-size:24px;"">Correct :)</p>","",""
"2394","key","v","v","16.672811188811593","500","250","psychophysics","413","1111651","0.0-413.0","5d38dd61cd5594000137c4be","6213d34ea824646cc77cdaac","7","","","","","0","3"
"null","","","null","","","","html-keyboard-response","414","1112152","0.0-414.0","5d38dd61cd5594000137c4be","6213d34ea824646cc77cdaac","","","","","<p style=""color:darkgreen;font-size:24px;"">Correct :)</p>","",""
"2426","key","v","v","16.672458904109615","500","250","psychophysics","415","1114581","0.0-415.0","5d38dd61cd5594000137c4be","6213d34ea824646cc77cdaac","7","","","","","1","2"
"null","","","null","","","","html-keyboard-response","416","1115081","0.0-416.0","5d38dd61cd5594000137c4be","6213d34ea824646cc77cdaac","","","","","<p style=""color:darkgreen;font-size:24px;"">Correct :)</p>","",""
"2437","key","v","v","16.6727465753418","500","250","psychophysics","417","1117521","0.0-417.0","5d38dd61cd5594000137c4be","6213d34ea824646cc77cdaac","7","","","","","1","3"
"null","","","null","","","","html-keyboard-response","418","1118022","0.0-418.0","5d38dd61cd5594000137c4be","6213d34ea824646cc77cdaac","","","","","<p style=""color:darkgreen;font-size:24px;"">Correct :)</p>","",""
"2471","key","n","n","16.672731543623925","500","250","psychophysics","419","1120495","0.0-419.0","5d38dd61cd5594000137c4be","6213d34ea824646cc77cdaac","7","","","","","0","6"
"null","","","null","","","","html-keyboard-response","420","1120997","0.0-420.0","5d38dd61cd5594000137c4be","6213d34ea824646cc77cdaac","","","","","<p style=""color:darkgreen;font-size:24px;"">Correct :)</p>","",""
"2438","key","n","n","16.672698630138033","500","250","psychophysics","421","1123437","0.0-421.0","5d38dd61cd5594000137c4be","6213d34ea824646cc77cdaac","7","","","","","0","6"
"null","","","null","","","","html-keyboard-response","422","1123939","0.0-422.0","5d38dd61cd5594000137c4be","6213d34ea824646cc77cdaac","","","","","<p style=""color:darkgreen;font-size:24px;"">Correct :)</p>","",""
"2584","key","n","n","16.671993548387","500","250","psychophysics","423","1126525","0.0-423.0","5d38dd61cd5594000137c4be","6213d34ea824646cc77cdaac","7","","","","","1","6"
"null","","","null","","","","html-keyboard-response","424","1127027","0.0-424.0","5d38dd61cd5594000137c4be","6213d34ea824646cc77cdaac","","","","","<p style=""color:darkgreen;font-size:24px;"">Correct :)</p>","",""
"2419","key","v","v","16.67340689655233","500","250","psychophysics","425","1129449","0.0-425.0","5d38dd61cd5594000137c4be","6213d34ea824646cc77cdaac","7","","","","","0","1"
"null","","","null","","","","html-keyboard-response","426","1129951","0.0-426.0","5d38dd61cd5594000137c4be","6213d34ea824646cc77cdaac","","","","","<p style=""color:darkgreen;font-size:24px;"">Correct :)</p>","",""
"2832","key","n","n","16.672823529412476","500","250","psychophysics","427","1132785","0.0-427.0","5d38dd61cd5594000137c4be","6213d34ea824646cc77cdaac","7","","","","","1","4"
"null","","","null","","","","html-keyboard-response","428","1133286","0.0-428.0","5d38dd61cd5594000137c4be","6213d34ea824646cc77cdaac","","","","","<p style=""color:red;font-size:24px;"">Error :(</p>","",""
"2421","key","v","v","16.672600000000013","500","250","psychophysics","429","1135710","0.0-429.0","5d38dd61cd5594000137c4be","6213d34ea824646cc77cdaac","7","","","","","1","3"
"null","","","null","","","","html-keyboard-response","430","1136211","0.0-430.0","5d38dd61cd5594000137c4be","6213d34ea824646cc77cdaac","","","","","<p style=""color:darkgreen;font-size:24px;"">Correct :)</p>","",""
"2432","key","n","n","16.672664383561862","500","250","psychophysics","431","1138646","0.0-431.0","5d38dd61cd5594000137c4be","6213d34ea824646cc77cdaac","7","","","","","1","7"
"null","","","null","","","","html-keyboard-response","432","1139147","0.0-432.0","5d38dd61cd5594000137c4be","6213d34ea824646cc77cdaac","","","","","<p style=""color:darkgreen;font-size:24px;"">Correct :)</p>","",""
"2461","key","n","n","16.785904761904305","500","250","psychophysics","433","1141611","0.0-433.0","5d38dd61cd5594000137c4be","6213d34ea824646cc77cdaac","7","","","","","0","6"
"null","","","null","","","","html-keyboard-response","434","1142112","0.0-434.0","5d38dd61cd5594000137c4be","6213d34ea824646cc77cdaac","","","","","<p style=""color:darkgreen;font-size:24px;"">Correct :)</p>","",""
"2477","key","v","v","16.672765100670155","500","250","psychophysics","435","1144591","0.0-435.0","5d38dd61cd5594000137c4be","6213d34ea824646cc77cdaac","7","","","","","1","1"
"null","","","null","","","","html-keyboard-response","436","1145093","0.0-436.0","5d38dd61cd5594000137c4be","6213d34ea824646cc77cdaac","","","","","<p style=""color:darkgreen;font-size:24px;"">Correct :)</p>","",""
"2444","key","v","v","16.67262585034125","500","250","psychophysics","437","1147538","0.0-437.0","5d38dd61cd5594000137c4be","6213d34ea824646cc77cdaac","7","","","","","1","3"
"null","","","null","","","","html-keyboard-response","438","1148040","0.0-438.0","5d38dd61cd5594000137c4be","6213d34ea824646cc77cdaac","","","","","<p style=""color:darkgreen;font-size:24px;"">Correct :)</p>","",""
"2395","key","v","v","16.67279166666655","500","250","psychophysics","439","1150437","0.0-439.0","5d38dd61cd5594000137c4be","6213d34ea824646cc77cdaac","7","","","","","1","2"
"null","","","null","","","","html-keyboard-response","440","1150940","0.0-440.0","5d38dd61cd5594000137c4be","6213d34ea824646cc77cdaac","","","","","<p style=""color:darkgreen;font-size:24px;"">Correct :)</p>","",""
"2438","key","n","n","16.672753424657994","500","250","psychophysics","441","1153381","0.0-441.0","5d38dd61cd5594000137c4be","6213d34ea824646cc77cdaac","7","","","","","1","6"
"null","","","null","","","","html-keyboard-response","442","1153882","0.0-442.0","5d38dd61cd5594000137c4be","6213d34ea824646cc77cdaac","","","","","<p style=""color:darkgreen;font-size:24px;"">Correct :)</p>","",""
"2421","key","v","v","16.672965753424837","500","250","psychophysics","443","1156305","0.0-443.0","5d38dd61cd5594000137c4be","6213d34ea824646cc77cdaac","7","","","","","0","1"
"null","","","null","","","","html-keyboard-response","444","1156808","0.0-444.0","5d38dd61cd5594000137c4be","6213d34ea824646cc77cdaac","","","","","<p style=""color:darkgreen;font-size:24px;"">Correct :)</p>","",""
"2417","key","n","n","16.672655172413215","500","250","psychophysics","445","1159227","0.0-445.0","5d38dd61cd5594000137c4be","6213d34ea824646cc77cdaac","7","","","","","1","7"
"null","","","null","","","","html-keyboard-response","446","1159729","0.0-446.0","5d38dd61cd5594000137c4be","6213d34ea824646cc77cdaac","","","","","<p style=""color:darkgreen;font-size:24px;"">Correct :)</p>","",""
"2423","key","n","n","16.67286206896513","500","250","psychophysics","447","1162154","0.0-447.0","5d38dd61cd5594000137c4be","6213d34ea824646cc77cdaac","7","","","","","1","6"
"null","","","null","","","","html-keyboard-response","448","1162656","0.0-448.0","5d38dd61cd5594000137c4be","6213d34ea824646cc77cdaac","","","","","<p style=""color:darkgreen;font-size:24px;"">Correct :)</p>","",""
"2419","key","n","n","16.672668965517317","500","250","psychophysics","449","1165078","0.0-449.0","5d38dd61cd5594000137c4be","6213d34ea824646cc77cdaac","7","","","","","1","6"
"null","","","null","","","","html-keyboard-response","450","1165579","0.0-450.0","5d38dd61cd5594000137c4be","6213d34ea824646cc77cdaac","","","","","<p style=""color:darkgreen;font-size:24px;"">Correct :)</p>","",""
"2376","key","n","n","16.67259859154821","500","250","psychophysics","451","1167957","0.0-451.0","5d38dd61cd5594000137c4be","6213d34ea824646cc77cdaac","7","","","","","0","6"
"null","","","null","","","","html-keyboard-response","452","1168459","0.0-452.0","5d38dd61cd5594000137c4be","6213d34ea824646cc77cdaac","","","","","<p style=""color:darkgreen;font-size:24px;"">Correct :)</p>","",""
"2424","key","v","v","16.673827586205803","500","250","psychophysics","453","1170886","0.0-453.0","5d38dd61cd5594000137c4be","6213d34ea824646cc77cdaac","7","","","","","0","7"
"null","","","null","","","","html-keyboard-response","454","1171388","0.0-454.0","5d38dd61cd5594000137c4be","6213d34ea824646cc77cdaac","","","","","<p style=""color:darkgreen;font-size:24px;"">Correct :)</p>","",""
"2525","key","n","n","16.67257236842201","500","250","psychophysics","455","1173915","0.0-455.0","5d38dd61cd5594000137c4be","6213d34ea824646cc77cdaac","7","","","","","0","2"
"null","","","null","","","","html-keyboard-response","456","1174416","0.0-456.0","5d38dd61cd5594000137c4be","6213d34ea824646cc77cdaac","","","","","<p style=""color:darkgreen;font-size:24px;"">Correct :)</p>","",""
"2395","key","v","v","16.67266666666708","500","250","psychophysics","457","1176813","0.0-457.0","5d38dd61cd5594000137c4be","6213d34ea824646cc77cdaac","7","","","","","0","7"
"null","","","null","","","","html-keyboard-response","458","1177314","0.0-458.0","5d38dd61cd5594000137c4be","6213d34ea824646cc77cdaac","","","","","<p style=""color:darkgreen;font-size:24px;"">Correct :)</p>","",""
"2522","key","n","n","16.672708609272473","500","250","psychophysics","459","1179839","0.0-459.0","5d38dd61cd5594000137c4be","6213d34ea824646cc77cdaac","7","","","","","0","2"
"null","","","null","","","","html-keyboard-response","460","1180340","0.0-460.0","5d38dd61cd5594000137c4be","6213d34ea824646cc77cdaac","","","","","<p style=""color:darkgreen;font-size:24px;"">Correct :)</p>","",""
"2412","key","v","v","16.672731034483377","500","250","psychophysics","461","1182754","0.0-461.0","5d38dd61cd5594000137c4be","6213d34ea824646cc77cdaac","7","","","","","1","2"
"null","","","null","","","","html-keyboard-response","462","1183256","0.0-462.0","5d38dd61cd5594000137c4be","6213d34ea824646cc77cdaac","","","","","<p style=""color:darkgreen;font-size:24px;"">Correct :)</p>","",""
"2427","key","n","n","16.672780821917975","500","250","psychophysics","463","1185686","0.0-463.0","5d38dd61cd5594000137c4be","6213d34ea824646cc77cdaac","7","","","","","0","2"
"null","","","null","","","","html-keyboard-response","464","1186187","0.0-464.0","5d38dd61cd5594000137c4be","6213d34ea824646cc77cdaac","","","","","<p style=""color:darkgreen;font-size:24px;"">Correct :)</p>","",""
"2402","key","v","v","16.67313194444513","500","250","psychophysics","465","1188591","0.0-465.0","5d38dd61cd5594000137c4be","6213d34ea824646cc77cdaac","7","","","","","0","1"
"null","","","null","","","","html-keyboard-response","466","1189093","0.0-466.0","5d38dd61cd5594000137c4be","6213d34ea824646cc77cdaac","","","","","<p style=""color:darkgreen;font-size:24px;"">Correct :)</p>","",""
"2463","key","n","n","16.672513513514343","500","250","psychophysics","467","1191558","0.0-467.0","5d38dd61cd5594000137c4be","6213d34ea824646cc77cdaac","7","","","","","1","6"
"null","","","null","","","","html-keyboard-response","468","1192060","0.0-468.0","5d38dd61cd5594000137c4be","6213d34ea824646cc77cdaac","","","","","<p style=""color:darkgreen;font-size:24px;"">Correct :)</p>","",""
"2901","key","v","v","16.6727758620681","500","250","psychophysics","469","1194963","0.0-469.0","5d38dd61cd5594000137c4be","6213d34ea824646cc77cdaac","7","","","","","1","7"
"null","","","null","","","","html-keyboard-response","470","1195465","0.0-470.0","5d38dd61cd5594000137c4be","6213d34ea824646cc77cdaac","","","","","<p style=""color:red;font-size:24px;"">Error :(</p>","",""
"2536","key","n","n","16.672756578947883","500","250","psychophysics","471","1198003","0.0-471.0","5d38dd61cd5594000137c4be","6213d34ea824646cc77cdaac","7","","","","","1","7"
"null","","","null","","","","html-keyboard-response","472","1198504","0.0-472.0","5d38dd61cd5594000137c4be","6213d34ea824646cc77cdaac","","","","","<p style=""color:darkgreen;font-size:24px;"">Correct :)</p>","",""
"2381","key","v","v","16.672853146852287","500","250","psychophysics","473","1200887","0.0-473.0","5d38dd61cd5594000137c4be","6213d34ea824646cc77cdaac","7","","","","","1","4"
"null","","","null","","","","html-keyboard-response","474","1201390","0.0-474.0","5d38dd61cd5594000137c4be","6213d34ea824646cc77cdaac","","","","","<p style=""color:darkgreen;font-size:24px;"">Correct :)</p>","",""
"2441","key","v","v","16.672808219177956","500","250","psychophysics","475","1203833","0.0-475.0","5d38dd61cd5594000137c4be","6213d34ea824646cc77cdaac","7","","","","","0","3"
"null","","","null","","","","html-keyboard-response","476","1204334","0.0-476.0","5d38dd61cd5594000137c4be","6213d34ea824646cc77cdaac","","","","","<p style=""color:darkgreen;font-size:24px;"">Correct :)</p>","",""
"2419","key","n","n","16.672616438356496","500","250","psychophysics","477","1206756","0.0-477.0","5d38dd61cd5594000137c4be","6213d34ea824646cc77cdaac","7","","","","","0","4"
"null","","","null","","","","html-keyboard-response","478","1207260","0.0-478.0","5d38dd61cd5594000137c4be","6213d34ea824646cc77cdaac","","","","","<p style=""color:darkgreen;font-size:24px;"">Correct :)</p>","",""
"2402","key","n","n","16.67268055555501","500","250","psychophysics","479","1209664","0.0-479.0","5d38dd61cd5594000137c4be","6213d34ea824646cc77cdaac","7","","","","","1","6"
"null","","","null","","","","html-keyboard-response","480","1210166","0.0-480.0","5d38dd61cd5594000137c4be","6213d34ea824646cc77cdaac","","","","","<p style=""color:darkgreen;font-size:24px;"">Correct :)</p>","",""
"2440","key","n","n","16.6736849315069","500","250","psychophysics","481","1212607","0.0-481.0","5d38dd61cd5594000137c4be","6213d34ea824646cc77cdaac","7","","","","","0","6"
"null","","","null","","","","html-keyboard-response","482","1213109","0.0-482.0","5d38dd61cd5594000137c4be","6213d34ea824646cc77cdaac","","","","","<p style=""color:darkgreen;font-size:24px;"">Correct :)</p>","",""
"2429","key","v","v","16.673006896552597","500","250","psychophysics","483","1215541","0.0-483.0","5d38dd61cd5594000137c4be","6213d34ea824646cc77cdaac","7","","","","","0","3"
"null","","","null","","","","html-keyboard-response","484","1216042","0.0-484.0","5d38dd61cd5594000137c4be","6213d34ea824646cc77cdaac","","","","","<p style=""color:darkgreen;font-size:24px;"">Correct :)</p>","",""
"2406","key","v","v","16.788833333334576","500","250","psychophysics","485","1218450","0.0-485.0","5d38dd61cd5594000137c4be","6213d34ea824646cc77cdaac","7","","","","","1","2"
"null","","","null","","","","html-keyboard-response","486","1218952","0.0-486.0","5d38dd61cd5594000137c4be","6213d34ea824646cc77cdaac","","","","","<p style=""color:darkgreen;font-size:24px;"">Correct :)</p>","",""
"2414","key","v","v","16.672655172413215","500","250","psychophysics","487","1221368","0.0-487.0","5d38dd61cd5594000137c4be","6213d34ea824646cc77cdaac","7","","","","","1","3"
"null","","","null","","","","html-keyboard-response","488","1221869","0.0-488.0","5d38dd61cd5594000137c4be","6213d34ea824646cc77cdaac","","","","","<p style=""color:darkgreen;font-size:24px;"">Correct :)</p>","",""
"2408","key","v","v","16.67262758620822","500","250","psychophysics","489","1224280","0.0-489.0","5d38dd61cd5594000137c4be","6213d34ea824646cc77cdaac","7","","","","","1","3"
"null","","","null","","","","html-keyboard-response","490","1224782","0.0-490.0","5d38dd61cd5594000137c4be","6213d34ea824646cc77cdaac","","","","","<p style=""color:darkgreen;font-size:24px;"">Correct :)</p>","",""
"2422","key","n","n","16.672724137932125","500","250","psychophysics","491","1227206","0.0-491.0","5d38dd61cd5594000137c4be","6213d34ea824646cc77cdaac","7","","","","","1","6"
"null","","","null","","","","html-keyboard-response","492","1227707","0.0-492.0","5d38dd61cd5594000137c4be","6213d34ea824646cc77cdaac","","","","","<p style=""color:darkgreen;font-size:24px;"">Correct :)</p>","",""
"2394","key","v","v","16.67287500000061","500","250","psychophysics","493","1230103","0.0-493.0","5d38dd61cd5594000137c4be","6213d34ea824646cc77cdaac","7","","","","","0","3"
"null","","","null","","","","html-keyboard-response","494","1230605","0.0-494.0","5d38dd61cd5594000137c4be","6213d34ea824646cc77cdaac","","","","","<p style=""color:darkgreen;font-size:24px;"">Correct :)</p>","",""
"2598","key","v","v","16.672756410256113","500","250","psychophysics","495","1233205","0.0-495.0","5d38dd61cd5594000137c4be","6213d34ea824646cc77cdaac","7","","","","","1","2"
"null","","","null","","","","html-keyboard-response","496","1233706","0.0-496.0","5d38dd61cd5594000137c4be","6213d34ea824646cc77cdaac","","","","","<p style=""color:darkgreen;font-size:24px;"">Correct :)</p>","",""
