"rt","response_type","key_press","response","avg_frame_time","center_x","center_y","trial_type","trial_index","time_elapsed","internal_node_id","pid","sid","phase","guide","targ","resp","stimulus","is5","stim"
"27827","key"," "," ","16.659359281437126","499.84","249.92","psychophysics","0","27840","0.0-0.0","5bc3fb6d21f69f00011d9ad2","620a70404b4e5ee1bbdda961","","","","","","",""
"15344","key"," "," ","16.659389130434782","499.84","249.92","psychophysics","1","43187","0.0-1.0","5bc3fb6d21f69f00011d9ad2","620a70404b4e5ee1bbdda961","","","","","","",""
"4375","key"," "," ","16.65985114503817","500","250","psychophysics","2","47566","0.0-2.0","5bc3fb6d21f69f00011d9ad2","620a70404b4e5ee1bbdda961","","","","","","",""
"2463","key"," "," ","16.659601351351345","500","250","psychophysics","3","50044","0.0-3.0","5bc3fb6d21f69f00011d9ad2","620a70404b4e5ee1bbdda961","","","","","","",""
"2013","key"," "," ","16.659158333333348","500","250","psychophysics","4","52060","0.0-4.0","5bc3fb6d21f69f00011d9ad2","620a70404b4e5ee1bbdda961","","","","","","",""
"8055","key"," "," ","16.65931327800831","500","250","psychophysics","5","60118","0.0-5.0","5bc3fb6d21f69f00011d9ad2","620a70404b4e5ee1bbdda961","","","","","","",""
"3567","key"," "," ","16.660014018691566","500","250","psychophysics","6","63691","0.0-6.0","5bc3fb6d21f69f00011d9ad2","620a70404b4e5ee1bbdda961","","","","","","",""
"5496","key"," "," ","16.65910030395136","500","250","psychophysics","7","69190","0.0-7.0","5bc3fb6d21f69f00011d9ad2","620a70404b4e5ee1bbdda961","","","","","","",""
"17184","key"," "," ","16.659261881668275","500","250","psychophysics","8","86377","0.0-8.0","5bc3fb6d21f69f00011d9ad2","620a70404b4e5ee1bbdda961","0","0","26","26","","",""
"6191","key"," "," ","16.659681081081107","500","250","psychophysics","9","92571","0.0-9.0","5bc3fb6d21f69f00011d9ad2","620a70404b4e5ee1bbdda961","","","","","","",""
"3794","key"," "," ","16.659912280701782","500","250","psychophysics","10","96371","0.0-10.0","5bc3fb6d21f69f00011d9ad2","620a70404b4e5ee1bbdda961","","","","","","",""
"60925","key"," "," ","16.65924617067834","500","250","psychophysics","11","157299","0.0-11.0","5bc3fb6d21f69f00011d9ad2","620a70404b4e5ee1bbdda961","","","","","","",""
"3693","key"," "," ","16.65979638009051","500","250","psychophysics","12","160994","0.0-12.0","5bc3fb6d21f69f00011d9ad2","620a70404b4e5ee1bbdda961","","","","","","",""
"2807","key"," "," ","16.659119760479065","500","250","psychophysics","13","163804","0.0-13.0","5bc3fb6d21f69f00011d9ad2","620a70404b4e5ee1bbdda961","","","","","","",""
"3051","key"," "," ","16.66019672131143","500","250","psychophysics","14","166860","0.0-14.0","5bc3fb6d21f69f00011d9ad2","620a70404b4e5ee1bbdda961","","","","","","",""
"3356","key"," "," ","16.659314999999914","500","250","psychophysics","15","170219","0.0-15.0","5bc3fb6d21f69f00011d9ad2","620a70404b4e5ee1bbdda961","","","","","","",""
"3820","key"," "," ","16.6597947598253","500","250","psychophysics","16","174044","0.0-16.0","5bc3fb6d21f69f00011d9ad2","620a70404b4e5ee1bbdda961","","","","","","",""
"87201","key"," "," ","16.659282575468094","500","250","psychophysics","17","261248","0.0-17.0","5bc3fb6d21f69f00011d9ad2","620a70404b4e5ee1bbdda961","1","0","50","59","","",""
"27534","key"," "," ","16.659201573849874","500","250","psychophysics","18","288785","0.0-18.0","5bc3fb6d21f69f00011d9ad2","620a70404b4e5ee1bbdda961","1","5","38","36","","",""
"19257","key"," "," ","16.659343722943735","500","250","psychophysics","19","308044","0.0-19.0","5bc3fb6d21f69f00011d9ad2","620a70404b4e5ee1bbdda961","1","0","31","35","","",""
"27668","key"," "," ","16.659284337349405","500","250","psychophysics","20","335715","0.0-20.0","5bc3fb6d21f69f00011d9ad2","620a70404b4e5ee1bbdda961","1","5","47","45","","",""
"19922","key"," "," ","16.65919497907946","500","250","psychophysics","21","355639","0.0-21.0","5bc3fb6d21f69f00011d9ad2","620a70404b4e5ee1bbdda961","1","0","32","31","","",""
"20370","key"," "," ","16.65928009828012","500","250","psychophysics","22","376011","0.0-22.0","5bc3fb6d21f69f00011d9ad2","620a70404b4e5ee1bbdda961","1","5","44","41","","",""
"16807","key"," "," ","16.65942418235877","500","250","psychophysics","23","392823","0.0-23.0","5bc3fb6d21f69f00011d9ad2","620a70404b4e5ee1bbdda961","1","0","45","44","","",""
"38044","key"," "," ","16.659297107800178","500","250","psychophysics","24","430870","0.0-24.0","5bc3fb6d21f69f00011d9ad2","620a70404b4e5ee1bbdda961","1","5","22","20","","",""
"27875","key"," "," ","16.65937895995215","500","250","psychophysics","25","458751","0.0-25.0","5bc3fb6d21f69f00011d9ad2","620a70404b4e5ee1bbdda961","1","0","33","33","","",""
"38816","key"," "," ","16.659199656504942","500","250","psychophysics","26","497569","0.0-26.0","5bc3fb6d21f69f00011d9ad2","620a70404b4e5ee1bbdda961","1","5","46","48","","",""
"20576","key"," "," ","16.659459481361463","500","250","psychophysics","27","518147","0.0-27.0","5bc3fb6d21f69f00011d9ad2","620a70404b4e5ee1bbdda961","1","0","26","26","","",""
"19635","key"," "," ","16.65946689303906","500","250","psychophysics","28","537786","0.0-28.0","5bc3fb6d21f69f00011d9ad2","620a70404b4e5ee1bbdda961","1","5","60","60","","",""
"26180","key"," "," ","16.65936091661364","500","250","psychophysics","29","563969","0.0-29.0","5bc3fb6d21f69f00011d9ad2","620a70404b4e5ee1bbdda961","1","0","36","43","","",""
"25192","key"," "," ","16.659199867637387","500","250","psychophysics","30","589163","0.0-30.0","5bc3fb6d21f69f00011d9ad2","620a70404b4e5ee1bbdda961","1","5","50","52","","",""
"25340","key"," "," ","16.65927105263162","500","250","psychophysics","31","614506","0.0-31.0","5bc3fb6d21f69f00011d9ad2","620a70404b4e5ee1bbdda961","1","0","58","63","","",""
"11044","key"," "," ","16.659520361990932","500","250","psychophysics","32","625554","0.0-32.0","5bc3fb6d21f69f00011d9ad2","620a70404b4e5ee1bbdda961","1","5","20","17","","",""
"26929","key"," "," ","16.65929102167183","500","250","psychophysics","33","652486","0.0-33.0","5bc3fb6d21f69f00011d9ad2","620a70404b4e5ee1bbdda961","1","0","50","53","","",""
"7933","key"," "," ","16.659102941176485","500","250","psychophysics","34","660421","0.0-34.0","5bc3fb6d21f69f00011d9ad2","620a70404b4e5ee1bbdda961","1","5","22","21","","",""
"10128","key"," "," ","16.65929654036239","500","250","psychophysics","35","670552","0.0-35.0","5bc3fb6d21f69f00011d9ad2","620a70404b4e5ee1bbdda961","1","0","35","39","","",""
"14192","key"," "," ","16.659332549941183","500","250","psychophysics","36","684746","0.0-36.0","5bc3fb6d21f69f00011d9ad2","620a70404b4e5ee1bbdda961","1","5","45","39","","",""
"3753","key"," "," ","16.658790178571508","500","250","psychophysics","37","688501","0.0-37.0","5bc3fb6d21f69f00011d9ad2","620a70404b4e5ee1bbdda961","","","","","","",""
"4690","key"," "," ","16.65919928825618","500","250","psychophysics","38","693193","0.0-38.0","5bc3fb6d21f69f00011d9ad2","620a70404b4e5ee1bbdda961","","","","","","",""
"2662","key"," "," ","16.659742138364628","500","250","psychophysics","39","695857","0.0-39.0","5bc3fb6d21f69f00011d9ad2","620a70404b4e5ee1bbdda961","","","","","","",""
"10179","key"," "," ","16.65931311475407","500","250","psychophysics","40","706038","0.0-40.0","5bc3fb6d21f69f00011d9ad2","620a70404b4e5ee1bbdda961","2","0","20","24","","",""
"3496","key"," "," ","16.660263157894715","500","250","psychophysics","41","709538","0.0-41.0","5bc3fb6d21f69f00011d9ad2","620a70404b4e5ee1bbdda961","","","","","","",""
"24056","key"," "," ","16.659349272349267","500","250","psychophysics","42","733596","0.0-42.0","5bc3fb6d21f69f00011d9ad2","620a70404b4e5ee1bbdda961","2","0","31","33","","",""
"2391","key"," "," ","16.660125874126187","500","250","psychophysics","43","735989","0.0-43.0","5bc3fb6d21f69f00011d9ad2","620a70404b4e5ee1bbdda961","","","","","","",""
"48192","key"," "," ","16.65926798063624","500","250","psychophysics","44","784183","0.0-44.0","5bc3fb6d21f69f00011d9ad2","620a70404b4e5ee1bbdda961","2","0","39","44","","",""
"3327","key"," "," ","16.659328282828387","500","250","psychophysics","45","787512","0.0-45.0","5bc3fb6d21f69f00011d9ad2","620a70404b4e5ee1bbdda961","","","","","","",""
"24625","key"," "," ","16.659380920162345","500","250","psychophysics","46","812142","0.0-46.0","5bc3fb6d21f69f00011d9ad2","620a70404b4e5ee1bbdda961","2","0","25","37","","",""
"3136","key"," "," ","16.659641711229963","500","250","psychophysics","47","815280","0.0-47.0","5bc3fb6d21f69f00011d9ad2","620a70404b4e5ee1bbdda961","","","","","","",""
"31816","key"," "," ","16.659323205866908","500","250","psychophysics","48","847099","0.0-48.0","5bc3fb6d21f69f00011d9ad2","620a70404b4e5ee1bbdda961","2","0","57","58","","",""
"2503","key"," "," ","16.65828000000057","500","250","psychophysics","49","849604","0.0-49.0","5bc3fb6d21f69f00011d9ad2","620a70404b4e5ee1bbdda961","","","","","","",""
"6870","key"," "," ","16.659576642335793","500","250","psychophysics","50","856477","0.0-50.0","5bc3fb6d21f69f00011d9ad2","620a70404b4e5ee1bbdda961","2","0","23","27","","",""
"2060","key"," "," ","16.659349593495747","500","250","psychophysics","51","858538","0.0-51.0","5bc3fb6d21f69f00011d9ad2","620a70404b4e5ee1bbdda961","","","","","","",""
"28244","key"," "," ","16.65934651711922","500","250","psychophysics","52","886784","0.0-52.0","5bc3fb6d21f69f00011d9ad2","620a70404b4e5ee1bbdda961","2","0","48","37","","",""
"2786","key"," "," ","16.660179640718564","500","250","psychophysics","53","889575","0.0-53.0","5bc3fb6d21f69f00011d9ad2","620a70404b4e5ee1bbdda961","","","","","","",""
"21800","key"," "," ","16.659285932721726","500","250","psychophysics","54","911378","0.0-54.0","5bc3fb6d21f69f00011d9ad2","620a70404b4e5ee1bbdda961","2","0","43","46","","",""
"2270","key"," "," ","16.658933333333376","500","250","psychophysics","55","913650","0.0-55.0","5bc3fb6d21f69f00011d9ad2","620a70404b4e5ee1bbdda961","","","","","","",""
"5980","key"," "," ","16.659248603351788","500","250","psychophysics","56","919633","0.0-56.0","5bc3fb6d21f69f00011d9ad2","620a70404b4e5ee1bbdda961","2","0","42","44","","",""
"2189","key"," "," ","16.658992366412058","500","250","psychophysics","57","921825","0.0-57.0","5bc3fb6d21f69f00011d9ad2","620a70404b4e5ee1bbdda961","","","","","","",""
"7805","key"," "," ","16.659132762312513","500","250","psychophysics","58","929632","0.0-58.0","5bc3fb6d21f69f00011d9ad2","620a70404b4e5ee1bbdda961","2","0","53","60","","",""
"2631","key"," "," ","16.661215189873843","500","250","psychophysics","59","932267","0.0-59.0","5bc3fb6d21f69f00011d9ad2","620a70404b4e5ee1bbdda961","","","","","","",""
"27595","key"," "," ","16.65930453172204","500","250","psychophysics","60","959864","0.0-60.0","5bc3fb6d21f69f00011d9ad2","620a70404b4e5ee1bbdda961","2","0","34","38","","",""
"2035","key"," "," ","16.658950413223202","500","250","psychophysics","61","961901","0.0-61.0","5bc3fb6d21f69f00011d9ad2","620a70404b4e5ee1bbdda961","","","","","","",""
"28177","key"," "," ","16.65939089296276","500","250","psychophysics","62","990082","0.0-62.0","5bc3fb6d21f69f00011d9ad2","620a70404b4e5ee1bbdda961","2","0","51","60","","",""
"2416","key"," "," ","16.660868055555813","500","250","psychophysics","63","992500","0.0-63.0","5bc3fb6d21f69f00011d9ad2","620a70404b4e5ee1bbdda961","","","","","","",""
"6374","key"," "," ","16.65934031413617","500","250","psychophysics","64","998876","0.0-64.0","5bc3fb6d21f69f00011d9ad2","620a70404b4e5ee1bbdda961","2","0","23","26","","",""
"2240","key"," "," ","16.65951127819612","500","250","psychophysics","65","1001118","0.0-65.0","5bc3fb6d21f69f00011d9ad2","620a70404b4e5ee1bbdda961","","","","","","",""
"5893","key"," "," ","16.659467422096363","500","250","psychophysics","66","1007015","0.0-66.0","5bc3fb6d21f69f00011d9ad2","620a70404b4e5ee1bbdda961","2","0","43","51","","",""
"1649","key"," "," ","16.6601919191913","500","250","psychophysics","67","1008669","0.0-67.0","5bc3fb6d21f69f00011d9ad2","620a70404b4e5ee1bbdda961","","","","","","",""
"4407","key"," "," ","16.65933840304167","500","250","psychophysics","68","1013078","0.0-68.0","5bc3fb6d21f69f00011d9ad2","620a70404b4e5ee1bbdda961","2","0","24","32","","",""
"2662","key"," "," ","16.66030624999985","500","250","psychophysics","69","1015752","0.0-69.0","5bc3fb6d21f69f00011d9ad2","620a70404b4e5ee1bbdda961","","","","","","",""
"3567","key"," "," ","16.65904225352135","500","250","psychophysics","70","1019321","0.0-70.0","5bc3fb6d21f69f00011d9ad2","620a70404b4e5ee1bbdda961","","","","","","",""
"2098","key"," "," ","16.659416000000203","500","250","psychophysics","71","1021421","0.0-71.0","5bc3fb6d21f69f00011d9ad2","620a70404b4e5ee1bbdda961","","","","","","",""
"11753","key"," "," ","16.65961560283685","500","250","psychophysics","72","1033176","0.0-72.0","5bc3fb6d21f69f00011d9ad2","620a70404b4e5ee1bbdda961","3","5","50","47","","",""
"139","key"," "," ","16.65885714286872","500","250","psychophysics","73","1033317","0.0-73.0","5bc3fb6d21f69f00011d9ad2","620a70404b4e5ee1bbdda961","3","0","29","10","","",""
"4521","key"," "," ","16.65956826568272","500","250","psychophysics","74","1037840","0.0-74.0","5bc3fb6d21f69f00011d9ad2","620a70404b4e5ee1bbdda961","3","5","21","25","","",""
"32973","key"," "," ","16.65932760364005","500","250","psychophysics","75","1070816","0.0-75.0","5bc3fb6d21f69f00011d9ad2","620a70404b4e5ee1bbdda961","3","0","58","64","","",""
"6851","key"," "," ","16.659233576642496","500","250","psychophysics","76","1077669","0.0-76.0","5bc3fb6d21f69f00011d9ad2","620a70404b4e5ee1bbdda961","3","5","29","26","","",""
"5869","key"," "," ","16.659242165242414","500","250","psychophysics","77","1083541","0.0-77.0","5bc3fb6d21f69f00011d9ad2","620a70404b4e5ee1bbdda961","3","0","47","50","","",""
"8936","key"," "," ","16.65909141791053","500","250","psychophysics","78","1092480","0.0-78.0","5bc3fb6d21f69f00011d9ad2","620a70404b4e5ee1bbdda961","3","5","40","32","","",""
"6325","key"," "," ","16.65902910052944","500","250","psychophysics","79","1098808","0.0-79.0","5bc3fb6d21f69f00011d9ad2","620a70404b4e5ee1bbdda961","3","0","32","34","","",""
"5802","key"," "," ","16.659266475644788","500","250","psychophysics","80","1104624","0.0-80.0","5bc3fb6d21f69f00011d9ad2","620a70404b4e5ee1bbdda961","3","5","46","37","","",""
"8205","key"," "," ","16.65929531568212","500","250","psychophysics","81","1112831","0.0-81.0","5bc3fb6d21f69f00011d9ad2","620a70404b4e5ee1bbdda961","3","0","45","56","","",""
"7839","key"," "," ","16.659304255318947","500","250","psychophysics","82","1120673","0.0-82.0","5bc3fb6d21f69f00011d9ad2","620a70404b4e5ee1bbdda961","3","5","49","39","","",""
"5909","key"," "," ","16.659101694915048","500","250","psychophysics","83","1126585","0.0-83.0","5bc3fb6d21f69f00011d9ad2","620a70404b4e5ee1bbdda961","3","0","22","30","","",""
"4336","key"," "," ","16.660073359073483","500","250","psychophysics","84","1130923","0.0-84.0","5bc3fb6d21f69f00011d9ad2","620a70404b4e5ee1bbdda961","3","5","27","24","","",""
"8789","key"," "," ","16.659396584440408","500","250","psychophysics","85","1139714","0.0-85.0","5bc3fb6d21f69f00011d9ad2","620a70404b4e5ee1bbdda961","3","0","57","61","","",""
"4607","key"," "," ","16.659637681159623","500","250","psychophysics","86","1144324","0.0-86.0","5bc3fb6d21f69f00011d9ad2","620a70404b4e5ee1bbdda961","3","5","37","29","","",""
"8011","key"," "," ","16.659281250000156","500","250","psychophysics","87","1152337","0.0-87.0","5bc3fb6d21f69f00011d9ad2","620a70404b4e5ee1bbdda961","3","0","22","33","","",""
"8551","key"," "," ","16.65924414062465","500","250","psychophysics","88","1160891","0.0-88.0","5bc3fb6d21f69f00011d9ad2","620a70404b4e5ee1bbdda961","3","5","41","33","","",""
"8332","key"," "," ","16.659268537074336","500","250","psychophysics","89","1169225","0.0-89.0","5bc3fb6d21f69f00011d9ad2","620a70404b4e5ee1bbdda961","3","0","23","40","","",""
"4284","key"," "," ","16.659420233462658","500","250","psychophysics","90","1173514","0.0-90.0","5bc3fb6d21f69f00011d9ad2","620a70404b4e5ee1bbdda961","3","5","26","27","","",""
"7964","key"," "," ","16.65948846960192","500","250","psychophysics","91","1181480","0.0-91.0","5bc3fb6d21f69f00011d9ad2","620a70404b4e5ee1bbdda961","3","0","54","61","","",""
"2537","key"," "," ","16.658099337747714","500","250","psychophysics","92","1184019","0.0-92.0","5bc3fb6d21f69f00011d9ad2","620a70404b4e5ee1bbdda961","","","","","","",""
"53705","","","v","","","","html-keyboard-response","93","1237725","0.0-93.0","5bc3fb6d21f69f00011d9ad2","620a70404b4e5ee1bbdda961","","","","","<p> In this part of the experiment, we are going present digits 1, 2, 3, 4, 6, 7, 8, and 9.  Notice that 5 is missing.  Your job is to say whether the presented digit is less than or greater than 5.  For example, 3 is less than 5 and 7 is greater than 5.  If the digit is less than 5, press the v key; if it is greater than 5, press the n key. We are going to do 200 of these in total, but only 50 righ now. They go real fast.</p>  <br><br>  Ready? (press v or n)","",""
"2871","key","v","v","16.66320809248614","500","250","psychophysics","94","1240600","0.0-94.0","5bc3fb6d21f69f00011d9ad2","620a70404b4e5ee1bbdda961","4","","","","","1","3"
"null","","","null","","","","html-keyboard-response","95","1241102","0.0-95.0","5bc3fb6d21f69f00011d9ad2","620a70404b4e5ee1bbdda961","","","","","<p style=""color:darkgreen;font-size:24px;"">Correct :)</p>","",""
"2493","key","v","v","16.65827333333281","500","250","psychophysics","96","1243598","0.0-96.0","5bc3fb6d21f69f00011d9ad2","620a70404b4e5ee1bbdda961","4","","","","","1","3"
"null","","","null","","","","html-keyboard-response","97","1244100","0.0-97.0","5bc3fb6d21f69f00011d9ad2","620a70404b4e5ee1bbdda961","","","","","<p style=""color:darkgreen;font-size:24px;"">Correct :)</p>","",""
"2562","key","n","n","16.659785714286212","500","250","psychophysics","98","1246665","0.0-98.0","5bc3fb6d21f69f00011d9ad2","620a70404b4e5ee1bbdda961","4","","","","","1","8"
"null","","","null","","","","html-keyboard-response","99","1247167","0.0-99.0","5bc3fb6d21f69f00011d9ad2","620a70404b4e5ee1bbdda961","","","","","<p style=""color:darkgreen;font-size:24px;"">Correct :)</p>","",""
"2496","key","n","n","16.659306666667884","500","250","psychophysics","100","1249665","0.0-100.0","5bc3fb6d21f69f00011d9ad2","620a70404b4e5ee1bbdda961","4","","","","","1","9"
"null","","","null","","","","html-keyboard-response","101","1250166","0.0-101.0","5bc3fb6d21f69f00011d9ad2","620a70404b4e5ee1bbdda961","","","","","<p style=""color:darkgreen;font-size:24px;"">Correct :)</p>","",""
"2543","key","v","v","16.65851633986945","500","250","psychophysics","102","1252712","0.0-102.0","5bc3fb6d21f69f00011d9ad2","620a70404b4e5ee1bbdda961","4","","","","","1","1"
"null","","","null","","","","html-keyboard-response","103","1253214","0.0-103.0","5bc3fb6d21f69f00011d9ad2","620a70404b4e5ee1bbdda961","","","","","<p style=""color:darkgreen;font-size:24px;"">Correct :)</p>","",""
"2496","key","v","v","16.65887333333337","500","250","psychophysics","104","1255713","0.0-104.0","5bc3fb6d21f69f00011d9ad2","620a70404b4e5ee1bbdda961","4","","","","","1","1"
"null","","","null","","","","html-keyboard-response","105","1256214","0.0-105.0","5bc3fb6d21f69f00011d9ad2","620a70404b4e5ee1bbdda961","","","","","<p style=""color:darkgreen;font-size:24px;"">Correct :)</p>","",""
"2572","key","v","v","16.65959354838687","500","250","psychophysics","106","1258789","0.0-106.0","5bc3fb6d21f69f00011d9ad2","620a70404b4e5ee1bbdda961","4","","","","","1","2"
"null","","","null","","","","html-keyboard-response","107","1259305","0.0-107.0","5bc3fb6d21f69f00011d9ad2","620a70404b4e5ee1bbdda961","","","","","<p style=""color:darkgreen;font-size:24px;"">Correct :)</p>","",""
"2467","key","v","v","16.65956756756861","500","250","psychophysics","108","1261774","0.0-108.0","5bc3fb6d21f69f00011d9ad2","620a70404b4e5ee1bbdda961","4","","","","","1","1"
"null","","","null","","","","html-keyboard-response","109","1262275","0.0-109.0","5bc3fb6d21f69f00011d9ad2","620a70404b4e5ee1bbdda961","","","","","<p style=""color:darkgreen;font-size:24px;"">Correct :)</p>","",""
"2487","key","n","n","16.658604026845524","500","250","psychophysics","110","1264765","0.0-110.0","5bc3fb6d21f69f00011d9ad2","620a70404b4e5ee1bbdda961","4","","","","","1","9"
"null","","","null","","","","html-keyboard-response","111","1265266","0.0-111.0","5bc3fb6d21f69f00011d9ad2","620a70404b4e5ee1bbdda961","","","","","<p style=""color:darkgreen;font-size:24px;"">Correct :)</p>","",""
"2467","key","n","n","16.772945945945605","500","250","psychophysics","112","1267736","0.0-112.0","5bc3fb6d21f69f00011d9ad2","620a70404b4e5ee1bbdda961","4","","","","","1","7"
"null","","","null","","","","html-keyboard-response","113","1268237","0.0-113.0","5bc3fb6d21f69f00011d9ad2","620a70404b4e5ee1bbdda961","","","","","<p style=""color:darkgreen;font-size:24px;"">Correct :)</p>","",""
"2633","key","v","v","16.658234177214755","500","250","psychophysics","114","1270873","0.0-114.0","5bc3fb6d21f69f00011d9ad2","620a70404b4e5ee1bbdda961","4","","","","","1","4"
"null","","","null","","","","html-keyboard-response","115","1271375","0.0-115.0","5bc3fb6d21f69f00011d9ad2","620a70404b4e5ee1bbdda961","","","","","<p style=""color:darkgreen;font-size:24px;"">Correct :)</p>","",""
"2532","key","n","n","16.657611842104846","500","250","psychophysics","116","1273908","0.0-116.0","5bc3fb6d21f69f00011d9ad2","620a70404b4e5ee1bbdda961","4","","","","","1","7"
"null","","","null","","","","html-keyboard-response","117","1274410","0.0-117.0","5bc3fb6d21f69f00011d9ad2","620a70404b4e5ee1bbdda961","","","","","<p style=""color:darkgreen;font-size:24px;"">Correct :)</p>","",""
"2542","key","n","n","16.65919607843035","500","250","psychophysics","118","1276955","0.0-118.0","5bc3fb6d21f69f00011d9ad2","620a70404b4e5ee1bbdda961","4","","","","","1","6"
"null","","","null","","","","html-keyboard-response","119","1277456","0.0-119.0","5bc3fb6d21f69f00011d9ad2","620a70404b4e5ee1bbdda961","","","","","<p style=""color:darkgreen;font-size:24px;"">Correct :)</p>","",""
"2531","key","n","n","16.659394736842888","500","250","psychophysics","120","1279990","0.0-120.0","5bc3fb6d21f69f00011d9ad2","620a70404b4e5ee1bbdda961","4","","","","","1","6"
"null","","","null","","","","html-keyboard-response","121","1280492","0.0-121.0","5bc3fb6d21f69f00011d9ad2","620a70404b4e5ee1bbdda961","","","","","<p style=""color:darkgreen;font-size:24px;"">Correct :)</p>","",""
"2502","key","n","n","16.65844370860958","500","250","psychophysics","122","1282996","0.0-122.0","5bc3fb6d21f69f00011d9ad2","620a70404b4e5ee1bbdda961","4","","","","","1","8"
"null","","","null","","","","html-keyboard-response","123","1283497","0.0-123.0","5bc3fb6d21f69f00011d9ad2","620a70404b4e5ee1bbdda961","","","","","<p style=""color:darkgreen;font-size:24px;"">Correct :)</p>","",""
"2507","key","n","n","16.659166666666668","500","250","psychophysics","124","1286008","0.0-124.0","5bc3fb6d21f69f00011d9ad2","620a70404b4e5ee1bbdda961","4","","","","","1","6"
"null","","","null","","","","html-keyboard-response","125","1286510","0.0-125.0","5bc3fb6d21f69f00011d9ad2","620a70404b4e5ee1bbdda961","","","","","<p style=""color:darkgreen;font-size:24px;"">Correct :)</p>","",""
"2489","key","v","v","16.658671140939546","500","250","psychophysics","126","1289003","0.0-126.0","5bc3fb6d21f69f00011d9ad2","620a70404b4e5ee1bbdda961","4","","","","","1","2"
"null","","","null","","","","html-keyboard-response","127","1289504","0.0-127.0","5bc3fb6d21f69f00011d9ad2","620a70404b4e5ee1bbdda961","","","","","<p style=""color:darkgreen;font-size:24px;"">Correct :)</p>","",""
"2541","key","n","n","16.659307189541412","500","250","psychophysics","128","1292050","0.0-128.0","5bc3fb6d21f69f00011d9ad2","620a70404b4e5ee1bbdda961","4","","","","","1","7"
"null","","","null","","","","html-keyboard-response","129","1292552","0.0-129.0","5bc3fb6d21f69f00011d9ad2","620a70404b4e5ee1bbdda961","","","","","<p style=""color:darkgreen;font-size:24px;"">Correct :)</p>","",""
"2586","key","n","n","16.658314102563637","500","250","psychophysics","130","1295141","0.0-130.0","5bc3fb6d21f69f00011d9ad2","620a70404b4e5ee1bbdda961","4","","","","","1","9"
"null","","","null","","","","html-keyboard-response","131","1295644","0.0-131.0","5bc3fb6d21f69f00011d9ad2","620a70404b4e5ee1bbdda961","","","","","<p style=""color:darkgreen;font-size:24px;"">Correct :)</p>","",""
"2465","key","v","v","16.658432432431475","500","250","psychophysics","132","1298113","0.0-132.0","5bc3fb6d21f69f00011d9ad2","620a70404b4e5ee1bbdda961","4","","","","","1","3"
"null","","","null","","","","html-keyboard-response","133","1298615","0.0-133.0","5bc3fb6d21f69f00011d9ad2","620a70404b4e5ee1bbdda961","","","","","<p style=""color:darkgreen;font-size:24px;"">Correct :)</p>","",""
"2610","key","v","v","16.659477707006","500","250","psychophysics","134","1301229","0.0-134.0","5bc3fb6d21f69f00011d9ad2","620a70404b4e5ee1bbdda961","4","","","","","1","3"
"null","","","null","","","","html-keyboard-response","135","1301731","0.0-135.0","5bc3fb6d21f69f00011d9ad2","620a70404b4e5ee1bbdda961","","","","","<p style=""color:darkgreen;font-size:24px;"">Correct :)</p>","",""
"2541","key","v","v","16.65825490196071","500","250","psychophysics","136","1304275","0.0-136.0","5bc3fb6d21f69f00011d9ad2","620a70404b4e5ee1bbdda961","4","","","","","1","3"
"null","","","null","","","","html-keyboard-response","137","1304776","0.0-137.0","5bc3fb6d21f69f00011d9ad2","620a70404b4e5ee1bbdda961","","","","","<p style=""color:darkgreen;font-size:24px;"">Correct :)</p>","",""
"2486","key","n","n","16.657966442951533","500","250","psychophysics","138","1307266","0.0-138.0","5bc3fb6d21f69f00011d9ad2","620a70404b4e5ee1bbdda961","4","","","","","1","9"
"null","","","null","","","","html-keyboard-response","139","1307768","0.0-139.0","5bc3fb6d21f69f00011d9ad2","620a70404b4e5ee1bbdda961","","","","","<p style=""color:darkgreen;font-size:24px;"">Correct :)</p>","",""
"2556","key","v","v","16.6586339869293","500","250","psychophysics","140","1310327","0.0-140.0","5bc3fb6d21f69f00011d9ad2","620a70404b4e5ee1bbdda961","4","","","","","1","3"
"null","","","null","","","","html-keyboard-response","141","1310829","0.0-141.0","5bc3fb6d21f69f00011d9ad2","620a70404b4e5ee1bbdda961","","","","","<p style=""color:darkgreen;font-size:24px;"">Correct :)</p>","",""
"2500","key","v","v","16.658119205299098","500","250","psychophysics","142","1313332","0.0-142.0","5bc3fb6d21f69f00011d9ad2","620a70404b4e5ee1bbdda961","4","","","","","1","1"
"null","","","null","","","","html-keyboard-response","143","1313834","0.0-143.0","5bc3fb6d21f69f00011d9ad2","620a70404b4e5ee1bbdda961","","","","","<p style=""color:darkgreen;font-size:24px;"">Correct :)</p>","",""
"2543","key","v","v","16.65867105263169","500","250","psychophysics","144","1316379","0.0-144.0","5bc3fb6d21f69f00011d9ad2","620a70404b4e5ee1bbdda961","4","","","","","1","2"
"null","","","null","","","","html-keyboard-response","145","1316880","0.0-145.0","5bc3fb6d21f69f00011d9ad2","620a70404b4e5ee1bbdda961","","","","","<p style=""color:darkgreen;font-size:24px;"">Correct :)</p>","",""
"2536","key","v","v","16.658572368421837","500","250","psychophysics","146","1319420","0.0-146.0","5bc3fb6d21f69f00011d9ad2","620a70404b4e5ee1bbdda961","4","","","","","1","2"
"null","","","null","","","","html-keyboard-response","147","1319935","0.0-147.0","5bc3fb6d21f69f00011d9ad2","620a70404b4e5ee1bbdda961","","","","","<p style=""color:darkgreen;font-size:24px;"">Correct :)</p>","",""
"2441","key","n","n","16.658993197278733","500","250","psychophysics","148","1322380","0.0-148.0","5bc3fb6d21f69f00011d9ad2","620a70404b4e5ee1bbdda961","4","","","","","1","6"
"null","","","null","","","","html-keyboard-response","149","1322883","0.0-149.0","5bc3fb6d21f69f00011d9ad2","620a70404b4e5ee1bbdda961","","","","","<p style=""color:darkgreen;font-size:24px;"">Correct :)</p>","",""
"2460","key","v","v","16.660378378378606","500","250","psychophysics","150","1325346","0.0-150.0","5bc3fb6d21f69f00011d9ad2","620a70404b4e5ee1bbdda961","4","","","","","1","2"
"null","","","null","","","","html-keyboard-response","151","1325847","0.0-151.0","5bc3fb6d21f69f00011d9ad2","620a70404b4e5ee1bbdda961","","","","","<p style=""color:darkgreen;font-size:24px;"">Correct :)</p>","",""
"2482","key","n","n","16.658765100670866","500","250","psychophysics","152","1328331","0.0-152.0","5bc3fb6d21f69f00011d9ad2","620a70404b4e5ee1bbdda961","4","","","","","1","7"
"null","","","null","","","","html-keyboard-response","153","1328833","0.0-153.0","5bc3fb6d21f69f00011d9ad2","620a70404b4e5ee1bbdda961","","","","","<p style=""color:darkgreen;font-size:24px;"">Correct :)</p>","",""
"2536","key","n","n","16.65934868421142","500","250","psychophysics","154","1331372","0.0-154.0","5bc3fb6d21f69f00011d9ad2","620a70404b4e5ee1bbdda961","4","","","","","1","7"
"null","","","null","","","","html-keyboard-response","155","1331875","0.0-155.0","5bc3fb6d21f69f00011d9ad2","620a70404b4e5ee1bbdda961","","","","","<p style=""color:darkgreen;font-size:24px;"">Correct :)</p>","",""
"2446","key","n","n","16.6592517006797","500","250","psychophysics","156","1334323","0.0-156.0","5bc3fb6d21f69f00011d9ad2","620a70404b4e5ee1bbdda961","4","","","","","1","7"
"null","","","null","","","","html-keyboard-response","157","1334825","0.0-157.0","5bc3fb6d21f69f00011d9ad2","620a70404b4e5ee1bbdda961","","","","","<p style=""color:darkgreen;font-size:24px;"">Correct :)</p>","",""
"2446","key","n","n","16.658013605441404","500","250","psychophysics","158","1337274","0.0-158.0","5bc3fb6d21f69f00011d9ad2","620a70404b4e5ee1bbdda961","4","","","","","1","9"
"null","","","null","","","","html-keyboard-response","159","1337775","0.0-159.0","5bc3fb6d21f69f00011d9ad2","620a70404b4e5ee1bbdda961","","","","","<p style=""color:darkgreen;font-size:24px;"">Correct :)</p>","",""
"2456","key","n","n","16.659707482992893","500","250","psychophysics","160","1340234","0.0-160.0","5bc3fb6d21f69f00011d9ad2","620a70404b4e5ee1bbdda961","4","","","","","1","8"
"null","","","null","","","","html-keyboard-response","161","1340735","0.0-161.0","5bc3fb6d21f69f00011d9ad2","620a70404b4e5ee1bbdda961","","","","","<p style=""color:darkgreen;font-size:24px;"">Correct :)</p>","",""
"2512","key","v","v","16.659313333332538","500","250","psychophysics","162","1343249","0.0-162.0","5bc3fb6d21f69f00011d9ad2","620a70404b4e5ee1bbdda961","4","","","","","1","2"
"null","","","null","","","","html-keyboard-response","163","1343751","0.0-163.0","5bc3fb6d21f69f00011d9ad2","620a70404b4e5ee1bbdda961","","","","","<p style=""color:darkgreen;font-size:24px;"">Correct :)</p>","",""
"2472","key","n","n","16.65916891891912","500","250","psychophysics","164","1346226","0.0-164.0","5bc3fb6d21f69f00011d9ad2","620a70404b4e5ee1bbdda961","4","","","","","1","8"
"null","","","null","","","","html-keyboard-response","165","1346728","0.0-165.0","5bc3fb6d21f69f00011d9ad2","620a70404b4e5ee1bbdda961","","","","","<p style=""color:darkgreen;font-size:24px;"">Correct :)</p>","",""
"2540","key","n","n","16.660359477123635","500","250","psychophysics","166","1349271","0.0-166.0","5bc3fb6d21f69f00011d9ad2","620a70404b4e5ee1bbdda961","4","","","","","1","8"
"null","","","null","","","","html-keyboard-response","167","1349783","0.0-167.0","5bc3fb6d21f69f00011d9ad2","620a70404b4e5ee1bbdda961","","","","","<p style=""color:darkgreen;font-size:24px;"">Correct :)</p>","",""
"2556","key","n","n","16.658228758170143","500","250","psychophysics","168","1352343","0.0-168.0","5bc3fb6d21f69f00011d9ad2","620a70404b4e5ee1bbdda961","4","","","","","1","6"
"null","","","null","","","","html-keyboard-response","169","1352844","0.0-169.0","5bc3fb6d21f69f00011d9ad2","620a70404b4e5ee1bbdda961","","","","","<p style=""color:darkgreen;font-size:24px;"">Correct :)</p>","",""
"2530","key","n","n","16.658607843137204","500","250","psychophysics","170","1355381","0.0-170.0","5bc3fb6d21f69f00011d9ad2","620a70404b4e5ee1bbdda961","4","","","","","1","8"
"null","","","null","","","","html-keyboard-response","171","1355883","0.0-171.0","5bc3fb6d21f69f00011d9ad2","620a70404b4e5ee1bbdda961","","","","","<p style=""color:darkgreen;font-size:24px;"">Correct :)</p>","",""
"2619","key","v","v","16.658738853503316","500","250","psychophysics","172","1358504","0.0-172.0","5bc3fb6d21f69f00011d9ad2","620a70404b4e5ee1bbdda961","4","","","","","1","4"
"null","","","null","","","","html-keyboard-response","173","1359005","0.0-173.0","5bc3fb6d21f69f00011d9ad2","620a70404b4e5ee1bbdda961","","","","","<p style=""color:darkgreen;font-size:24px;"">Correct :)</p>","",""
"2531","key","n","n","16.658657894736326","500","250","psychophysics","174","1361539","0.0-174.0","5bc3fb6d21f69f00011d9ad2","620a70404b4e5ee1bbdda961","4","","","","","1","7"
"null","","","null","","","","html-keyboard-response","175","1362041","0.0-175.0","5bc3fb6d21f69f00011d9ad2","620a70404b4e5ee1bbdda961","","","","","<p style=""color:darkgreen;font-size:24px;"">Correct :)</p>","",""
"2713","key","v","v","16.658558282208418","500","250","psychophysics","176","1364758","0.0-176.0","5bc3fb6d21f69f00011d9ad2","620a70404b4e5ee1bbdda961","4","","","","","1","3"
"null","","","null","","","","html-keyboard-response","177","1365260","0.0-177.0","5bc3fb6d21f69f00011d9ad2","620a70404b4e5ee1bbdda961","","","","","<p style=""color:darkgreen;font-size:24px;"">Correct :)</p>","",""
"2475","key","n","n","16.65790540540616","500","250","psychophysics","178","1367738","0.0-178.0","5bc3fb6d21f69f00011d9ad2","620a70404b4e5ee1bbdda961","4","","","","","1","6"
"null","","","null","","","","html-keyboard-response","179","1368240","0.0-179.0","5bc3fb6d21f69f00011d9ad2","620a70404b4e5ee1bbdda961","","","","","<p style=""color:darkgreen;font-size:24px;"">Correct :)</p>","",""
"2547","key","n","n","16.660745098039484","500","250","psychophysics","180","1370789","0.0-180.0","5bc3fb6d21f69f00011d9ad2","620a70404b4e5ee1bbdda961","4","","","","","1","6"
"null","","","null","","","","html-keyboard-response","181","1371291","0.0-181.0","5bc3fb6d21f69f00011d9ad2","620a70404b4e5ee1bbdda961","","","","","<p style=""color:darkgreen;font-size:24px;"">Correct :)</p>","",""
"2566","key","n","n","16.658214285714227","500","250","psychophysics","182","1373860","0.0-182.0","5bc3fb6d21f69f00011d9ad2","620a70404b4e5ee1bbdda961","4","","","","","1","7"
"null","","","null","","","","html-keyboard-response","183","1374361","0.0-183.0","5bc3fb6d21f69f00011d9ad2","620a70404b4e5ee1bbdda961","","","","","<p style=""color:darkgreen;font-size:24px;"">Correct :)</p>","",""
"2477","key","v","v","16.659087248321548","500","250","psychophysics","184","1376841","0.0-184.0","5bc3fb6d21f69f00011d9ad2","620a70404b4e5ee1bbdda961","4","","","","","1","3"
"null","","","null","","","","html-keyboard-response","185","1377343","0.0-185.0","5bc3fb6d21f69f00011d9ad2","620a70404b4e5ee1bbdda961","","","","","<p style=""color:darkgreen;font-size:24px;"">Correct :)</p>","",""
"2596","key","v","v","16.65935256410217","500","250","psychophysics","186","1379942","0.0-186.0","5bc3fb6d21f69f00011d9ad2","620a70404b4e5ee1bbdda961","4","","","","","1","2"
"null","","","null","","","","html-keyboard-response","187","1380444","0.0-187.0","5bc3fb6d21f69f00011d9ad2","620a70404b4e5ee1bbdda961","","","","","<p style=""color:darkgreen;font-size:24px;"">Correct :)</p>","",""
"2502","key","n","n","16.65878000000026","500","250","psychophysics","188","1382949","0.0-188.0","5bc3fb6d21f69f00011d9ad2","620a70404b4e5ee1bbdda961","4","","","","","1","8"
"null","","","null","","","","html-keyboard-response","189","1383451","0.0-189.0","5bc3fb6d21f69f00011d9ad2","620a70404b4e5ee1bbdda961","","","","","<p style=""color:darkgreen;font-size:24px;"">Correct :)</p>","",""
"2480","key","n","n","16.658315436242635","500","250","psychophysics","190","1385934","0.0-190.0","5bc3fb6d21f69f00011d9ad2","620a70404b4e5ee1bbdda961","4","","","","","1","6"
"null","","","null","","","","html-keyboard-response","191","1386435","0.0-191.0","5bc3fb6d21f69f00011d9ad2","620a70404b4e5ee1bbdda961","","","","","<p style=""color:darkgreen;font-size:24px;"">Correct :)</p>","",""
"2487","key","n","n","16.659496644294613","500","250","psychophysics","192","1388924","0.0-192.0","5bc3fb6d21f69f00011d9ad2","620a70404b4e5ee1bbdda961","4","","","","","1","6"
"null","","","null","","","","html-keyboard-response","193","1389426","0.0-193.0","5bc3fb6d21f69f00011d9ad2","620a70404b4e5ee1bbdda961","","","","","<p style=""color:darkgreen;font-size:24px;"">Correct :)</p>","",""
"29452","","","v","","","","html-keyboard-response","194","1418879","0.0-194.0","5bc3fb6d21f69f00011d9ad2","620a70404b4e5ee1bbdda961","","","","","<p> Ok, now we are going present the same digits as before.  Your job is to say whether the digit is even or odd  If the digit is odd, press to v key; if it is even, press the n key. We are going to do 50 of these.  </p>  <br><br>  Ready? (press v or n)","",""
"2629","key","v","v","16.663715189872487","500","250","psychophysics","195","1421513","0.0-195.0","5bc3fb6d21f69f00011d9ad2","620a70404b4e5ee1bbdda961","5","","","","","0","1"
"null","","","null","","","","html-keyboard-response","196","1422014","0.0-196.0","5bc3fb6d21f69f00011d9ad2","620a70404b4e5ee1bbdda961","","","","","<p style=""color:darkgreen;font-size:24px;"">Correct :)</p>","",""
"2537","key","n","n","16.767638157893856","500","250","psychophysics","197","1424555","0.0-197.0","5bc3fb6d21f69f00011d9ad2","620a70404b4e5ee1bbdda961","5","","","","","0","4"
"null","","","null","","","","html-keyboard-response","198","1425056","0.0-198.0","5bc3fb6d21f69f00011d9ad2","620a70404b4e5ee1bbdda961","","","","","<p style=""color:darkgreen;font-size:24px;"">Correct :)</p>","",""
"2531","key","n","n","16.657835526316806","500","250","psychophysics","199","1427591","0.0-199.0","5bc3fb6d21f69f00011d9ad2","620a70404b4e5ee1bbdda961","5","","","","","0","6"
"null","","","null","","","","html-keyboard-response","200","1428092","0.0-200.0","5bc3fb6d21f69f00011d9ad2","620a70404b4e5ee1bbdda961","","","","","<p style=""color:darkgreen;font-size:24px;"">Correct :)</p>","",""
"2607","key","v","v","16.65971337579588","500","250","psychophysics","201","1430702","0.0-201.0","5bc3fb6d21f69f00011d9ad2","620a70404b4e5ee1bbdda961","5","","","","","0","7"
"null","","","null","","","","html-keyboard-response","202","1431203","0.0-202.0","5bc3fb6d21f69f00011d9ad2","620a70404b4e5ee1bbdda961","","","","","<p style=""color:darkgreen;font-size:24px;"">Correct :)</p>","",""
"2584","key","n","n","16.65824516128989","500","250","psychophysics","203","1433790","0.0-203.0","5bc3fb6d21f69f00011d9ad2","620a70404b4e5ee1bbdda961","5","","","","","0","6"
"null","","","null","","","","html-keyboard-response","204","1434292","0.0-204.0","5bc3fb6d21f69f00011d9ad2","620a70404b4e5ee1bbdda961","","","","","<p style=""color:darkgreen;font-size:24px;"">Correct :)</p>","",""
"2566","key","v","v","16.76754545454577","500","250","psychophysics","205","1436861","0.0-205.0","5bc3fb6d21f69f00011d9ad2","620a70404b4e5ee1bbdda961","5","","","","","0","7"
"null","","","null","","","","html-keyboard-response","206","1437363","0.0-206.0","5bc3fb6d21f69f00011d9ad2","620a70404b4e5ee1bbdda961","","","","","<p style=""color:darkgreen;font-size:24px;"">Correct :)</p>","",""
"2857","key","n","n","16.65818128654902","500","250","psychophysics","207","1440223","0.0-207.0","5bc3fb6d21f69f00011d9ad2","620a70404b4e5ee1bbdda961","5","","","","","0","9"
"null","","","null","","","","html-keyboard-response","208","1440725","0.0-208.0","5bc3fb6d21f69f00011d9ad2","620a70404b4e5ee1bbdda961","","","","","<p style=""color:red;font-size:24px;"">Error :(</p>","",""
"2763","key","n","n","16.65886746987936","500","250","psychophysics","209","1443492","0.0-209.0","5bc3fb6d21f69f00011d9ad2","620a70404b4e5ee1bbdda961","5","","","","","0","2"
"null","","","null","","","","html-keyboard-response","210","1443993","0.0-210.0","5bc3fb6d21f69f00011d9ad2","620a70404b4e5ee1bbdda961","","","","","<p style=""color:darkgreen;font-size:24px;"">Correct :)</p>","",""
"2586","key","v","v","16.659180645160976","500","250","psychophysics","211","1446583","0.0-211.0","5bc3fb6d21f69f00011d9ad2","620a70404b4e5ee1bbdda961","5","","","","","0","7"
"null","","","null","","","","html-keyboard-response","212","1447083","0.0-212.0","5bc3fb6d21f69f00011d9ad2","620a70404b4e5ee1bbdda961","","","","","<p style=""color:darkgreen;font-size:24px;"">Correct :)</p>","",""
"2593","key","v","v","16.658634615384447","500","250","psychophysics","213","1449679","0.0-213.0","5bc3fb6d21f69f00011d9ad2","620a70404b4e5ee1bbdda961","5","","","","","0","1"
"null","","","null","","","","html-keyboard-response","214","1450180","0.0-214.0","5bc3fb6d21f69f00011d9ad2","620a70404b4e5ee1bbdda961","","","","","<p style=""color:darkgreen;font-size:24px;"">Correct :)</p>","",""
"2658","key","v","v","16.659393750000163","500","250","psychophysics","215","1452842","0.0-215.0","5bc3fb6d21f69f00011d9ad2","620a70404b4e5ee1bbdda961","5","","","","","0","9"
"null","","","null","","","","html-keyboard-response","216","1453343","0.0-216.0","5bc3fb6d21f69f00011d9ad2","620a70404b4e5ee1bbdda961","","","","","<p style=""color:darkgreen;font-size:24px;"">Correct :)</p>","",""
"2539","key","n","n","16.658372549019035","500","250","psychophysics","217","1455884","0.0-217.0","5bc3fb6d21f69f00011d9ad2","620a70404b4e5ee1bbdda961","5","","","","","0","4"
"null","","","null","","","","html-keyboard-response","218","1456386","0.0-218.0","5bc3fb6d21f69f00011d9ad2","620a70404b4e5ee1bbdda961","","","","","<p style=""color:darkgreen;font-size:24px;"">Correct :)</p>","",""
"2721","key","v","v","16.65872392638021","500","250","psychophysics","219","1459110","0.0-219.0","5bc3fb6d21f69f00011d9ad2","620a70404b4e5ee1bbdda961","5","","","","","0","7"
"null","","","null","","","","html-keyboard-response","220","1459611","0.0-220.0","5bc3fb6d21f69f00011d9ad2","620a70404b4e5ee1bbdda961","","","","","<p style=""color:darkgreen;font-size:24px;"">Correct :)</p>","",""
"2764","key","v","v","16.660349397590462","500","250","psychophysics","221","1462378","0.0-221.0","5bc3fb6d21f69f00011d9ad2","620a70404b4e5ee1bbdda961","5","","","","","0","7"
"null","","","null","","","","html-keyboard-response","222","1462879","0.0-222.0","5bc3fb6d21f69f00011d9ad2","620a70404b4e5ee1bbdda961","","","","","<p style=""color:darkgreen;font-size:24px;"">Correct :)</p>","",""
"2703","key","v","v","16.658552795031067","500","250","psychophysics","223","1465585","0.0-223.0","5bc3fb6d21f69f00011d9ad2","620a70404b4e5ee1bbdda961","5","","","","","0","9"
"null","","","null","","","","html-keyboard-response","224","1466087","0.0-224.0","5bc3fb6d21f69f00011d9ad2","620a70404b4e5ee1bbdda961","","","","","<p style=""color:darkgreen;font-size:24px;"">Correct :)</p>","",""
"2491","key","n","n","16.659486666666343","500","250","psychophysics","225","1468581","0.0-225.0","5bc3fb6d21f69f00011d9ad2","620a70404b4e5ee1bbdda961","5","","","","","0","2"
"null","","","null","","","","html-keyboard-response","226","1469083","0.0-226.0","5bc3fb6d21f69f00011d9ad2","620a70404b4e5ee1bbdda961","","","","","<p style=""color:darkgreen;font-size:24px;"">Correct :)</p>","",""
"2472","key","n","n","16.6578040540555","500","250","psychophysics","227","1471558","0.0-227.0","5bc3fb6d21f69f00011d9ad2","620a70404b4e5ee1bbdda961","5","","","","","0","2"
"null","","","null","","","","html-keyboard-response","228","1472059","0.0-228.0","5bc3fb6d21f69f00011d9ad2","620a70404b4e5ee1bbdda961","","","","","<p style=""color:darkgreen;font-size:24px;"">Correct :)</p>","",""
"2450","key","n","n","16.65940816326504","500","250","psychophysics","229","1474512","0.0-229.0","5bc3fb6d21f69f00011d9ad2","620a70404b4e5ee1bbdda961","5","","","","","0","6"
"null","","","null","","","","html-keyboard-response","230","1475014","0.0-230.0","5bc3fb6d21f69f00011d9ad2","620a70404b4e5ee1bbdda961","","","","","<p style=""color:darkgreen;font-size:24px;"">Correct :)</p>","",""
"2642","key","v","v","16.659704402515242","500","250","psychophysics","231","1477659","0.0-231.0","5bc3fb6d21f69f00011d9ad2","620a70404b4e5ee1bbdda961","5","","","","","0","7"
"null","","","null","","","","html-keyboard-response","232","1478161","0.0-232.0","5bc3fb6d21f69f00011d9ad2","620a70404b4e5ee1bbdda961","","","","","<p style=""color:darkgreen;font-size:24px;"">Correct :)</p>","",""
"2718","key","v","v","16.658269938651436","500","250","psychophysics","233","1480883","0.0-233.0","5bc3fb6d21f69f00011d9ad2","620a70404b4e5ee1bbdda961","5","","","","","0","9"
"null","","","null","","","","html-keyboard-response","234","1481385","0.0-234.0","5bc3fb6d21f69f00011d9ad2","620a70404b4e5ee1bbdda961","","","","","<p style=""color:darkgreen;font-size:24px;"">Correct :)</p>","",""
"2496","key","n","n","16.657459999999652","500","250","psychophysics","235","1483884","0.0-235.0","5bc3fb6d21f69f00011d9ad2","620a70404b4e5ee1bbdda961","5","","","","","0","4"
"null","","","null","","","","html-keyboard-response","236","1484386","0.0-236.0","5bc3fb6d21f69f00011d9ad2","620a70404b4e5ee1bbdda961","","","","","<p style=""color:darkgreen;font-size:24px;"">Correct :)</p>","",""
"2456","key","v","v","16.657851351351113","500","250","psychophysics","237","1486846","0.0-237.0","5bc3fb6d21f69f00011d9ad2","620a70404b4e5ee1bbdda961","5","","","","","0","7"
"null","","","null","","","","html-keyboard-response","238","1487347","0.0-238.0","5bc3fb6d21f69f00011d9ad2","620a70404b4e5ee1bbdda961","","","","","<p style=""color:darkgreen;font-size:24px;"">Correct :)</p>","",""
"2614","key","v","v","16.658496815287123","500","250","psychophysics","239","1489962","0.0-239.0","5bc3fb6d21f69f00011d9ad2","620a70404b4e5ee1bbdda961","5","","","","","0","7"
"null","","","null","","","","html-keyboard-response","240","1490463","0.0-240.0","5bc3fb6d21f69f00011d9ad2","620a70404b4e5ee1bbdda961","","","","","<p style=""color:darkgreen;font-size:24px;"">Correct :)</p>","",""
"2635","key","n","n","16.658327044025885","500","250","psychophysics","241","1493105","0.0-241.0","5bc3fb6d21f69f00011d9ad2","620a70404b4e5ee1bbdda961","5","","","","","0","8"
"null","","","null","","","","html-keyboard-response","242","1493606","0.0-242.0","5bc3fb6d21f69f00011d9ad2","620a70404b4e5ee1bbdda961","","","","","<p style=""color:darkgreen;font-size:24px;"">Correct :)</p>","",""
"2637","key","n","n","16.658196202532352","500","250","psychophysics","243","1496247","0.0-243.0","5bc3fb6d21f69f00011d9ad2","620a70404b4e5ee1bbdda961","5","","","","","0","6"
"null","","","null","","","","html-keyboard-response","244","1496749","0.0-244.0","5bc3fb6d21f69f00011d9ad2","620a70404b4e5ee1bbdda961","","","","","<p style=""color:darkgreen;font-size:24px;"">Correct :)</p>","",""
"2622","key","n","n","16.65963057324937","500","250","psychophysics","245","1499374","0.0-245.0","5bc3fb6d21f69f00011d9ad2","620a70404b4e5ee1bbdda961","5","","","","","0","8"
"null","","","null","","","","html-keyboard-response","246","1499876","0.0-246.0","5bc3fb6d21f69f00011d9ad2","620a70404b4e5ee1bbdda961","","","","","<p style=""color:darkgreen;font-size:24px;"">Correct :)</p>","",""
"2569","key","n","n","16.658535483870054","500","250","psychophysics","247","1502449","0.0-247.0","5bc3fb6d21f69f00011d9ad2","620a70404b4e5ee1bbdda961","5","","","","","0","8"
"null","","","null","","","","html-keyboard-response","248","1502950","0.0-248.0","5bc3fb6d21f69f00011d9ad2","620a70404b4e5ee1bbdda961","","","","","<p style=""color:darkgreen;font-size:24px;"">Correct :)</p>","",""
"2497","key","n","n","16.659613333332043","500","250","psychophysics","249","1505451","0.0-249.0","5bc3fb6d21f69f00011d9ad2","620a70404b4e5ee1bbdda961","5","","","","","0","2"
"null","","","null","","","","html-keyboard-response","250","1505952","0.0-250.0","5bc3fb6d21f69f00011d9ad2","620a70404b4e5ee1bbdda961","","","","","<p style=""color:darkgreen;font-size:24px;"">Correct :)</p>","",""
"2491","key","n","n","16.659006666666826","500","250","psychophysics","251","1508447","0.0-251.0","5bc3fb6d21f69f00011d9ad2","620a70404b4e5ee1bbdda961","5","","","","","0","4"
"null","","","null","","","","html-keyboard-response","252","1508948","0.0-252.0","5bc3fb6d21f69f00011d9ad2","620a70404b4e5ee1bbdda961","","","","","<p style=""color:darkgreen;font-size:24px;"">Correct :)</p>","",""
"2498","key","v","v","16.658680000000945","500","250","psychophysics","253","1511450","0.0-253.0","5bc3fb6d21f69f00011d9ad2","620a70404b4e5ee1bbdda961","5","","","","","0","7"
"null","","","null","","","","html-keyboard-response","254","1511960","0.0-254.0","5bc3fb6d21f69f00011d9ad2","620a70404b4e5ee1bbdda961","","","","","<p style=""color:darkgreen;font-size:24px;"">Correct :)</p>","",""
"2614","key","v","v","16.658808917197202","500","250","psychophysics","255","1514576","0.0-255.0","5bc3fb6d21f69f00011d9ad2","620a70404b4e5ee1bbdda961","5","","","","","0","7"
"null","","","null","","","","html-keyboard-response","256","1515078","0.0-256.0","5bc3fb6d21f69f00011d9ad2","620a70404b4e5ee1bbdda961","","","","","<p style=""color:darkgreen;font-size:24px;"">Correct :)</p>","",""
"2622","key","v","v","16.65918471337634","500","250","psychophysics","257","1517704","0.0-257.0","5bc3fb6d21f69f00011d9ad2","620a70404b4e5ee1bbdda961","5","","","","","0","3"
"null","","","null","","","","html-keyboard-response","258","1518204","0.0-258.0","5bc3fb6d21f69f00011d9ad2","620a70404b4e5ee1bbdda961","","","","","<p style=""color:darkgreen;font-size:24px;"">Correct :)</p>","",""
"2627","key","n","n","16.659411392406017","500","250","psychophysics","259","1520835","0.0-259.0","5bc3fb6d21f69f00011d9ad2","620a70404b4e5ee1bbdda961","5","","","","","0","4"
"null","","","null","","","","html-keyboard-response","260","1521340","0.0-260.0","5bc3fb6d21f69f00011d9ad2","620a70404b4e5ee1bbdda961","","","","","<p style=""color:darkgreen;font-size:24px;"">Correct :)</p>","",""
"2670","key","n","n","16.658800000000337","500","250","psychophysics","261","1524012","0.0-261.0","5bc3fb6d21f69f00011d9ad2","620a70404b4e5ee1bbdda961","5","","","","","0","2"
"null","","","null","","","","html-keyboard-response","262","1524514","0.0-262.0","5bc3fb6d21f69f00011d9ad2","620a70404b4e5ee1bbdda961","","","","","<p style=""color:darkgreen;font-size:24px;"">Correct :)</p>","",""
"2601","key","v","v","16.658801282050074","500","250","psychophysics","263","1527118","0.0-263.0","5bc3fb6d21f69f00011d9ad2","620a70404b4e5ee1bbdda961","5","","","","","0","3"
"null","","","null","","","","html-keyboard-response","264","1527621","0.0-264.0","5bc3fb6d21f69f00011d9ad2","620a70404b4e5ee1bbdda961","","","","","<p style=""color:darkgreen;font-size:24px;"">Correct :)</p>","",""
"2526","key","n","n","16.658549668874887","500","250","psychophysics","265","1530150","0.0-265.0","5bc3fb6d21f69f00011d9ad2","620a70404b4e5ee1bbdda961","5","","","","","0","6"
"null","","","null","","","","html-keyboard-response","266","1530653","0.0-266.0","5bc3fb6d21f69f00011d9ad2","620a70404b4e5ee1bbdda961","","","","","<p style=""color:darkgreen;font-size:24px;"">Correct :)</p>","",""
"2570","key","v","v","16.658597402598154","500","250","psychophysics","267","1533227","0.0-267.0","5bc3fb6d21f69f00011d9ad2","620a70404b4e5ee1bbdda961","5","","","","","0","1"
"null","","","null","","","","html-keyboard-response","268","1533729","0.0-268.0","5bc3fb6d21f69f00011d9ad2","620a70404b4e5ee1bbdda961","","","","","<p style=""color:darkgreen;font-size:24px;"">Correct :)</p>","",""
"2819","key","v","v","16.66052352941102","500","250","psychophysics","269","1536551","0.0-269.0","5bc3fb6d21f69f00011d9ad2","620a70404b4e5ee1bbdda961","5","","","","","0","7"
"null","","","null","","","","html-keyboard-response","270","1537052","0.0-270.0","5bc3fb6d21f69f00011d9ad2","620a70404b4e5ee1bbdda961","","","","","<p style=""color:darkgreen;font-size:24px;"">Correct :)</p>","",""
"2490","key","n","n","16.659147651006638","500","250","psychophysics","271","1539545","0.0-271.0","5bc3fb6d21f69f00011d9ad2","620a70404b4e5ee1bbdda961","5","","","","","0","4"
"null","","","null","","","","html-keyboard-response","272","1540046","0.0-272.0","5bc3fb6d21f69f00011d9ad2","620a70404b4e5ee1bbdda961","","","","","<p style=""color:darkgreen;font-size:24px;"">Correct :)</p>","",""
"2574","key","n","n","16.767357142856827","500","250","psychophysics","273","1542623","0.0-273.0","5bc3fb6d21f69f00011d9ad2","620a70404b4e5ee1bbdda961","5","","","","","0","8"
"null","","","null","","","","html-keyboard-response","274","1543124","0.0-274.0","5bc3fb6d21f69f00011d9ad2","620a70404b4e5ee1bbdda961","","","","","<p style=""color:darkgreen;font-size:24px;"">Correct :)</p>","",""
"2561","key","v","v","16.658155844155274","500","250","psychophysics","275","1545688","0.0-275.0","5bc3fb6d21f69f00011d9ad2","620a70404b4e5ee1bbdda961","5","","","","","0","1"
"null","","","null","","","","html-keyboard-response","276","1546190","0.0-276.0","5bc3fb6d21f69f00011d9ad2","620a70404b4e5ee1bbdda961","","","","","<p style=""color:darkgreen;font-size:24px;"">Correct :)</p>","",""
"2707","key","v","v","16.660386503068445","500","250","psychophysics","277","1548901","0.0-277.0","5bc3fb6d21f69f00011d9ad2","620a70404b4e5ee1bbdda961","5","","","","","0","9"
"null","","","null","","","","html-keyboard-response","278","1549402","0.0-278.0","5bc3fb6d21f69f00011d9ad2","620a70404b4e5ee1bbdda961","","","","","<p style=""color:darkgreen;font-size:24px;"">Correct :)</p>","",""
"2517","key","v","v","16.657807947019275","500","250","psychophysics","279","1551922","0.0-279.0","5bc3fb6d21f69f00011d9ad2","620a70404b4e5ee1bbdda961","5","","","","","0","7"
"null","","","null","","","","html-keyboard-response","280","1552423","0.0-280.0","5bc3fb6d21f69f00011d9ad2","620a70404b4e5ee1bbdda961","","","","","<p style=""color:darkgreen;font-size:24px;"">Correct :)</p>","",""
"2783","key","v","v","16.758419161677796","500","250","psychophysics","281","1555209","0.0-281.0","5bc3fb6d21f69f00011d9ad2","620a70404b4e5ee1bbdda961","5","","","","","0","9"
"null","","","null","","","","html-keyboard-response","282","1555711","0.0-282.0","5bc3fb6d21f69f00011d9ad2","620a70404b4e5ee1bbdda961","","","","","<p style=""color:darkgreen;font-size:24px;"">Correct :)</p>","",""
"2537","key","v","v","16.65984868421066","500","250","psychophysics","283","1558251","0.0-283.0","5bc3fb6d21f69f00011d9ad2","620a70404b4e5ee1bbdda961","5","","","","","0","7"
"null","","","null","","","","html-keyboard-response","284","1558752","0.0-284.0","5bc3fb6d21f69f00011d9ad2","620a70404b4e5ee1bbdda961","","","","","<p style=""color:darkgreen;font-size:24px;"">Correct :)</p>","",""
"2502","key","v","v","16.660741721855057","500","250","psychophysics","285","1561262","0.0-285.0","5bc3fb6d21f69f00011d9ad2","620a70404b4e5ee1bbdda961","5","","","","","0","7"
"null","","","null","","","","html-keyboard-response","286","1561764","0.0-286.0","5bc3fb6d21f69f00011d9ad2","620a70404b4e5ee1bbdda961","","","","","<p style=""color:darkgreen;font-size:24px;"">Correct :)</p>","",""
"2597","key","n","n","16.659403846154394","500","250","psychophysics","287","1564364","0.0-287.0","5bc3fb6d21f69f00011d9ad2","620a70404b4e5ee1bbdda961","5","","","","","0","8"
"null","","","null","","","","html-keyboard-response","288","1564866","0.0-288.0","5bc3fb6d21f69f00011d9ad2","620a70404b4e5ee1bbdda961","","","","","<p style=""color:darkgreen;font-size:24px;"">Correct :)</p>","",""
"2767","key","v","v","16.65995808383227","500","250","psychophysics","289","1567637","0.0-289.0","5bc3fb6d21f69f00011d9ad2","620a70404b4e5ee1bbdda961","5","","","","","0","3"
"null","","","null","","","","html-keyboard-response","290","1568139","0.0-290.0","5bc3fb6d21f69f00011d9ad2","620a70404b4e5ee1bbdda961","","","","","<p style=""color:darkgreen;font-size:24px;"">Correct :)</p>","",""
"2520","key","v","v","16.658682119204595","500","250","psychophysics","291","1570663","0.0-291.0","5bc3fb6d21f69f00011d9ad2","620a70404b4e5ee1bbdda961","5","","","","","0","3"
"null","","","null","","","","html-keyboard-response","292","1571164","0.0-292.0","5bc3fb6d21f69f00011d9ad2","620a70404b4e5ee1bbdda961","","","","","<p style=""color:darkgreen;font-size:24px;"">Correct :)</p>","",""
"2788","key","v","v","16.661029761905194","500","250","psychophysics","293","1573956","0.0-293.0","5bc3fb6d21f69f00011d9ad2","620a70404b4e5ee1bbdda961","5","","","","","0","3"
"null","","","null","","","","html-keyboard-response","294","1574466","0.0-294.0","5bc3fb6d21f69f00011d9ad2","620a70404b4e5ee1bbdda961","","","","","<p style=""color:darkgreen;font-size:24px;"">Correct :)</p>","",""
"44587","","","v","","","","html-keyboard-response","295","1619053","0.0-295.0","5bc3fb6d21f69f00011d9ad2","620a70404b4e5ee1bbdda961","","","","","<p> Here, the tasks are going to switch.  For some trials, your job is to decide if the digit is less than or greater than 5.  For others, it is to decide if the digit is even or odd.  You will be told which type of trial the current one is.  But, pay attention, the type of trial changes too.  We are going to do 50 of these.  </p>  <br><br>  Ready? (press v or n)","",""
"3629","key","v","v","16.661999999999427","500","250","psychophysics","296","1622687","0.0-296.0","5bc3fb6d21f69f00011d9ad2","620a70404b4e5ee1bbdda961","6","","","","","1","2"
"null","","","null","","","","html-keyboard-response","297","1623188","0.0-297.0","5bc3fb6d21f69f00011d9ad2","620a70404b4e5ee1bbdda961","","","","","<p style=""color:darkgreen;font-size:24px;"">Correct :)</p>","",""
"2683","key","n","n","16.659322981365452","500","250","psychophysics","298","1625875","0.0-298.0","5bc3fb6d21f69f00011d9ad2","620a70404b4e5ee1bbdda961","6","","","","","0","8"
"null","","","null","","","","html-keyboard-response","299","1626377","0.0-299.0","5bc3fb6d21f69f00011d9ad2","620a70404b4e5ee1bbdda961","","","","","<p style=""color:darkgreen;font-size:24px;"">Correct :)</p>","",""
"2682","key","v","v","16.658683229813363","500","250","psychophysics","300","1629062","0.0-300.0","5bc3fb6d21f69f00011d9ad2","620a70404b4e5ee1bbdda961","6","","","","","0","9"
"null","","","null","","","","html-keyboard-response","301","1629563","0.0-301.0","5bc3fb6d21f69f00011d9ad2","620a70404b4e5ee1bbdda961","","","","","<p style=""color:darkgreen;font-size:24px;"">Correct :)</p>","",""
"2593","key","v","v","16.6588525641023","500","250","psychophysics","302","1632158","0.0-302.0","5bc3fb6d21f69f00011d9ad2","620a70404b4e5ee1bbdda961","6","","","","","1","1"
"null","","","null","","","","html-keyboard-response","303","1632660","0.0-303.0","5bc3fb6d21f69f00011d9ad2","620a70404b4e5ee1bbdda961","","","","","<p style=""color:darkgreen;font-size:24px;"">Correct :)</p>","",""
"2707","key","v","v","16.65869135802531","500","250","psychophysics","304","1635371","0.0-304.0","5bc3fb6d21f69f00011d9ad2","620a70404b4e5ee1bbdda961","6","","","","","0","3"
"null","","","null","","","","html-keyboard-response","305","1635872","0.0-305.0","5bc3fb6d21f69f00011d9ad2","620a70404b4e5ee1bbdda961","","","","","<p style=""color:darkgreen;font-size:24px;"">Correct :)</p>","",""
"2581","key","n","n","16.65783870967796","500","250","psychophysics","306","1638457","0.0-306.0","5bc3fb6d21f69f00011d9ad2","620a70404b4e5ee1bbdda961","6","","","","","0","2"
"null","","","null","","","","html-keyboard-response","307","1638958","0.0-307.0","5bc3fb6d21f69f00011d9ad2","620a70404b4e5ee1bbdda961","","","","","<p style=""color:darkgreen;font-size:24px;"">Correct :)</p>","",""
"2573","key","v","v","16.658389610389563","500","250","psychophysics","308","1641535","0.0-308.0","5bc3fb6d21f69f00011d9ad2","620a70404b4e5ee1bbdda961","6","","","","","1","2"
"null","","","null","","","","html-keyboard-response","309","1642036","0.0-309.0","5bc3fb6d21f69f00011d9ad2","620a70404b4e5ee1bbdda961","","","","","<p style=""color:darkgreen;font-size:24px;"">Correct :)</p>","",""
"2722","key","n","n","16.659926380367914","500","250","psychophysics","310","1644761","0.0-310.0","5bc3fb6d21f69f00011d9ad2","620a70404b4e5ee1bbdda961","6","","","","","0","4"
"null","","","null","","","","html-keyboard-response","311","1645263","0.0-311.0","5bc3fb6d21f69f00011d9ad2","620a70404b4e5ee1bbdda961","","","","","<p style=""color:darkgreen;font-size:24px;"">Correct :)</p>","",""
"2567","key","v","v","16.65965806451596","500","250","psychophysics","312","1647832","0.0-312.0","5bc3fb6d21f69f00011d9ad2","620a70404b4e5ee1bbdda961","6","","","","","1","3"
"null","","","null","","","","html-keyboard-response","313","1648334","0.0-313.0","5bc3fb6d21f69f00011d9ad2","620a70404b4e5ee1bbdda961","","","","","<p style=""color:darkgreen;font-size:24px;"">Correct :)</p>","",""
"2532","key","v","v","16.65928947368459","500","250","psychophysics","314","1650869","0.0-314.0","5bc3fb6d21f69f00011d9ad2","620a70404b4e5ee1bbdda961","6","","","","","0","1"
"null","","","null","","","","html-keyboard-response","315","1651370","0.0-315.0","5bc3fb6d21f69f00011d9ad2","620a70404b4e5ee1bbdda961","","","","","<p style=""color:darkgreen;font-size:24px;"">Correct :)</p>","",""
"2573","key","n","n","16.65839999999941","500","250","psychophysics","316","1653947","0.0-316.0","5bc3fb6d21f69f00011d9ad2","620a70404b4e5ee1bbdda961","6","","","","","1","7"
"null","","","null","","","","html-keyboard-response","317","1654462","0.0-317.0","5bc3fb6d21f69f00011d9ad2","620a70404b4e5ee1bbdda961","","","","","<p style=""color:darkgreen;font-size:24px;"">Correct :)</p>","",""
"2597","key","n","n","16.65831410256513","500","250","psychophysics","318","1657062","0.0-318.0","5bc3fb6d21f69f00011d9ad2","620a70404b4e5ee1bbdda961","6","","","","","1","8"
"null","","","null","","","","html-keyboard-response","319","1657564","0.0-319.0","5bc3fb6d21f69f00011d9ad2","620a70404b4e5ee1bbdda961","","","","","<p style=""color:darkgreen;font-size:24px;"">Correct :)</p>","",""
"2611","key","n","n","16.659292993629588","500","250","psychophysics","320","1660179","0.0-320.0","5bc3fb6d21f69f00011d9ad2","620a70404b4e5ee1bbdda961","6","","","","","0","6"
"null","","","null","","","","html-keyboard-response","321","1660682","0.0-321.0","5bc3fb6d21f69f00011d9ad2","620a70404b4e5ee1bbdda961","","","","","<p style=""color:darkgreen;font-size:24px;"">Correct :)</p>","",""
"2571","key","v","v","16.659759740259002","500","250","psychophysics","322","1663256","0.0-322.0","5bc3fb6d21f69f00011d9ad2","620a70404b4e5ee1bbdda961","6","","","","","1","2"
"null","","","null","","","","html-keyboard-response","323","1663757","0.0-323.0","5bc3fb6d21f69f00011d9ad2","620a70404b4e5ee1bbdda961","","","","","<p style=""color:darkgreen;font-size:24px;"">Correct :)</p>","",""
"2673","key","n","n","16.7635062500005","500","250","psychophysics","324","1666433","0.0-324.0","5bc3fb6d21f69f00011d9ad2","620a70404b4e5ee1bbdda961","6","","","","","0","8"
"null","","","null","","","","html-keyboard-response","325","1666935","0.0-325.0","5bc3fb6d21f69f00011d9ad2","620a70404b4e5ee1bbdda961","","","","","<p style=""color:darkgreen;font-size:24px;"">Correct :)</p>","",""
"2488","key","n","n","16.65815333333332","500","250","psychophysics","326","1669424","0.0-326.0","5bc3fb6d21f69f00011d9ad2","620a70404b4e5ee1bbdda961","6","","","","","1","7"
"null","","","null","","","","html-keyboard-response","327","1669926","0.0-327.0","5bc3fb6d21f69f00011d9ad2","620a70404b4e5ee1bbdda961","","","","","<p style=""color:darkgreen;font-size:24px;"">Correct :)</p>","",""
"2817","key","n","n","16.658739644969323","500","250","psychophysics","328","1672747","0.0-328.0","5bc3fb6d21f69f00011d9ad2","620a70404b4e5ee1bbdda961","6","","","","","0","2"
"null","","","null","","","","html-keyboard-response","329","1673249","0.0-329.0","5bc3fb6d21f69f00011d9ad2","620a70404b4e5ee1bbdda961","","","","","<p style=""color:darkgreen;font-size:24px;"">Correct :)</p>","",""
"2593","key","v","v","16.65828846153827","500","250","psychophysics","330","1675844","0.0-330.0","5bc3fb6d21f69f00011d9ad2","620a70404b4e5ee1bbdda961","6","","","","","0","7"
"null","","","null","","","","html-keyboard-response","331","1676345","0.0-331.0","5bc3fb6d21f69f00011d9ad2","620a70404b4e5ee1bbdda961","","","","","<p style=""color:darkgreen;font-size:24px;"">Correct :)</p>","",""
"2754","key","v","v","16.658144578313824","500","250","psychophysics","332","1679102","0.0-332.0","5bc3fb6d21f69f00011d9ad2","620a70404b4e5ee1bbdda961","6","","","","","0","9"
"null","","","null","","","","html-keyboard-response","333","1679613","0.0-333.0","5bc3fb6d21f69f00011d9ad2","620a70404b4e5ee1bbdda961","","","","","<p style=""color:darkgreen;font-size:24px;"">Correct :)</p>","",""
"2572","key","n","n","16.660780645161868","500","250","psychophysics","334","1682188","0.0-334.0","5bc3fb6d21f69f00011d9ad2","620a70404b4e5ee1bbdda961","6","","","","","0","2"
"null","","","null","","","","html-keyboard-response","335","1682689","0.0-335.0","5bc3fb6d21f69f00011d9ad2","620a70404b4e5ee1bbdda961","","","","","<p style=""color:darkgreen;font-size:24px;"">Correct :)</p>","",""
"2607","key","v","v","16.65927388535065","500","250","psychophysics","336","1685300","0.0-336.0","5bc3fb6d21f69f00011d9ad2","620a70404b4e5ee1bbdda961","6","","","","","0","3"
"null","","","null","","","","html-keyboard-response","337","1685803","0.0-337.0","5bc3fb6d21f69f00011d9ad2","620a70404b4e5ee1bbdda961","","","","","<p style=""color:darkgreen;font-size:24px;"">Correct :)</p>","",""
"2560","key","n","n","16.658987012986614","500","250","psychophysics","338","1688366","0.0-338.0","5bc3fb6d21f69f00011d9ad2","620a70404b4e5ee1bbdda961","6","","","","","1","6"
"null","","","null","","","","html-keyboard-response","339","1688868","0.0-339.0","5bc3fb6d21f69f00011d9ad2","620a70404b4e5ee1bbdda961","","","","","<p style=""color:darkgreen;font-size:24px;"">Correct :)</p>","",""
"2532","key","n","n","16.65952631578885","500","250","psychophysics","340","1691403","0.0-340.0","5bc3fb6d21f69f00011d9ad2","620a70404b4e5ee1bbdda961","6","","","","","1","7"
"null","","","null","","","","html-keyboard-response","341","1691905","0.0-341.0","5bc3fb6d21f69f00011d9ad2","620a70404b4e5ee1bbdda961","","","","","<p style=""color:darkgreen;font-size:24px;"">Correct :)</p>","",""
"2576","key","n","n","16.65890967741969","500","250","psychophysics","342","1694484","0.0-342.0","5bc3fb6d21f69f00011d9ad2","620a70404b4e5ee1bbdda961","6","","","","","0","8"
"null","","","null","","","","html-keyboard-response","343","1694985","0.0-343.0","5bc3fb6d21f69f00011d9ad2","620a70404b4e5ee1bbdda961","","","","","<p style=""color:darkgreen;font-size:24px;"">Correct :)</p>","",""
"2587","key","n","n","16.65774838709753","500","250","psychophysics","344","1697576","0.0-344.0","5bc3fb6d21f69f00011d9ad2","620a70404b4e5ee1bbdda961","6","","","","","1","9"
"null","","","null","","","","html-keyboard-response","345","1698078","0.0-345.0","5bc3fb6d21f69f00011d9ad2","620a70404b4e5ee1bbdda961","","","","","<p style=""color:darkgreen;font-size:24px;"">Correct :)</p>","",""
"2602","key","n","n","16.66017948717882","500","250","psychophysics","346","1700683","0.0-346.0","5bc3fb6d21f69f00011d9ad2","620a70404b4e5ee1bbdda961","6","","","","","1","6"
"null","","","null","","","","html-keyboard-response","347","1701184","0.0-347.0","5bc3fb6d21f69f00011d9ad2","620a70404b4e5ee1bbdda961","","","","","<p style=""color:darkgreen;font-size:24px;"">Correct :)</p>","",""
"2642","key","n","n","16.658289308175036","500","250","psychophysics","348","1703830","0.0-348.0","5bc3fb6d21f69f00011d9ad2","620a70404b4e5ee1bbdda961","6","","","","","0","6"
"null","","","null","","","","html-keyboard-response","349","1704332","0.0-349.0","5bc3fb6d21f69f00011d9ad2","620a70404b4e5ee1bbdda961","","","","","<p style=""color:darkgreen;font-size:24px;"">Correct :)</p>","",""
"2526","key","v","v","16.659743421053893","500","250","psychophysics","350","1706861","0.0-350.0","5bc3fb6d21f69f00011d9ad2","620a70404b4e5ee1bbdda961","6","","","","","0","1"
"null","","","null","","","","html-keyboard-response","351","1707363","0.0-351.0","5bc3fb6d21f69f00011d9ad2","620a70404b4e5ee1bbdda961","","","","","<p style=""color:darkgreen;font-size:24px;"">Correct :)</p>","",""
"2667","key","v","v","16.66038750000007","500","250","psychophysics","352","1710034","0.0-352.0","5bc3fb6d21f69f00011d9ad2","620a70404b4e5ee1bbdda961","6","","","","","0","9"
"null","","","null","","","","html-keyboard-response","353","1710535","0.0-353.0","5bc3fb6d21f69f00011d9ad2","620a70404b4e5ee1bbdda961","","","","","<p style=""color:darkgreen;font-size:24px;"">Correct :)</p>","",""
"2546","key","n","n","16.658725490197053","500","250","psychophysics","354","1713085","0.0-354.0","5bc3fb6d21f69f00011d9ad2","620a70404b4e5ee1bbdda961","6","","","","","0","4"
"null","","","null","","","","html-keyboard-response","355","1713588","0.0-355.0","5bc3fb6d21f69f00011d9ad2","620a70404b4e5ee1bbdda961","","","","","<p style=""color:darkgreen;font-size:24px;"">Correct :)</p>","",""
"2581","key","v","v","16.658774193549046","500","250","psychophysics","356","1716172","0.0-356.0","5bc3fb6d21f69f00011d9ad2","620a70404b4e5ee1bbdda961","6","","","","","1","2"
"null","","","null","","","","html-keyboard-response","357","1716673","0.0-357.0","5bc3fb6d21f69f00011d9ad2","620a70404b4e5ee1bbdda961","","","","","<p style=""color:darkgreen;font-size:24px;"">Correct :)</p>","",""
"2490","key","n","n","16.65828000000057","500","250","psychophysics","358","1719167","0.0-358.0","5bc3fb6d21f69f00011d9ad2","620a70404b4e5ee1bbdda961","6","","","","","1","9"
"null","","","null","","","","html-keyboard-response","359","1719669","0.0-359.0","5bc3fb6d21f69f00011d9ad2","620a70404b4e5ee1bbdda961","","","","","<p style=""color:darkgreen;font-size:24px;"">Correct :)</p>","",""
"2557","key","v","v","16.658562091503327","500","250","psychophysics","360","1722230","0.0-360.0","5bc3fb6d21f69f00011d9ad2","620a70404b4e5ee1bbdda961","6","","","","","0","1"
"null","","","null","","","","html-keyboard-response","361","1722732","0.0-361.0","5bc3fb6d21f69f00011d9ad2","620a70404b4e5ee1bbdda961","","","","","<p style=""color:darkgreen;font-size:24px;"">Correct :)</p>","",""
"2586","key","n","n","16.658406451613374","500","250","psychophysics","362","1725322","0.0-362.0","5bc3fb6d21f69f00011d9ad2","620a70404b4e5ee1bbdda961","6","","","","","0","8"
"null","","","null","","","","html-keyboard-response","363","1725823","0.0-363.0","5bc3fb6d21f69f00011d9ad2","620a70404b4e5ee1bbdda961","","","","","<p style=""color:darkgreen;font-size:24px;"">Correct :)</p>","",""
"2921","key","n","n","16.658102272726616","500","250","psychophysics","364","1728747","0.0-364.0","5bc3fb6d21f69f00011d9ad2","620a70404b4e5ee1bbdda961","6","","","","","0","2"
"null","","","null","","","","html-keyboard-response","365","1729249","0.0-365.0","5bc3fb6d21f69f00011d9ad2","620a70404b4e5ee1bbdda961","","","","","<p style=""color:darkgreen;font-size:24px;"">Correct :)</p>","",""
"2622","key","n","n","16.65907643312013","500","250","psychophysics","366","1731873","0.0-366.0","5bc3fb6d21f69f00011d9ad2","620a70404b4e5ee1bbdda961","6","","","","","0","6"
"null","","","null","","","","html-keyboard-response","367","1732375","0.0-367.0","5bc3fb6d21f69f00011d9ad2","620a70404b4e5ee1bbdda961","","","","","<p style=""color:darkgreen;font-size:24px;"">Correct :)</p>","",""
"2671","key","v","v","16.659540372670726","500","250","psychophysics","368","1735050","0.0-368.0","5bc3fb6d21f69f00011d9ad2","620a70404b4e5ee1bbdda961","6","","","","","0","9"
"null","","","null","","","","html-keyboard-response","369","1735551","0.0-369.0","5bc3fb6d21f69f00011d9ad2","620a70404b4e5ee1bbdda961","","","","","<p style=""color:darkgreen;font-size:24px;"">Correct :)</p>","",""
"2633","key","n","n","16.65929746835587","500","250","psychophysics","370","1738187","0.0-370.0","5bc3fb6d21f69f00011d9ad2","620a70404b4e5ee1bbdda961","6","","","","","1","9"
"null","","","null","","","","html-keyboard-response","371","1738689","0.0-371.0","5bc3fb6d21f69f00011d9ad2","620a70404b4e5ee1bbdda961","","","","","<p style=""color:darkgreen;font-size:24px;"">Correct :)</p>","",""
"2609","key","n","n","16.658579617833635","500","250","psychophysics","372","1741300","0.0-372.0","5bc3fb6d21f69f00011d9ad2","620a70404b4e5ee1bbdda961","6","","","","","0","4"
"null","","","null","","","","html-keyboard-response","373","1741802","0.0-373.0","5bc3fb6d21f69f00011d9ad2","620a70404b4e5ee1bbdda961","","","","","<p style=""color:darkgreen;font-size:24px;"">Correct :)</p>","",""
"2596","key","n","n","16.658141025642042","500","250","psychophysics","374","1744403","0.0-374.0","5bc3fb6d21f69f00011d9ad2","620a70404b4e5ee1bbdda961","6","","","","","0","8"
"null","","","null","","","","html-keyboard-response","375","1744904","0.0-375.0","5bc3fb6d21f69f00011d9ad2","620a70404b4e5ee1bbdda961","","","","","<p style=""color:darkgreen;font-size:24px;"">Correct :)</p>","",""
"2601","key","n","n","16.766711538460534","500","250","psychophysics","376","1747509","0.0-376.0","5bc3fb6d21f69f00011d9ad2","620a70404b4e5ee1bbdda961","6","","","","","0","6"
"null","","","null","","","","html-keyboard-response","377","1748010","0.0-377.0","5bc3fb6d21f69f00011d9ad2","620a70404b4e5ee1bbdda961","","","","","<p style=""color:darkgreen;font-size:24px;"">Correct :)</p>","",""
"2583","key","v","v","16.659103225805467","500","250","psychophysics","378","1750596","0.0-378.0","5bc3fb6d21f69f00011d9ad2","620a70404b4e5ee1bbdda961","6","","","","","0","1"
"null","","","null","","","","html-keyboard-response","379","1751097","0.0-379.0","5bc3fb6d21f69f00011d9ad2","620a70404b4e5ee1bbdda961","","","","","<p style=""color:darkgreen;font-size:24px;"">Correct :)</p>","",""
"2743","key","v","v","16.659496969697205","500","250","psychophysics","380","1753844","0.0-380.0","5bc3fb6d21f69f00011d9ad2","620a70404b4e5ee1bbdda961","6","","","","","1","4"
"null","","","null","","","","html-keyboard-response","381","1754346","0.0-381.0","5bc3fb6d21f69f00011d9ad2","620a70404b4e5ee1bbdda961","","","","","<p style=""color:darkgreen;font-size:24px;"">Correct :)</p>","",""
"2541","key","v","v","16.659575163398937","500","250","psychophysics","382","1756890","0.0-382.0","5bc3fb6d21f69f00011d9ad2","620a70404b4e5ee1bbdda961","6","","","","","1","2"
"null","","","null","","","","html-keyboard-response","383","1757392","0.0-383.0","5bc3fb6d21f69f00011d9ad2","620a70404b4e5ee1bbdda961","","","","","<p style=""color:darkgreen;font-size:24px;"">Correct :)</p>","",""
"2501","key","v","v","16.65924666666581","500","250","psychophysics","384","1759897","0.0-384.0","5bc3fb6d21f69f00011d9ad2","620a70404b4e5ee1bbdda961","6","","","","","1","1"
"null","","","null","","","","html-keyboard-response","385","1760398","0.0-385.0","5bc3fb6d21f69f00011d9ad2","620a70404b4e5ee1bbdda961","","","","","<p style=""color:darkgreen;font-size:24px;"">Correct :)</p>","",""
"2591","key","n","n","16.658632258064443","500","250","psychophysics","386","1762993","0.0-386.0","5bc3fb6d21f69f00011d9ad2","620a70404b4e5ee1bbdda961","6","","","","","0","4"
"null","","","null","","","","html-keyboard-response","387","1763494","0.0-387.0","5bc3fb6d21f69f00011d9ad2","620a70404b4e5ee1bbdda961","","","","","<p style=""color:darkgreen;font-size:24px;"">Correct :)</p>","",""
"2685","key","v","v","16.65881481481555","500","250","psychophysics","388","1766182","0.0-388.0","5bc3fb6d21f69f00011d9ad2","620a70404b4e5ee1bbdda961","6","","","","","0","3"
"null","","","null","","","","html-keyboard-response","389","1766683","0.0-389.0","5bc3fb6d21f69f00011d9ad2","620a70404b4e5ee1bbdda961","","","","","<p style=""color:darkgreen;font-size:24px;"">Correct :)</p>","",""
"2731","key","v","v","16.658274390244937","500","250","psychophysics","390","1769418","0.0-390.0","5bc3fb6d21f69f00011d9ad2","620a70404b4e5ee1bbdda961","6","","","","","0","7"
"null","","","null","","","","html-keyboard-response","391","1769919","0.0-391.0","5bc3fb6d21f69f00011d9ad2","620a70404b4e5ee1bbdda961","","","","","<p style=""color:darkgreen;font-size:24px;"">Correct :)</p>","",""
"2517","key","v","v","16.65815894039724","500","250","psychophysics","392","1772440","0.0-392.0","5bc3fb6d21f69f00011d9ad2","620a70404b4e5ee1bbdda961","6","","","","","1","1"
"null","","","null","","","","html-keyboard-response","393","1772941","0.0-393.0","5bc3fb6d21f69f00011d9ad2","620a70404b4e5ee1bbdda961","","","","","<p style=""color:darkgreen;font-size:24px;"">Correct :)</p>","",""
"2638","key","v","v","16.65825786163486","500","250","psychophysics","394","1775587","0.0-394.0","5bc3fb6d21f69f00011d9ad2","620a70404b4e5ee1bbdda961","6","","","","","0","3"
"null","","","null","","","","html-keyboard-response","395","1776090","0.0-395.0","5bc3fb6d21f69f00011d9ad2","620a70404b4e5ee1bbdda961","","","","","<p style=""color:darkgreen;font-size:24px;"">Correct :)</p>","",""
"7551","","","v","","","","html-keyboard-response","396","1783642","0.0-396.0","5bc3fb6d21f69f00011d9ad2","620a70404b4e5ee1bbdda961","","","","","<p> Last set of trials.  Here, the tasks are going to switch once again.  We are going to do 50 of these.  And then you are done with the experiment.  </p>  <br><br>  Ready? (press v or n)","",""
"2765","key","v","v","16.65933734939731","500","250","psychophysics","397","1786410","0.0-397.0","5bc3fb6d21f69f00011d9ad2","620a70404b4e5ee1bbdda961","7","","","","","0","7"
"null","","","null","","","","html-keyboard-response","398","1786912","0.0-398.0","5bc3fb6d21f69f00011d9ad2","620a70404b4e5ee1bbdda961","","","","","<p style=""color:darkgreen;font-size:24px;"">Correct :)</p>","",""
"2712","key","v","v","16.658196319018895","500","250","psychophysics","399","1789628","0.0-399.0","5bc3fb6d21f69f00011d9ad2","620a70404b4e5ee1bbdda961","7","","","","","1","4"
"null","","","null","","","","html-keyboard-response","400","1790130","0.0-400.0","5bc3fb6d21f69f00011d9ad2","620a70404b4e5ee1bbdda961","","","","","<p style=""color:darkgreen;font-size:24px;"">Correct :)</p>","",""
"2567","key","v","v","16.659603896103317","500","250","psychophysics","401","1792699","0.0-401.0","5bc3fb6d21f69f00011d9ad2","620a70404b4e5ee1bbdda961","7","","","","","1","3"
"null","","","null","","","","html-keyboard-response","402","1793202","0.0-402.0","5bc3fb6d21f69f00011d9ad2","620a70404b4e5ee1bbdda961","","","","","<p style=""color:darkgreen;font-size:24px;"">Correct :)</p>","",""
"2529","key","v","v","16.65751655629238","500","250","psychophysics","403","1795732","0.0-403.0","5bc3fb6d21f69f00011d9ad2","620a70404b4e5ee1bbdda961","7","","","","","0","3"
"null","","","null","","","","html-keyboard-response","404","1796233","0.0-404.0","5bc3fb6d21f69f00011d9ad2","620a70404b4e5ee1bbdda961","","","","","<p style=""color:darkgreen;font-size:24px;"">Correct :)</p>","",""
"2542","key","n","n","16.658453947368177","500","250","psychophysics","405","1798779","0.0-405.0","5bc3fb6d21f69f00011d9ad2","620a70404b4e5ee1bbdda961","7","","","","","0","6"
"null","","","null","","","","html-keyboard-response","406","1799280","0.0-406.0","5bc3fb6d21f69f00011d9ad2","620a70404b4e5ee1bbdda961","","","","","<p style=""color:darkgreen;font-size:24px;"">Correct :)</p>","",""
"2501","key","n","n","16.770386666666408","500","250","psychophysics","407","1801785","0.0-407.0","5bc3fb6d21f69f00011d9ad2","620a70404b4e5ee1bbdda961","7","","","","","0","6"
"null","","","null","","","","html-keyboard-response","408","1802286","0.0-408.0","5bc3fb6d21f69f00011d9ad2","620a70404b4e5ee1bbdda961","","","","","<p style=""color:darkgreen;font-size:24px;"">Correct :)</p>","",""
"2496","key","n","n","16.659126666666317","500","250","psychophysics","409","1804786","0.0-409.0","5bc3fb6d21f69f00011d9ad2","620a70404b4e5ee1bbdda961","7","","","","","1","6"
"null","","","null","","","","html-keyboard-response","410","1805288","0.0-410.0","5bc3fb6d21f69f00011d9ad2","620a70404b4e5ee1bbdda961","","","","","<p style=""color:darkgreen;font-size:24px;"">Correct :)</p>","",""
"2507","key","n","n","16.660298013245527","500","250","psychophysics","411","1807798","0.0-411.0","5bc3fb6d21f69f00011d9ad2","620a70404b4e5ee1bbdda961","7","","","","","0","6"
"null","","","null","","","","html-keyboard-response","412","1808299","0.0-412.0","5bc3fb6d21f69f00011d9ad2","620a70404b4e5ee1bbdda961","","","","","<p style=""color:darkgreen;font-size:24px;"">Correct :)</p>","",""
"3015","key","v","v","16.659193370165816","500","250","psychophysics","413","1811317","0.0-413.0","5bc3fb6d21f69f00011d9ad2","620a70404b4e5ee1bbdda961","7","","","","","1","4"
"null","","","null","","","","html-keyboard-response","414","1811825","0.0-414.0","5bc3fb6d21f69f00011d9ad2","620a70404b4e5ee1bbdda961","","","","","<p style=""color:darkgreen;font-size:24px;"">Correct :)</p>","",""
"2544","key","v","v","16.77052631579021","500","250","psychophysics","415","1814373","0.0-415.0","5bc3fb6d21f69f00011d9ad2","620a70404b4e5ee1bbdda961","7","","","","","0","3"
"null","","","null","","","","html-keyboard-response","416","1814874","0.0-416.0","5bc3fb6d21f69f00011d9ad2","620a70404b4e5ee1bbdda961","","","","","<p style=""color:darkgreen;font-size:24px;"">Correct :)</p>","",""
"3075","key","n","n","16.748864130435877","500","250","psychophysics","417","1817952","0.0-417.0","5bc3fb6d21f69f00011d9ad2","620a70404b4e5ee1bbdda961","7","","","","","0","2"
"null","","","null","","","","html-keyboard-response","418","1818454","0.0-418.0","5bc3fb6d21f69f00011d9ad2","620a70404b4e5ee1bbdda961","","","","","<p style=""color:darkgreen;font-size:24px;"">Correct :)</p>","",""
"2500","key","v","v","16.659807947020212","500","250","psychophysics","419","1820959","0.0-419.0","5bc3fb6d21f69f00011d9ad2","620a70404b4e5ee1bbdda961","7","","","","","0","1"
"null","","","null","","","","html-keyboard-response","420","1821461","0.0-420.0","5bc3fb6d21f69f00011d9ad2","620a70404b4e5ee1bbdda961","","","","","<p style=""color:darkgreen;font-size:24px;"">Correct :)</p>","",""
"2490","key","n","n","16.658711409396272","500","250","psychophysics","421","1823955","0.0-421.0","5bc3fb6d21f69f00011d9ad2","620a70404b4e5ee1bbdda961","7","","","","","0","6"
"null","","","null","","","","html-keyboard-response","422","1824457","0.0-422.0","5bc3fb6d21f69f00011d9ad2","620a70404b4e5ee1bbdda961","","","","","<p style=""color:darkgreen;font-size:24px;"">Correct :)</p>","",""
"2752","key","v","v","16.659042424241534","500","250","psychophysics","423","1827212","0.0-423.0","5bc3fb6d21f69f00011d9ad2","620a70404b4e5ee1bbdda961","7","","","","","1","2"
"null","","","null","","","","html-keyboard-response","424","1827714","0.0-424.0","5bc3fb6d21f69f00011d9ad2","620a70404b4e5ee1bbdda961","","","","","<p style=""color:darkgreen;font-size:24px;"">Correct :)</p>","",""
"2919","key","v","v","16.65988068181799","500","250","psychophysics","425","1830637","0.0-425.0","5bc3fb6d21f69f00011d9ad2","620a70404b4e5ee1bbdda961","7","","","","","1","2"
"null","","","null","","","","html-keyboard-response","426","1831139","0.0-426.0","5bc3fb6d21f69f00011d9ad2","620a70404b4e5ee1bbdda961","","","","","<p style=""color:darkgreen;font-size:24px;"">Correct :)</p>","",""
"2545","key","v","v","16.65861437908447","500","250","psychophysics","427","1833688","0.0-427.0","5bc3fb6d21f69f00011d9ad2","620a70404b4e5ee1bbdda961","7","","","","","1","2"
"null","","","null","","","","html-keyboard-response","428","1834189","0.0-428.0","5bc3fb6d21f69f00011d9ad2","620a70404b4e5ee1bbdda961","","","","","<p style=""color:darkgreen;font-size:24px;"">Correct :)</p>","",""
"2637","key","n","n","16.65993037974739","500","250","psychophysics","429","1836829","0.0-429.0","5bc3fb6d21f69f00011d9ad2","620a70404b4e5ee1bbdda961","7","","","","","0","2"
"null","","","null","","","","html-keyboard-response","430","1837331","0.0-430.0","5bc3fb6d21f69f00011d9ad2","620a70404b4e5ee1bbdda961","","","","","<p style=""color:darkgreen;font-size:24px;"">Correct :)</p>","",""
"2757","key","v","v","16.76017575757578","500","250","psychophysics","431","1840091","0.0-431.0","5bc3fb6d21f69f00011d9ad2","620a70404b4e5ee1bbdda961","7","","","","","1","3"
"null","","","null","","","","html-keyboard-response","432","1840593","0.0-432.0","5bc3fb6d21f69f00011d9ad2","620a70404b4e5ee1bbdda961","","","","","<p style=""color:darkgreen;font-size:24px;"">Correct :)</p>","",""
"2492","key","n","n","16.658299999999194","500","250","psychophysics","433","1843088","0.0-433.0","5bc3fb6d21f69f00011d9ad2","620a70404b4e5ee1bbdda961","7","","","","","0","4"
"null","","","null","","","","html-keyboard-response","434","1843590","0.0-434.0","5bc3fb6d21f69f00011d9ad2","620a70404b4e5ee1bbdda961","","","","","<p style=""color:darkgreen;font-size:24px;"">Correct :)</p>","",""
"2712","key","v","v","16.659496932514756","500","250","psychophysics","435","1846305","0.0-435.0","5bc3fb6d21f69f00011d9ad2","620a70404b4e5ee1bbdda961","7","","","","","1","3"
"null","","","null","","","","html-keyboard-response","436","1846806","0.0-436.0","5bc3fb6d21f69f00011d9ad2","620a70404b4e5ee1bbdda961","","","","","<p style=""color:darkgreen;font-size:24px;"">Correct :)</p>","",""
"2606","key","n","n","16.657974522292413","500","250","psychophysics","437","1849417","0.0-437.0","5bc3fb6d21f69f00011d9ad2","620a70404b4e5ee1bbdda961","7","","","","","0","6"
"null","","","null","","","","html-keyboard-response","438","1849918","0.0-438.0","5bc3fb6d21f69f00011d9ad2","620a70404b4e5ee1bbdda961","","","","","<p style=""color:darkgreen;font-size:24px;"">Correct :)</p>","",""
"2743","key","v","v","16.658872727273653","500","250","psychophysics","439","1852664","0.0-439.0","5bc3fb6d21f69f00011d9ad2","620a70404b4e5ee1bbdda961","7","","","","","0","7"
"null","","","null","","","","html-keyboard-response","440","1853166","0.0-440.0","5bc3fb6d21f69f00011d9ad2","620a70404b4e5ee1bbdda961","","","","","<p style=""color:darkgreen;font-size:24px;"">Correct :)</p>","",""
"2502","key","v","v","16.65852666666576","500","250","psychophysics","441","1855671","0.0-441.0","5bc3fb6d21f69f00011d9ad2","620a70404b4e5ee1bbdda961","7","","","","","1","1"
"null","","","null","","","","html-keyboard-response","442","1856172","0.0-442.0","5bc3fb6d21f69f00011d9ad2","620a70404b4e5ee1bbdda961","","","","","<p style=""color:darkgreen;font-size:24px;"">Correct :)</p>","",""
"2506","key","v","v","16.769039999999418","500","250","psychophysics","443","1858681","0.0-443.0","5bc3fb6d21f69f00011d9ad2","620a70404b4e5ee1bbdda961","7","","","","","1","1"
"null","","","null","","","","html-keyboard-response","444","1859181","0.0-444.0","5bc3fb6d21f69f00011d9ad2","620a70404b4e5ee1bbdda961","","","","","<p style=""color:darkgreen;font-size:24px;"">Correct :)</p>","",""
"2674","key","n","n","16.65865217391344","500","250","psychophysics","445","1861857","0.0-445.0","5bc3fb6d21f69f00011d9ad2","620a70404b4e5ee1bbdda961","7","","","","","0","2"
"null","","","null","","","","html-keyboard-response","446","1862359","0.0-446.0","5bc3fb6d21f69f00011d9ad2","620a70404b4e5ee1bbdda961","","","","","<p style=""color:darkgreen;font-size:24px;"">Correct :)</p>","",""
"2849","key","n","n","16.660643274853637","500","250","psychophysics","447","1865212","0.0-447.0","5bc3fb6d21f69f00011d9ad2","620a70404b4e5ee1bbdda961","7","","","","","1","6"
"null","","","null","","","","html-keyboard-response","448","1865712","0.0-448.0","5bc3fb6d21f69f00011d9ad2","620a70404b4e5ee1bbdda961","","","","","<p style=""color:darkgreen;font-size:24px;"">Correct :)</p>","",""
"2532","key","v","v","16.659361842105252","500","250","psychophysics","449","1868248","0.0-449.0","5bc3fb6d21f69f00011d9ad2","620a70404b4e5ee1bbdda961","7","","","","","1","2"
"null","","","null","","","","html-keyboard-response","450","1868750","0.0-450.0","5bc3fb6d21f69f00011d9ad2","620a70404b4e5ee1bbdda961","","","","","<p style=""color:darkgreen;font-size:24px;"">Correct :)</p>","",""
"2536","key","v","v","16.76801315789405","500","250","psychophysics","451","1871289","0.0-451.0","5bc3fb6d21f69f00011d9ad2","620a70404b4e5ee1bbdda961","7","","","","","0","1"
"null","","","null","","","","html-keyboard-response","452","1871790","0.0-452.0","5bc3fb6d21f69f00011d9ad2","620a70404b4e5ee1bbdda961","","","","","<p style=""color:darkgreen;font-size:24px;"">Correct :)</p>","",""
"2859","key","v","v","16.6579069767437","500","250","psychophysics","453","1874652","0.0-453.0","5bc3fb6d21f69f00011d9ad2","620a70404b4e5ee1bbdda961","7","","","","","0","3"
"null","","","null","","","","html-keyboard-response","454","1875153","0.0-454.0","5bc3fb6d21f69f00011d9ad2","620a70404b4e5ee1bbdda961","","","","","<p style=""color:darkgreen;font-size:24px;"">Correct :)</p>","",""
"2743","key","v","v","16.65929696969688","500","250","psychophysics","455","1877900","0.0-455.0","5bc3fb6d21f69f00011d9ad2","620a70404b4e5ee1bbdda961","7","","","","","1","3"
"null","","","null","","","","html-keyboard-response","456","1878402","0.0-456.0","5bc3fb6d21f69f00011d9ad2","620a70404b4e5ee1bbdda961","","","","","<p style=""color:darkgreen;font-size:24px;"">Correct :)</p>","",""
"2502","key","v","v","16.658886666665786","500","250","psychophysics","457","1880907","0.0-457.0","5bc3fb6d21f69f00011d9ad2","620a70404b4e5ee1bbdda961","7","","","","","1","1"
"null","","","null","","","","html-keyboard-response","458","1881409","0.0-458.0","5bc3fb6d21f69f00011d9ad2","620a70404b4e5ee1bbdda961","","","","","<p style=""color:darkgreen;font-size:24px;"">Correct :)</p>","",""
"2531","key","n","n","16.658618421053305","500","250","psychophysics","459","1883943","0.0-459.0","5bc3fb6d21f69f00011d9ad2","620a70404b4e5ee1bbdda961","7","","","","","0","6"
"null","","","null","","","","html-keyboard-response","460","1884444","0.0-460.0","5bc3fb6d21f69f00011d9ad2","620a70404b4e5ee1bbdda961","","","","","<p style=""color:darkgreen;font-size:24px;"">Correct :)</p>","",""
"2522","key","v","v","16.659072847682243","500","250","psychophysics","461","1886975","0.0-461.0","5bc3fb6d21f69f00011d9ad2","620a70404b4e5ee1bbdda961","7","","","","","1","3"
"null","","","null","","","","html-keyboard-response","462","1887477","0.0-462.0","5bc3fb6d21f69f00011d9ad2","620a70404b4e5ee1bbdda961","","","","","<p style=""color:darkgreen;font-size:24px;"">Correct :)</p>","",""
"2542","key","v","v","16.6583841059616","500","250","psychophysics","463","1890021","0.0-463.0","5bc3fb6d21f69f00011d9ad2","620a70404b4e5ee1bbdda961","7","","","","","0","1"
"null","","","null","","","","html-keyboard-response","464","1890523","0.0-464.0","5bc3fb6d21f69f00011d9ad2","620a70404b4e5ee1bbdda961","","","","","<p style=""color:darkgreen;font-size:24px;"">Correct :)</p>","",""
"2864","key","n","n","16.65831791907495","500","250","psychophysics","465","1893392","0.0-465.0","5bc3fb6d21f69f00011d9ad2","620a70404b4e5ee1bbdda961","7","","","","","1","7"
"null","","","null","","","","html-keyboard-response","466","1893894","0.0-466.0","5bc3fb6d21f69f00011d9ad2","620a70404b4e5ee1bbdda961","","","","","<p style=""color:darkgreen;font-size:24px;"">Correct :)</p>","",""
"2684","key","n","n","16.659012422360398","500","250","psychophysics","467","1896581","0.0-467.0","5bc3fb6d21f69f00011d9ad2","620a70404b4e5ee1bbdda961","7","","","","","0","2"
"null","","","null","","","","html-keyboard-response","468","1897083","0.0-468.0","5bc3fb6d21f69f00011d9ad2","620a70404b4e5ee1bbdda961","","","","","<p style=""color:darkgreen;font-size:24px;"">Correct :)</p>","",""
"2669","key","v","v","16.65856521739046","500","250","psychophysics","469","1899755","0.0-469.0","5bc3fb6d21f69f00011d9ad2","620a70404b4e5ee1bbdda961","7","","","","","0","3"
"null","","","null","","","","html-keyboard-response","470","1900257","0.0-470.0","5bc3fb6d21f69f00011d9ad2","620a70404b4e5ee1bbdda961","","","","","<p style=""color:darkgreen;font-size:24px;"">Correct :)</p>","",""
"2449","key","n","n","16.659136054422834","500","250","psychophysics","471","1902710","0.0-471.0","5bc3fb6d21f69f00011d9ad2","620a70404b4e5ee1bbdda961","7","","","","","1","7"
"null","","","null","","","","html-keyboard-response","472","1903211","0.0-472.0","5bc3fb6d21f69f00011d9ad2","620a70404b4e5ee1bbdda961","","","","","<p style=""color:darkgreen;font-size:24px;"">Correct :)</p>","",""
"2829","key","v","v","16.658635294118294","500","250","psychophysics","473","1906044","0.0-473.0","5bc3fb6d21f69f00011d9ad2","620a70404b4e5ee1bbdda961","7","","","","","0","7"
"null","","","null","","","","html-keyboard-response","474","1906545","0.0-474.0","5bc3fb6d21f69f00011d9ad2","620a70404b4e5ee1bbdda961","","","","","<p style=""color:darkgreen;font-size:24px;"">Correct :)</p>","",""
"2641","key","n","n","16.659213836477637","500","250","psychophysics","475","1909190","0.0-475.0","5bc3fb6d21f69f00011d9ad2","620a70404b4e5ee1bbdda961","7","","","","","0","4"
"null","","","null","","","","html-keyboard-response","476","1909695","0.0-476.0","5bc3fb6d21f69f00011d9ad2","620a70404b4e5ee1bbdda961","","","","","<p style=""color:darkgreen;font-size:24px;"">Correct :)</p>","",""
"2654","key","n","n","16.659443749999628","500","250","psychophysics","477","1912352","0.0-477.0","5bc3fb6d21f69f00011d9ad2","620a70404b4e5ee1bbdda961","7","","","","","0","4"
"null","","","null","","","","html-keyboard-response","478","1912854","0.0-478.0","5bc3fb6d21f69f00011d9ad2","620a70404b4e5ee1bbdda961","","","","","<p style=""color:darkgreen;font-size:24px;"">Correct :)</p>","",""
"2567","key","v","v","16.658084415584234","500","250","psychophysics","479","1915424","0.0-479.0","5bc3fb6d21f69f00011d9ad2","620a70404b4e5ee1bbdda961","7","","","","","0","1"
"null","","","null","","","","html-keyboard-response","480","1915925","0.0-480.0","5bc3fb6d21f69f00011d9ad2","620a70404b4e5ee1bbdda961","","","","","<p style=""color:darkgreen;font-size:24px;"">Correct :)</p>","",""
"2508","key","n","n","16.65845695364332","500","250","psychophysics","481","1918435","0.0-481.0","5bc3fb6d21f69f00011d9ad2","620a70404b4e5ee1bbdda961","7","","","","","0","4"
"null","","","null","","","","html-keyboard-response","482","1918936","0.0-482.0","5bc3fb6d21f69f00011d9ad2","620a70404b4e5ee1bbdda961","","","","","<p style=""color:darkgreen;font-size:24px;"">Correct :)</p>","",""
"2542","key","v","v","16.659549019608367","500","250","psychophysics","483","1921482","0.0-483.0","5bc3fb6d21f69f00011d9ad2","620a70404b4e5ee1bbdda961","7","","","","","0","7"
"null","","","null","","","","html-keyboard-response","484","1921983","0.0-484.0","5bc3fb6d21f69f00011d9ad2","620a70404b4e5ee1bbdda961","","","","","<p style=""color:darkgreen;font-size:24px;"">Correct :)</p>","",""
"2526","key","n","n","16.658578947368753","500","250","psychophysics","485","1924513","0.0-485.0","5bc3fb6d21f69f00011d9ad2","620a70404b4e5ee1bbdda961","7","","","","","1","7"
"null","","","null","","","","html-keyboard-response","486","1925014","0.0-486.0","5bc3fb6d21f69f00011d9ad2","620a70404b4e5ee1bbdda961","","","","","<p style=""color:darkgreen;font-size:24px;"">Correct :)</p>","",""
"2568","key","v","v","16.659155844155904","500","250","psychophysics","487","1927585","0.0-487.0","5bc3fb6d21f69f00011d9ad2","620a70404b4e5ee1bbdda961","7","","","","","0","1"
"null","","","null","","","","html-keyboard-response","488","1928086","0.0-488.0","5bc3fb6d21f69f00011d9ad2","620a70404b4e5ee1bbdda961","","","","","<p style=""color:darkgreen;font-size:24px;"">Correct :)</p>","",""
"2789","key","n","n","16.6596666666668","500","250","psychophysics","489","1930878","0.0-489.0","5bc3fb6d21f69f00011d9ad2","620a70404b4e5ee1bbdda961","7","","","","","1","6"
"null","","","null","","","","html-keyboard-response","490","1931380","0.0-490.0","5bc3fb6d21f69f00011d9ad2","620a70404b4e5ee1bbdda961","","","","","<p style=""color:darkgreen;font-size:24px;"">Correct :)</p>","",""
"2613","key","v","v","16.65928662420476","500","250","psychophysics","491","1933995","0.0-491.0","5bc3fb6d21f69f00011d9ad2","620a70404b4e5ee1bbdda961","7","","","","","0","3"
"null","","","null","","","","html-keyboard-response","492","1934497","0.0-492.0","5bc3fb6d21f69f00011d9ad2","620a70404b4e5ee1bbdda961","","","","","<p style=""color:darkgreen;font-size:24px;"">Correct :)</p>","",""
"2653","key","n","n","16.65829559748424","500","250","psychophysics","493","1937152","0.0-493.0","5bc3fb6d21f69f00011d9ad2","620a70404b4e5ee1bbdda961","7","","","","","0","2"
"null","","","null","","","","html-keyboard-response","494","1937653","0.0-494.0","5bc3fb6d21f69f00011d9ad2","620a70404b4e5ee1bbdda961","","","","","<p style=""color:darkgreen;font-size:24px;"">Correct :)</p>","",""
"2558","key","v","v","16.65841176470565","500","250","psychophysics","495","1940214","0.0-495.0","5bc3fb6d21f69f00011d9ad2","620a70404b4e5ee1bbdda961","7","","","","","1","4"
"null","","","null","","","","html-keyboard-response","496","1940715","0.0-496.0","5bc3fb6d21f69f00011d9ad2","620a70404b4e5ee1bbdda961","","","","","<p style=""color:darkgreen;font-size:24px;"">Correct :)</p>","",""
