"rt","response_type","key_press","response","avg_frame_time","center_x","center_y","trial_type","trial_index","time_elapsed","internal_node_id","pid","sid","phase","guide","targ","resp","stimulus","is5","stim"
"4546","key"," "," ","16.721113553113554","500","250","psychophysics","0","4586","0.0-0.0","61084aea533adb7e7518d4df","6213bd7c25ba286514140921","","","","","","",""
"2604","key"," "," ","16.660064102564103","500","250","psychophysics","1","7194","0.0-1.0","61084aea533adb7e7518d4df","6213bd7c25ba286514140921","","","","","","",""
"3075","key"," "," ","16.66005978260869","500","250","psychophysics","2","10272","0.0-2.0","61084aea533adb7e7518d4df","6213bd7c25ba286514140921","","","","","","",""
"1293","key"," "," ","16.65985526315791","500","250","psychophysics","3","11568","0.0-3.0","61084aea533adb7e7518d4df","6213bd7c25ba286514140921","","","","","","",""
"2962","key"," "," ","16.66006179775281","500","250","psychophysics","4","14534","0.0-4.0","61084aea533adb7e7518d4df","6213bd7c25ba286514140921","","","","","","",""
"8977","key"," "," ","16.660079925650553","500","250","psychophysics","5","23514","0.0-5.0","61084aea533adb7e7518d4df","6213bd7c25ba286514140921","","","","","","",""
"3598","key"," "," ","16.660097674418598","500","250","psychophysics","6","27114","0.0-6.0","61084aea533adb7e7518d4df","6213bd7c25ba286514140921","","","","","","",""
"4059","key"," "," ","16.66010330578512","500","250","psychophysics","7","31176","0.0-7.0","61084aea533adb7e7518d4df","6213bd7c25ba286514140921","","","","","","",""
"16969","key"," "," ","16.660066797642436","500","250","psychophysics","8","48148","0.0-8.0","61084aea533adb7e7518d4df","6213bd7c25ba286514140921","0","0","39","39","","",""
"3988","key"," "," ","16.66000000000002","500","250","psychophysics","9","52139","0.0-9.0","61084aea533adb7e7518d4df","6213bd7c25ba286514140921","","","","","","",""
"1678","key"," "," ","16.660020000000003","500","250","psychophysics","10","53820","0.0-10.0","61084aea533adb7e7518d4df","6213bd7c25ba286514140921","","","","","","",""
"6140","key"," "," ","16.66011171662125","500","250","psychophysics","11","59964","0.0-11.0","61084aea533adb7e7518d4df","6213bd7c25ba286514140921","","","","","","",""
"2924","key"," "," ","16.660028571428555","500","250","psychophysics","12","62893","0.0-12.0","61084aea533adb7e7518d4df","6213bd7c25ba286514140921","","","","","","",""
"2028","key"," "," ","16.66007438016534","500","250","psychophysics","13","64924","0.0-13.0","61084aea533adb7e7518d4df","6213bd7c25ba286514140921","","","","","","",""
"3641","key"," "," ","16.660009174311917","500","250","psychophysics","14","68568","0.0-14.0","61084aea533adb7e7518d4df","6213bd7c25ba286514140921","","","","","","",""
"3408","key"," "," ","16.660117647058843","500","250","psychophysics","15","71978","0.0-15.0","61084aea533adb7e7518d4df","6213bd7c25ba286514140921","","","","","","",""
"1919","key"," "," ","16.6600614035088","500","250","psychophysics","16","73900","0.0-16.0","61084aea533adb7e7518d4df","6213bd7c25ba286514140921","","","","","","",""
"9003","key"," "," ","16.660061224489798","500","250","psychophysics","17","82906","0.0-17.0","61084aea533adb7e7518d4df","6213bd7c25ba286514140921","1","0","21","26","","",""
"5684","key"," "," ","16.66006158357773","500","250","psychophysics","18","88593","0.0-18.0","61084aea533adb7e7518d4df","6213bd7c25ba286514140921","1","5","34","34","","",""
"4922","key"," "," ","16.6601258503401","500","250","psychophysics","19","93518","0.0-19.0","61084aea533adb7e7518d4df","6213bd7c25ba286514140921","1","0","45","51","","",""
"6628","key"," "," ","16.66008291457287","500","250","psychophysics","20","100151","0.0-20.0","61084aea533adb7e7518d4df","6213bd7c25ba286514140921","1","5","37","36","","",""
"4485","key"," "," ","16.66007835820895","500","250","psychophysics","21","104638","0.0-21.0","61084aea533adb7e7518d4df","6213bd7c25ba286514140921","1","0","29","33","","",""
"4184","key"," "," ","16.660083999999973","500","250","psychophysics","22","108825","0.0-22.0","61084aea533adb7e7518d4df","6213bd7c25ba286514140921","1","5","33","33","","",""
"2713","key"," "," ","16.660141975308637","500","250","psychophysics","23","111540","0.0-23.0","61084aea533adb7e7518d4df","6213bd7c25ba286514140921","1","0","53","43","","",""
"5373","key"," "," ","16.660040372670796","500","250","psychophysics","24","116915","0.0-24.0","61084aea533adb7e7518d4df","6213bd7c25ba286514140921","1","5","47","50","","",""
"4554","key"," "," ","16.660033088235277","500","250","psychophysics","25","121471","0.0-25.0","61084aea533adb7e7518d4df","6213bd7c25ba286514140921","1","0","39","48","","",""
"6863","key"," "," ","16.6600703883495","500","250","psychophysics","26","128341","0.0-26.0","61084aea533adb7e7518d4df","6213bd7c25ba286514140921","1","5","53","56","","",""
"8271","key"," "," ","16.660072727272766","500","250","psychophysics","27","136618","0.0-27.0","61084aea533adb7e7518d4df","6213bd7c25ba286514140921","1","0","34","39","","",""
"4454","key"," "," ","16.660078651685428","500","250","psychophysics","28","141076","0.0-28.0","61084aea533adb7e7518d4df","6213bd7c25ba286514140921","1","5","43","46","","",""
"5333","key"," "," ","16.66008150470217","500","250","psychophysics","29","146412","0.0-29.0","61084aea533adb7e7518d4df","6213bd7c25ba286514140921","1","0","33","41","","",""
"3849","key"," "," ","16.66001731601735","500","250","psychophysics","30","150265","0.0-30.0","61084aea533adb7e7518d4df","6213bd7c25ba286514140921","1","5","23","23","","",""
"6038","key"," "," ","16.660077562326872","500","250","psychophysics","31","156306","0.0-31.0","61084aea533adb7e7518d4df","6213bd7c25ba286514140921","1","0","59","71","","",""
"4354","key"," "," ","16.660122605363934","500","250","psychophysics","32","160662","0.0-32.0","61084aea533adb7e7518d4df","6213bd7c25ba286514140921","1","5","39","43","","",""
"3211","key"," "," ","16.66002083333342","500","250","psychophysics","33","163875","0.0-33.0","61084aea533adb7e7518d4df","6213bd7c25ba286514140921","1","0","24","32","","",""
"5031","key"," "," ","16.660073089700997","500","250","psychophysics","34","168909","0.0-34.0","61084aea533adb7e7518d4df","6213bd7c25ba286514140921","1","5","48","48","","",""
"4191","key"," "," ","16.660064000000013","500","250","psychophysics","35","173102","0.0-35.0","61084aea533adb7e7518d4df","6213bd7c25ba286514140921","1","0","51","58","","",""
"4048","key"," "," ","16.66005349794243","500","250","psychophysics","36","177155","0.0-36.0","61084aea533adb7e7518d4df","6213bd7c25ba286514140921","1","5","35","39","","",""
"2139","key"," "," ","16.660055118110158","500","250","psychophysics","37","179296","0.0-37.0","61084aea533adb7e7518d4df","6213bd7c25ba286514140921","","","","","","",""
"3118","key"," "," ","16.66008064516126","500","250","psychophysics","38","182416","0.0-38.0","61084aea533adb7e7518d4df","6213bd7c25ba286514140921","","","","","","",""
"1589","key"," "," ","16.659968421052785","500","250","psychophysics","39","184009","0.0-39.0","61084aea533adb7e7518d4df","6213bd7c25ba286514140921","","","","","","",""
"4150","key"," "," ","16.660064516129136","500","250","psychophysics","40","188161","0.0-40.0","61084aea533adb7e7518d4df","6213bd7c25ba286514140921","2","0","37","47","","",""
"2506","key"," "," ","16.660086666666707","500","250","psychophysics","41","190676","0.0-41.0","61084aea533adb7e7518d4df","6213bd7c25ba286514140921","","","","","","",""
"4742","key"," "," ","16.660052816901466","500","250","psychophysics","42","195421","0.0-42.0","61084aea533adb7e7518d4df","6213bd7c25ba286514140921","2","0","43","51","","",""
"1580","key"," "," ","16.659946808510675","500","250","psychophysics","43","197003","0.0-43.0","61084aea533adb7e7518d4df","6213bd7c25ba286514140921","","","","","","",""
"4915","key"," "," ","16.660095238095234","500","250","psychophysics","44","201920","0.0-44.0","61084aea533adb7e7518d4df","6213bd7c25ba286514140921","2","0","37","43","","",""
"8192","key"," "," ","16.660067209775953","500","250","psychophysics","45","210114","0.0-45.0","61084aea533adb7e7518d4df","6213bd7c25ba286514140921","","","","","","",""
"4314","key"," "," ","16.660019379844975","500","250","psychophysics","46","214430","0.0-46.0","61084aea533adb7e7518d4df","6213bd7c25ba286514140921","2","0","60","64","","",""
"2318","key"," "," ","16.659942028985615","500","250","psychophysics","47","216750","0.0-47.0","61084aea533adb7e7518d4df","6213bd7c25ba286514140921","","","","","","",""
"3426","key"," "," ","16.66008292682932","500","250","psychophysics","48","220178","0.0-48.0","61084aea533adb7e7518d4df","6213bd7c25ba286514140921","2","0","39","45","","",""
"1407","key"," "," ","16.659976190476126","500","250","psychophysics","49","221587","0.0-49.0","61084aea533adb7e7518d4df","6213bd7c25ba286514140921","","","","","","",""
"2978","key"," "," ","16.660061797752697","500","250","psychophysics","50","224568","0.0-50.0","61084aea533adb7e7518d4df","6213bd7c25ba286514140921","2","0","28","33","","",""
"1213","key"," "," ","16.66005633802778","500","250","psychophysics","51","225783","0.0-51.0","61084aea533adb7e7518d4df","6213bd7c25ba286514140921","","","","","","",""
"3702","key"," "," ","16.660103603603627","500","250","psychophysics","52","229490","0.0-52.0","61084aea533adb7e7518d4df","6213bd7c25ba286514140921","2","0","40","42","","",""
"1491","key"," "," ","16.65987640449462","500","250","psychophysics","53","230982","0.0-53.0","61084aea533adb7e7518d4df","6213bd7c25ba286514140921","","","","","","",""
"3399","key"," "," ","16.660039408867053","500","250","psychophysics","54","234384","0.0-54.0","61084aea533adb7e7518d4df","6213bd7c25ba286514140921","2","0","50","51","","",""
"1318","key"," "," ","16.66012820512846","500","250","psychophysics","55","235704","0.0-55.0","61084aea533adb7e7518d4df","6213bd7c25ba286514140921","","","","","","",""
"2074","key"," "," ","16.660169354838747","500","250","psychophysics","56","237781","0.0-56.0","61084aea533adb7e7518d4df","6213bd7c25ba286514140921","2","0","21","27","","",""
"973","key"," "," ","16.659877192982158","500","250","psychophysics","57","238756","0.0-57.0","61084aea533adb7e7518d4df","6213bd7c25ba286514140921","","","","","","",""
"4098","key"," "," ","16.660085714285675","500","250","psychophysics","58","242857","0.0-58.0","61084aea533adb7e7518d4df","6213bd7c25ba286514140921","2","0","34","35","","",""
"1771","key"," "," ","16.65999056603776","500","250","psychophysics","59","244632","0.0-59.0","61084aea533adb7e7518d4df","6213bd7c25ba286514140921","","","","","","",""
"2845","key"," "," ","16.660100000000025","500","250","psychophysics","60","247479","0.0-60.0","61084aea533adb7e7518d4df","6213bd7c25ba286514140921","2","0","40","40","","",""
"1851","key"," "," ","16.66015454545453","500","250","psychophysics","61","249332","0.0-61.0","61084aea533adb7e7518d4df","6213bd7c25ba286514140921","","","","","","",""
"3540","key"," "," ","16.660042452830208","500","250","psychophysics","62","252874","0.0-62.0","61084aea533adb7e7518d4df","6213bd7c25ba286514140921","2","0","53","52","","",""
"1397","key"," "," ","16.660204819277006","500","250","psychophysics","63","254274","0.0-63.0","61084aea533adb7e7518d4df","6213bd7c25ba286514140921","","","","","","",""
"2144","key"," "," ","16.65994488188972","500","250","psychophysics","64","256421","0.0-64.0","61084aea533adb7e7518d4df","6213bd7c25ba286514140921","2","0","26","30","","",""
"1165","key"," "," ","16.659842857143044","500","250","psychophysics","65","257589","0.0-65.0","61084aea533adb7e7518d4df","6213bd7c25ba286514140921","","","","","","",""
"2768","key"," "," ","16.660157575757616","500","250","psychophysics","66","260359","0.0-66.0","61084aea533adb7e7518d4df","6213bd7c25ba286514140921","2","0","53","45","","",""
"1216","key"," "," ","16.65988888888872","500","250","psychophysics","67","261577","0.0-67.0","61084aea533adb7e7518d4df","6213bd7c25ba286514140921","","","","","","",""
"3212","key"," "," ","16.660145833333445","500","250","psychophysics","68","264792","0.0-68.0","61084aea533adb7e7518d4df","6213bd7c25ba286514140921","2","0","52","50","","",""
"1134","key"," "," ","16.660358208955316","500","250","psychophysics","69","265928","0.0-69.0","61084aea533adb7e7518d4df","6213bd7c25ba286514140921","","","","","","",""
"1158","key"," "," ","16.660086956522193","500","250","psychophysics","70","267088","0.0-70.0","61084aea533adb7e7518d4df","6213bd7c25ba286514140921","","","","","","",""
"2137","key"," "," ","16.659984251968268","500","250","psychophysics","71","269228","0.0-71.0","61084aea533adb7e7518d4df","6213bd7c25ba286514140921","","","","","","",""
"3615","key"," "," ","16.66009259259267","500","250","psychophysics","72","272846","0.0-72.0","61084aea533adb7e7518d4df","6213bd7c25ba286514140921","3","5","45","40","","",""
"4113","key"," "," ","16.660097560975455","500","250","psychophysics","73","276962","0.0-73.0","61084aea533adb7e7518d4df","6213bd7c25ba286514140921","3","0","53","55","","",""
"3459","key"," "," ","16.66005314009659","500","250","psychophysics","74","280426","0.0-74.0","61084aea533adb7e7518d4df","6213bd7c25ba286514140921","3","5","53","48","","",""
"2926","key"," "," ","16.660017142857292","500","250","psychophysics","75","283356","0.0-75.0","61084aea533adb7e7518d4df","6213bd7c25ba286514140921","3","0","29","30","","",""
"4140","key"," "," ","16.660036290322633","500","250","psychophysics","76","287502","0.0-76.0","61084aea533adb7e7518d4df","6213bd7c25ba286514140921","3","5","55","50","","",""
"4713","key"," "," ","16.660056737588647","500","250","psychophysics","77","292218","0.0-77.0","61084aea533adb7e7518d4df","6213bd7c25ba286514140921","3","0","46","56","","",""
"4041","key"," "," ","16.66012809917375","500","250","psychophysics","78","296261","0.0-78.0","61084aea533adb7e7518d4df","6213bd7c25ba286514140921","3","5","54","51","","",""
"2479","key"," "," ","16.659993243243267","500","250","psychophysics","79","298742","0.0-79.0","61084aea533adb7e7518d4df","6213bd7c25ba286514140921","3","0","32","36","","",""
"2936","key"," "," ","16.660057142857195","500","250","psychophysics","80","301681","0.0-80.0","61084aea533adb7e7518d4df","6213bd7c25ba286514140921","3","5","45","48","","",""
"3317","key"," "," ","16.66011111111106","500","250","psychophysics","81","305000","0.0-81.0","61084aea533adb7e7518d4df","6213bd7c25ba286514140921","3","0","52","54","","",""
"2777","key"," "," ","16.660084337349183","500","250","psychophysics","82","307781","0.0-82.0","61084aea533adb7e7518d4df","6213bd7c25ba286514140921","3","5","54","44","","",""
"3412","key"," "," ","16.660078431372632","500","250","psychophysics","83","311197","0.0-83.0","61084aea533adb7e7518d4df","6213bd7c25ba286514140921","3","0","35","42","","",""
"2910","key"," "," ","16.659982758620686","500","250","psychophysics","84","314111","0.0-84.0","61084aea533adb7e7518d4df","6213bd7c25ba286514140921","3","5","21","21","","",""
"2380","key"," "," ","16.660063380282043","500","250","psychophysics","85","316493","0.0-85.0","61084aea533adb7e7518d4df","6213bd7c25ba286514140921","3","0","27","33","","",""
"3274","key"," "," ","16.660071428571186","500","250","psychophysics","86","319769","0.0-86.0","61084aea533adb7e7518d4df","6213bd7c25ba286514140921","3","5","60","58","","",""
"3155","key"," "," ","16.660063829787255","500","250","psychophysics","87","322927","0.0-87.0","61084aea533adb7e7518d4df","6213bd7c25ba286514140921","3","0","36","46","","",""
"3370","key"," "," ","16.6600346534653","500","250","psychophysics","88","326302","0.0-88.0","61084aea533adb7e7518d4df","6213bd7c25ba286514140921","3","5","22","22","","",""
"5509","key"," "," ","16.660090909090957","500","250","psychophysics","89","331813","0.0-89.0","61084aea533adb7e7518d4df","6213bd7c25ba286514140921","3","0","40","57","","",""
"1779","key"," "," ","16.660018867924524","500","250","psychophysics","90","333595","0.0-90.0","61084aea533adb7e7518d4df","6213bd7c25ba286514140921","3","5","23","23","","",""
"2539","key"," "," ","16.66011920529811","500","250","psychophysics","91","336136","0.0-91.0","61084aea533adb7e7518d4df","6213bd7c25ba286514140921","3","0","22","35","","",""
"1412","key"," "," ","16.65992857142798","500","250","psychophysics","92","337551","0.0-92.0","61084aea533adb7e7518d4df","6213bd7c25ba286514140921","","","","","","",""
"46488","","","v","","","","html-keyboard-response","93","384040","0.0-93.0","61084aea533adb7e7518d4df","6213bd7c25ba286514140921","","","","","<p> In this part of the experiment, we are going present digits 1, 2, 3, 4, 6, 7, 8, and 9.  Notice that 5 is missing.  Your job is to say whether the presented digit is less than or greater than 5.  For example, 3 is less than 5 and 7 is greater than 5.  If the digit is less than 5, press the v key; if it is greater than 5, press the n key. We are going to do 200 of these in total, but only 50 righ now. They go real fast.</p>  <br><br>  Ready? (press v or n)","",""
"2824","key","v","v","16.628176470588112","500","250","psychophysics","94","386873","0.0-94.0","61084aea533adb7e7518d4df","6213bd7c25ba286514140921","4","","","","","1","2"
"null","","","null","","","","html-keyboard-response","95","387374","0.0-95.0","61084aea533adb7e7518d4df","6213bd7c25ba286514140921","","","","","<p style=""color:darkgreen;font-size:24px;"">Correct :)</p>","",""
"2527","key","v","v","16.658736842105434","500","250","psychophysics","96","389905","0.0-96.0","61084aea533adb7e7518d4df","6213bd7c25ba286514140921","4","","","","","1","3"
"null","","","null","","","","html-keyboard-response","97","390406","0.0-97.0","61084aea533adb7e7518d4df","6213bd7c25ba286514140921","","","","","<p style=""color:darkgreen;font-size:24px;"">Correct :)</p>","",""
"2446","key","n","n","16.658632653061346","500","250","psychophysics","98","392856","0.0-98.0","61084aea533adb7e7518d4df","6213bd7c25ba286514140921","4","","","","","1","8"
"null","","","null","","","","html-keyboard-response","99","393357","0.0-99.0","61084aea533adb7e7518d4df","6213bd7c25ba286514140921","","","","","<p style=""color:darkgreen;font-size:24px;"">Correct :)</p>","",""
"2429","key","n","n","16.658671232876497","500","250","psychophysics","100","395789","0.0-100.0","61084aea533adb7e7518d4df","6213bd7c25ba286514140921","4","","","","","1","8"
"null","","","null","","","","html-keyboard-response","101","396291","0.0-101.0","61084aea533adb7e7518d4df","6213bd7c25ba286514140921","","","","","<p style=""color:darkgreen;font-size:24px;"">Correct :)</p>","",""
"2482","key","n","n","16.658697986576843","500","250","psychophysics","102","398776","0.0-102.0","61084aea533adb7e7518d4df","6213bd7c25ba286514140921","4","","","","","1","6"
"null","","","null","","","","html-keyboard-response","103","399277","0.0-103.0","61084aea533adb7e7518d4df","6213bd7c25ba286514140921","","","","","<p style=""color:darkgreen;font-size:24px;"">Correct :)</p>","",""
"2444","key","v","v","16.658775510204254","500","250","psychophysics","104","401724","0.0-104.0","61084aea533adb7e7518d4df","6213bd7c25ba286514140921","4","","","","","1","1"
"null","","","null","","","","html-keyboard-response","105","402226","0.0-105.0","61084aea533adb7e7518d4df","6213bd7c25ba286514140921","","","","","<p style=""color:darkgreen;font-size:24px;"">Correct :)</p>","",""
"2800","key","v","v","16.658899408283975","500","250","psychophysics","106","405032","0.0-106.0","61084aea533adb7e7518d4df","6213bd7c25ba286514140921","4","","","","","1","1"
"null","","","null","","","","html-keyboard-response","107","405533","0.0-107.0","61084aea533adb7e7518d4df","6213bd7c25ba286514140921","","","","","<p style=""color:darkgreen;font-size:24px;"">Correct :)</p>","",""
"2470","key","v","v","16.6587770270271","500","250","psychophysics","108","408006","0.0-108.0","61084aea533adb7e7518d4df","6213bd7c25ba286514140921","4","","","","","1","3"
"null","","","null","","","","html-keyboard-response","109","408507","0.0-109.0","61084aea533adb7e7518d4df","6213bd7c25ba286514140921","","","","","<p style=""color:darkgreen;font-size:24px;"">Correct :)</p>","",""
"2472","key","v","v","16.658644295301862","500","250","psychophysics","110","410985","0.0-110.0","61084aea533adb7e7518d4df","6213bd7c25ba286514140921","4","","","","","1","2"
"null","","","null","","","","html-keyboard-response","111","411486","0.0-111.0","61084aea533adb7e7518d4df","6213bd7c25ba286514140921","","","","","<p style=""color:darkgreen;font-size:24px;"">Correct :)</p>","",""
"2518","key","n","n","16.658682119205366","500","250","psychophysics","112","414007","0.0-112.0","61084aea533adb7e7518d4df","6213bd7c25ba286514140921","4","","","","","1","9"
"null","","","null","","","","html-keyboard-response","113","414509","0.0-113.0","61084aea533adb7e7518d4df","6213bd7c25ba286514140921","","","","","<p style=""color:darkgreen;font-size:24px;"">Correct :)</p>","",""
"2499","key","n","n","16.658693333333357","500","250","psychophysics","114","417011","0.0-114.0","61084aea533adb7e7518d4df","6213bd7c25ba286514140921","4","","","","","1","7"
"null","","","null","","","","html-keyboard-response","115","417512","0.0-115.0","61084aea533adb7e7518d4df","6213bd7c25ba286514140921","","","","","<p style=""color:darkgreen;font-size:24px;"">Correct :)</p>","",""
"2478","key","v","v","16.658637583892535","500","250","psychophysics","116","419993","0.0-116.0","61084aea533adb7e7518d4df","6213bd7c25ba286514140921","4","","","","","1","2"
"null","","","null","","","","html-keyboard-response","117","420495","0.0-117.0","61084aea533adb7e7518d4df","6213bd7c25ba286514140921","","","","","<p style=""color:darkgreen;font-size:24px;"">Correct :)</p>","",""
"2572","key","n","n","16.658616883117045","500","250","psychophysics","118","423069","0.0-118.0","61084aea533adb7e7518d4df","6213bd7c25ba286514140921","4","","","","","1","7"
"null","","","null","","","","html-keyboard-response","119","423571","0.0-119.0","61084aea533adb7e7518d4df","6213bd7c25ba286514140921","","","","","<p style=""color:darkgreen;font-size:24px;"">Correct :)</p>","",""
"2472","key","n","n","16.658493243243207","500","250","psychophysics","120","426052","0.0-120.0","61084aea533adb7e7518d4df","6213bd7c25ba286514140921","4","","","","","1","8"
"null","","","null","","","","html-keyboard-response","121","426553","0.0-121.0","61084aea533adb7e7518d4df","6213bd7c25ba286514140921","","","","","<p style=""color:darkgreen;font-size:24px;"">Correct :)</p>","",""
"2426","key","n","n","16.658531034482515","500","250","psychophysics","122","428982","0.0-122.0","61084aea533adb7e7518d4df","6213bd7c25ba286514140921","4","","","","","1","7"
"null","","","null","","","","html-keyboard-response","123","429483","0.0-123.0","61084aea533adb7e7518d4df","6213bd7c25ba286514140921","","","","","<p style=""color:darkgreen;font-size:24px;"">Correct :)</p>","",""
"2438","key","n","n","16.65854421768735","500","250","psychophysics","124","431925","0.0-124.0","61084aea533adb7e7518d4df","6213bd7c25ba286514140921","4","","","","","1","6"
"null","","","null","","","","html-keyboard-response","125","432427","0.0-125.0","61084aea533adb7e7518d4df","6213bd7c25ba286514140921","","","","","<p style=""color:darkgreen;font-size:24px;"">Correct :)</p>","",""
"2432","key","n","n","16.658602739726145","500","250","psychophysics","126","434861","0.0-126.0","61084aea533adb7e7518d4df","6213bd7c25ba286514140921","4","","","","","1","7"
"null","","","null","","","","html-keyboard-response","127","435363","0.0-127.0","61084aea533adb7e7518d4df","6213bd7c25ba286514140921","","","","","<p style=""color:darkgreen;font-size:24px;"">Correct :)</p>","",""
"2400","key","n","n","16.658666666666655","500","250","psychophysics","128","437765","0.0-128.0","61084aea533adb7e7518d4df","6213bd7c25ba286514140921","4","","","","","1","6"
"null","","","null","","","","html-keyboard-response","129","438267","0.0-129.0","61084aea533adb7e7518d4df","6213bd7c25ba286514140921","","","","","<p style=""color:darkgreen;font-size:24px;"">Correct :)</p>","",""
"2573","key","v","v","16.658701298701313","500","250","psychophysics","130","440843","0.0-130.0","61084aea533adb7e7518d4df","6213bd7c25ba286514140921","4","","","","","1","3"
"null","","","null","","","","html-keyboard-response","131","441344","0.0-131.0","61084aea533adb7e7518d4df","6213bd7c25ba286514140921","","","","","<p style=""color:darkgreen;font-size:24px;"">Correct :)</p>","",""
"2439","key","v","v","16.658605442176885","500","250","psychophysics","132","443786","0.0-132.0","61084aea533adb7e7518d4df","6213bd7c25ba286514140921","4","","","","","1","1"
"null","","","null","","","","html-keyboard-response","133","444288","0.0-133.0","61084aea533adb7e7518d4df","6213bd7c25ba286514140921","","","","","<p style=""color:darkgreen;font-size:24px;"">Correct :)</p>","",""
"2428","key","n","n","16.65876027397263","500","250","psychophysics","134","446719","0.0-134.0","61084aea533adb7e7518d4df","6213bd7c25ba286514140921","4","","","","","1","6"
"null","","","null","","","","html-keyboard-response","135","447220","0.0-135.0","61084aea533adb7e7518d4df","6213bd7c25ba286514140921","","","","","<p style=""color:darkgreen;font-size:24px;"">Correct :)</p>","",""
"2498","key","n","n","16.658713333333534","500","250","psychophysics","136","449721","0.0-136.0","61084aea533adb7e7518d4df","6213bd7c25ba286514140921","4","","","","","1","7"
"null","","","null","","","","html-keyboard-response","137","450223","0.0-137.0","61084aea533adb7e7518d4df","6213bd7c25ba286514140921","","","","","<p style=""color:darkgreen;font-size:24px;"">Correct :)</p>","",""
"2642","key","v","v","16.65880503144654","500","250","psychophysics","138","452867","0.0-138.0","61084aea533adb7e7518d4df","6213bd7c25ba286514140921","4","","","","","1","4"
"null","","","null","","","","html-keyboard-response","139","453368","0.0-139.0","61084aea533adb7e7518d4df","6213bd7c25ba286514140921","","","","","<p style=""color:darkgreen;font-size:24px;"">Correct :)</p>","",""
"2463","key","n","n","16.65870945945947","500","250","psychophysics","140","455834","0.0-140.0","61084aea533adb7e7518d4df","6213bd7c25ba286514140921","4","","","","","1","8"
"null","","","null","","","","html-keyboard-response","141","456335","0.0-141.0","61084aea533adb7e7518d4df","6213bd7c25ba286514140921","","","","","<p style=""color:darkgreen;font-size:24px;"">Correct :)</p>","",""
"2420","key","n","n","16.65870344827578","500","250","psychophysics","142","458757","0.0-142.0","61084aea533adb7e7518d4df","6213bd7c25ba286514140921","4","","","","","1","7"
"null","","","null","","","","html-keyboard-response","143","459259","0.0-143.0","61084aea533adb7e7518d4df","6213bd7c25ba286514140921","","","","","<p style=""color:darkgreen;font-size:24px;"">Correct :)</p>","",""
"2447","key","n","n","16.658619047619315","500","250","psychophysics","144","461709","0.0-144.0","61084aea533adb7e7518d4df","6213bd7c25ba286514140921","4","","","","","1","9"
"null","","","null","","","","html-keyboard-response","145","462210","0.0-145.0","61084aea533adb7e7518d4df","6213bd7c25ba286514140921","","","","","<p style=""color:darkgreen;font-size:24px;"">Correct :)</p>","",""
"2449","key","n","n","16.65863945578236","500","250","psychophysics","146","464662","0.0-146.0","61084aea533adb7e7518d4df","6213bd7c25ba286514140921","4","","","","","1","7"
"null","","","null","","","","html-keyboard-response","147","465164","0.0-147.0","61084aea533adb7e7518d4df","6213bd7c25ba286514140921","","","","","<p style=""color:darkgreen;font-size:24px;"">Correct :)</p>","",""
"2408","key","n","n","16.658496551724262","500","250","psychophysics","148","467574","0.0-148.0","61084aea533adb7e7518d4df","6213bd7c25ba286514140921","4","","","","","1","8"
"null","","","null","","","","html-keyboard-response","149","468076","0.0-149.0","61084aea533adb7e7518d4df","6213bd7c25ba286514140921","","","","","<p style=""color:darkgreen;font-size:24px;"">Correct :)</p>","",""
"2417","key","n","n","16.658634482758472","500","250","psychophysics","150","470496","0.0-150.0","61084aea533adb7e7518d4df","6213bd7c25ba286514140921","4","","","","","1","8"
"null","","","null","","","","html-keyboard-response","151","470997","0.0-151.0","61084aea533adb7e7518d4df","6213bd7c25ba286514140921","","","","","<p style=""color:darkgreen;font-size:24px;"">Correct :)</p>","",""
"2532","key","n","n","16.658651315789413","500","250","psychophysics","152","473532","0.0-152.0","61084aea533adb7e7518d4df","6213bd7c25ba286514140921","4","","","","","1","7"
"null","","","null","","","","html-keyboard-response","153","474034","0.0-153.0","61084aea533adb7e7518d4df","6213bd7c25ba286514140921","","","","","<p style=""color:darkgreen;font-size:24px;"">Correct :)</p>","",""
"2458","key","v","v","16.658612244897903","500","250","psychophysics","154","476494","0.0-154.0","61084aea533adb7e7518d4df","6213bd7c25ba286514140921","4","","","","","1","3"
"null","","","null","","","","html-keyboard-response","155","476995","0.0-155.0","61084aea533adb7e7518d4df","6213bd7c25ba286514140921","","","","","<p style=""color:darkgreen;font-size:24px;"">Correct :)</p>","",""
"2491","key","n","n","16.658680000000167","500","250","psychophysics","156","479489","0.0-156.0","61084aea533adb7e7518d4df","6213bd7c25ba286514140921","4","","","","","1","7"
"null","","","null","","","","html-keyboard-response","157","479991","0.0-157.0","61084aea533adb7e7518d4df","6213bd7c25ba286514140921","","","","","<p style=""color:darkgreen;font-size:24px;"">Correct :)</p>","",""
"2596","key","n","n","16.6588525641023","500","250","psychophysics","158","482592","0.0-158.0","61084aea533adb7e7518d4df","6213bd7c25ba286514140921","4","","","","","1","7"
"null","","","null","","","","html-keyboard-response","159","483093","0.0-159.0","61084aea533adb7e7518d4df","6213bd7c25ba286514140921","","","","","<p style=""color:darkgreen;font-size:24px;"">Correct :)</p>","",""
"2548","key","n","n","16.658712418300627","500","250","psychophysics","160","485644","0.0-160.0","61084aea533adb7e7518d4df","6213bd7c25ba286514140921","4","","","","","1","7"
"null","","","null","","","","html-keyboard-response","161","486146","0.0-161.0","61084aea533adb7e7518d4df","6213bd7c25ba286514140921","","","","","<p style=""color:darkgreen;font-size:24px;"">Correct :)</p>","",""
"2466","key","v","v","16.658621621621393","500","250","psychophysics","162","488615","0.0-162.0","61084aea533adb7e7518d4df","6213bd7c25ba286514140921","4","","","","","1","3"
"null","","","null","","","","html-keyboard-response","163","489116","0.0-163.0","61084aea533adb7e7518d4df","6213bd7c25ba286514140921","","","","","<p style=""color:darkgreen;font-size:24px;"">Correct :)</p>","",""
"2443","key","n","n","16.658605442176885","500","250","psychophysics","164","491563","0.0-164.0","61084aea533adb7e7518d4df","6213bd7c25ba286514140921","4","","","","","1","8"
"null","","","null","","","","html-keyboard-response","165","492064","0.0-165.0","61084aea533adb7e7518d4df","6213bd7c25ba286514140921","","","","","<p style=""color:darkgreen;font-size:24px;"">Correct :)</p>","",""
"2677","key","v","v","16.658739130434967","500","250","psychophysics","166","494744","0.0-166.0","61084aea533adb7e7518d4df","6213bd7c25ba286514140921","4","","","","","1","3"
"null","","","null","","","","html-keyboard-response","167","495246","0.0-167.0","61084aea533adb7e7518d4df","6213bd7c25ba286514140921","","","","","<p style=""color:darkgreen;font-size:24px;"">Correct :)</p>","",""
"2524","key","v","v","16.658543046357632","500","250","psychophysics","168","497773","0.0-168.0","61084aea533adb7e7518d4df","6213bd7c25ba286514140921","4","","","","","1","2"
"null","","","null","","","","html-keyboard-response","169","498274","0.0-169.0","61084aea533adb7e7518d4df","6213bd7c25ba286514140921","","","","","<p style=""color:darkgreen;font-size:24px;"">Correct :)</p>","",""
"2548","key","v","v","16.658627450980514","500","250","psychophysics","170","500825","0.0-170.0","61084aea533adb7e7518d4df","6213bd7c25ba286514140921","4","","","","","1","1"
"null","","","null","","","","html-keyboard-response","171","501326","0.0-171.0","61084aea533adb7e7518d4df","6213bd7c25ba286514140921","","","","","<p style=""color:darkgreen;font-size:24px;"">Correct :)</p>","",""
"2815","key","v","v","16.658786982248646","500","250","psychophysics","172","504145","0.0-172.0","61084aea533adb7e7518d4df","6213bd7c25ba286514140921","4","","","","","1","4"
"null","","","null","","","","html-keyboard-response","173","504646","0.0-173.0","61084aea533adb7e7518d4df","6213bd7c25ba286514140921","","","","","<p style=""color:darkgreen;font-size:24px;"">Correct :)</p>","",""
"2553","key","n","n","16.658764705882525","500","250","psychophysics","174","507202","0.0-174.0","61084aea533adb7e7518d4df","6213bd7c25ba286514140921","4","","","","","1","8"
"null","","","null","","","","html-keyboard-response","175","507703","0.0-175.0","61084aea533adb7e7518d4df","6213bd7c25ba286514140921","","","","","<p style=""color:darkgreen;font-size:24px;"">Correct :)</p>","",""
"2478","key","n","n","16.658581081081287","500","250","psychophysics","176","510184","0.0-176.0","61084aea533adb7e7518d4df","6213bd7c25ba286514140921","4","","","","","1","7"
"null","","","null","","","","html-keyboard-response","177","510686","0.0-177.0","61084aea533adb7e7518d4df","6213bd7c25ba286514140921","","","","","<p style=""color:darkgreen;font-size:24px;"">Correct :)</p>","",""
"2411","key","n","n","16.65857638888863","500","250","psychophysics","178","513100","0.0-178.0","61084aea533adb7e7518d4df","6213bd7c25ba286514140921","4","","","","","1","7"
"null","","","null","","","","html-keyboard-response","179","513601","0.0-179.0","61084aea533adb7e7518d4df","6213bd7c25ba286514140921","","","","","<p style=""color:darkgreen;font-size:24px;"">Correct :)</p>","",""
"2483","key","v","v","16.65867785234887","500","250","psychophysics","180","516087","0.0-180.0","61084aea533adb7e7518d4df","6213bd7c25ba286514140921","4","","","","","1","3"
"null","","","null","","","","html-keyboard-response","181","516588","0.0-181.0","61084aea533adb7e7518d4df","6213bd7c25ba286514140921","","","","","<p style=""color:darkgreen;font-size:24px;"">Correct :)</p>","",""
"2444","key","v","v","16.658727891156357","500","250","psychophysics","182","519035","0.0-182.0","61084aea533adb7e7518d4df","6213bd7c25ba286514140921","4","","","","","1","2"
"null","","","null","","","","html-keyboard-response","183","519537","0.0-183.0","61084aea533adb7e7518d4df","6213bd7c25ba286514140921","","","","","<p style=""color:darkgreen;font-size:24px;"">Correct :)</p>","",""
"2492","key","n","n","16.658624161073497","500","250","psychophysics","184","522031","0.0-184.0","61084aea533adb7e7518d4df","6213bd7c25ba286514140921","4","","","","","1","7"
"null","","","null","","","","html-keyboard-response","185","522533","0.0-185.0","61084aea533adb7e7518d4df","6213bd7c25ba286514140921","","","","","<p style=""color:darkgreen;font-size:24px;"">Correct :)</p>","",""
"2437","key","v","v","16.658643835616115","500","250","psychophysics","186","524973","0.0-186.0","61084aea533adb7e7518d4df","6213bd7c25ba286514140921","4","","","","","1","1"
"null","","","null","","","","html-keyboard-response","187","525474","0.0-187.0","61084aea533adb7e7518d4df","6213bd7c25ba286514140921","","","","","<p style=""color:darkgreen;font-size:24px;"">Correct :)</p>","",""
"2626","key","v","v","16.658753164556863","500","250","psychophysics","188","528103","0.0-188.0","61084aea533adb7e7518d4df","6213bd7c25ba286514140921","4","","","","","1","4"
"null","","","null","","","","html-keyboard-response","189","528605","0.0-189.0","61084aea533adb7e7518d4df","6213bd7c25ba286514140921","","","","","<p style=""color:darkgreen;font-size:24px;"">Correct :)</p>","",""
"2535","key","v","v","16.65866447368401","500","250","psychophysics","190","531143","0.0-190.0","61084aea533adb7e7518d4df","6213bd7c25ba286514140921","4","","","","","1","3"
"null","","","null","","","","html-keyboard-response","191","531644","0.0-191.0","61084aea533adb7e7518d4df","6213bd7c25ba286514140921","","","","","<p style=""color:darkgreen;font-size:24px;"">Correct :)</p>","",""
"2595","key","v","v","16.658722580644874","500","250","psychophysics","192","534242","0.0-192.0","61084aea533adb7e7518d4df","6213bd7c25ba286514140921","4","","","","","1","3"
"null","","","null","","","","html-keyboard-response","193","534744","0.0-193.0","61084aea533adb7e7518d4df","6213bd7c25ba286514140921","","","","","<p style=""color:darkgreen;font-size:24px;"">Correct :)</p>","",""
"22434","","","v","","","","html-keyboard-response","194","557179","0.0-194.0","61084aea533adb7e7518d4df","6213bd7c25ba286514140921","","","","","<p> Ok, now we are going present the same digits as before.  Your job is to say whether the digit is even or odd  If the digit is odd, press to v key; if it is even, press the n key. We are going to do 50 of these.  </p>  <br><br>  Ready? (press v or n)","",""
"2853","key","n","n","16.695192982456295","500","250","psychophysics","195","560035","0.0-195.0","61084aea533adb7e7518d4df","6213bd7c25ba286514140921","5","","","","","0","6"
"null","","","null","","","","html-keyboard-response","196","560536","0.0-196.0","61084aea533adb7e7518d4df","6213bd7c25ba286514140921","","","","","<p style=""color:darkgreen;font-size:24px;"">Correct :)</p>","",""
"2610","key","v","v","16.658700636942473","500","250","psychophysics","197","563150","0.0-197.0","61084aea533adb7e7518d4df","6213bd7c25ba286514140921","5","","","","","0","9"
"null","","","null","","","","html-keyboard-response","198","563651","0.0-198.0","61084aea533adb7e7518d4df","6213bd7c25ba286514140921","","","","","<p style=""color:darkgreen;font-size:24px;"">Correct :)</p>","",""
"2663","key","v","v","16.658762500000012","500","250","psychophysics","199","566317","0.0-199.0","61084aea533adb7e7518d4df","6213bd7c25ba286514140921","5","","","","","0","1"
"null","","","null","","","","html-keyboard-response","200","566819","0.0-200.0","61084aea533adb7e7518d4df","6213bd7c25ba286514140921","","","","","<p style=""color:darkgreen;font-size:24px;"">Correct :)</p>","",""
"2639","key","v","v","16.65873417721566","500","250","psychophysics","201","569461","0.0-201.0","61084aea533adb7e7518d4df","6213bd7c25ba286514140921","5","","","","","0","1"
"null","","","null","","","","html-keyboard-response","202","569962","0.0-202.0","61084aea533adb7e7518d4df","6213bd7c25ba286514140921","","","","","<p style=""color:darkgreen;font-size:24px;"">Correct :)</p>","",""
"2741","key","n","n","16.6587500000002","500","250","psychophysics","203","572707","0.0-203.0","61084aea533adb7e7518d4df","6213bd7c25ba286514140921","5","","","","","0","8"
"null","","","null","","","","html-keyboard-response","204","573208","0.0-204.0","61084aea533adb7e7518d4df","6213bd7c25ba286514140921","","","","","<p style=""color:darkgreen;font-size:24px;"">Correct :)</p>","",""
"2799","key","n","n","16.658833333333384","500","250","psychophysics","205","576010","0.0-205.0","61084aea533adb7e7518d4df","6213bd7c25ba286514140921","5","","","","","0","2"
"null","","","null","","","","html-keyboard-response","206","576512","0.0-206.0","61084aea533adb7e7518d4df","6213bd7c25ba286514140921","","","","","<p style=""color:darkgreen;font-size:24px;"">Correct :)</p>","",""
"2713","key","n","n","16.65885276073644","500","250","psychophysics","207","579228","0.0-207.0","61084aea533adb7e7518d4df","6213bd7c25ba286514140921","5","","","","","0","6"
"null","","","null","","","","html-keyboard-response","208","579729","0.0-208.0","61084aea533adb7e7518d4df","6213bd7c25ba286514140921","","","","","<p style=""color:darkgreen;font-size:24px;"">Correct :)</p>","",""
"2830","key","v","v","16.658805882352787","500","250","psychophysics","209","582562","0.0-209.0","61084aea533adb7e7518d4df","6213bd7c25ba286514140921","5","","","","","0","3"
"null","","","null","","","","html-keyboard-response","210","583063","0.0-210.0","61084aea533adb7e7518d4df","6213bd7c25ba286514140921","","","","","<p style=""color:darkgreen;font-size:24px;"">Correct :)</p>","",""
"2764","key","n","n","16.658837349397405","500","250","psychophysics","211","585831","0.0-211.0","61084aea533adb7e7518d4df","6213bd7c25ba286514140921","5","","","","","0","2"
"null","","","null","","","","html-keyboard-response","212","586332","0.0-212.0","61084aea533adb7e7518d4df","6213bd7c25ba286514140921","","","","","<p style=""color:darkgreen;font-size:24px;"">Correct :)</p>","",""
"2633","key","v","v","16.658702531645275","500","250","psychophysics","213","588968","0.0-213.0","61084aea533adb7e7518d4df","6213bd7c25ba286514140921","5","","","","","0","7"
"null","","","null","","","","html-keyboard-response","214","589470","0.0-214.0","61084aea533adb7e7518d4df","6213bd7c25ba286514140921","","","","","<p style=""color:darkgreen;font-size:24px;"">Correct :)</p>","",""
"2737","key","v","v","16.658806060605936","500","250","psychophysics","215","592210","0.0-215.0","61084aea533adb7e7518d4df","6213bd7c25ba286514140921","5","","","","","0","7"
"null","","","null","","","","html-keyboard-response","216","592712","0.0-216.0","61084aea533adb7e7518d4df","6213bd7c25ba286514140921","","","","","<p style=""color:darkgreen;font-size:24px;"">Correct :)</p>","",""
"2697","key","n","n","16.658783950617273","500","250","psychophysics","217","595412","0.0-217.0","61084aea533adb7e7518d4df","6213bd7c25ba286514140921","5","","","","","0","2"
"null","","","null","","","","html-keyboard-response","218","595914","0.0-218.0","61084aea533adb7e7518d4df","6213bd7c25ba286514140921","","","","","<p style=""color:darkgreen;font-size:24px;"">Correct :)</p>","",""
"2777","key","v","v","16.658778443113444","500","250","psychophysics","219","598694","0.0-219.0","61084aea533adb7e7518d4df","6213bd7c25ba286514140921","5","","","","","0","3"
"null","","","null","","","","html-keyboard-response","220","599195","0.0-220.0","61084aea533adb7e7518d4df","6213bd7c25ba286514140921","","","","","<p style=""color:darkgreen;font-size:24px;"">Correct :)</p>","",""
"2684","key","v","v","16.658714285714012","500","250","psychophysics","221","601882","0.0-221.0","61084aea533adb7e7518d4df","6213bd7c25ba286514140921","5","","","","","0","7"
"null","","","null","","","","html-keyboard-response","222","602384","0.0-222.0","61084aea533adb7e7518d4df","6213bd7c25ba286514140921","","","","","<p style=""color:darkgreen;font-size:24px;"">Correct :)</p>","",""
"2578","key","n","n","16.65859090909135","500","250","psychophysics","223","604965","0.0-223.0","61084aea533adb7e7518d4df","6213bd7c25ba286514140921","5","","","","","0","4"
"null","","","null","","","","html-keyboard-response","224","605466","0.0-224.0","61084aea533adb7e7518d4df","6213bd7c25ba286514140921","","","","","<p style=""color:darkgreen;font-size:24px;"">Correct :)</p>","",""
"2724","key","v","v","16.658705521472786","500","250","psychophysics","225","608194","0.0-225.0","61084aea533adb7e7518d4df","6213bd7c25ba286514140921","5","","","","","0","9"
"null","","","null","","","","html-keyboard-response","226","608695","0.0-226.0","61084aea533adb7e7518d4df","6213bd7c25ba286514140921","","","","","<p style=""color:darkgreen;font-size:24px;"">Correct :)</p>","",""
"2659","key","v","v","16.658693750000385","500","250","psychophysics","227","611359","0.0-227.0","61084aea533adb7e7518d4df","6213bd7c25ba286514140921","5","","","","","0","1"
"null","","","null","","","","html-keyboard-response","228","611861","0.0-228.0","61084aea533adb7e7518d4df","6213bd7c25ba286514140921","","","","","<p style=""color:darkgreen;font-size:24px;"">Correct :)</p>","",""
"2579","key","n","n","16.658722580645623","500","250","psychophysics","229","614444","0.0-229.0","61084aea533adb7e7518d4df","6213bd7c25ba286514140921","5","","","","","0","8"
"null","","","null","","","","html-keyboard-response","230","614946","0.0-230.0","61084aea533adb7e7518d4df","6213bd7c25ba286514140921","","","","","<p style=""color:darkgreen;font-size:24px;"">Correct :)</p>","",""
"2783","key","n","n","16.658796407185456","500","250","psychophysics","231","617732","0.0-231.0","61084aea533adb7e7518d4df","6213bd7c25ba286514140921","5","","","","","0","2"
"null","","","null","","","","html-keyboard-response","232","618234","0.0-232.0","61084aea533adb7e7518d4df","6213bd7c25ba286514140921","","","","","<p style=""color:darkgreen;font-size:24px;"">Correct :)</p>","",""
"2610","key","n","n","16.658668789808686","500","250","psychophysics","233","620847","0.0-233.0","61084aea533adb7e7518d4df","6213bd7c25ba286514140921","5","","","","","0","8"
"null","","","null","","","","html-keyboard-response","234","621349","0.0-234.0","61084aea533adb7e7518d4df","6213bd7c25ba286514140921","","","","","<p style=""color:darkgreen;font-size:24px;"">Correct :)</p>","",""
"2623","key","n","n","16.65874050632915","500","250","psychophysics","235","623976","0.0-235.0","61084aea533adb7e7518d4df","6213bd7c25ba286514140921","5","","","","","0","6"
"null","","","null","","","","html-keyboard-response","236","624478","0.0-236.0","61084aea533adb7e7518d4df","6213bd7c25ba286514140921","","","","","<p style=""color:darkgreen;font-size:24px;"">Correct :)</p>","",""
"2688","key","n","n","16.658807453415964","500","250","psychophysics","237","627169","0.0-237.0","61084aea533adb7e7518d4df","6213bd7c25ba286514140921","5","","","","","0","4"
"null","","","null","","","","html-keyboard-response","238","627670","0.0-238.0","61084aea533adb7e7518d4df","6213bd7c25ba286514140921","","","","","<p style=""color:darkgreen;font-size:24px;"">Correct :)</p>","",""
"2717","key","v","v","16.658731707317113","500","250","psychophysics","239","630391","0.0-239.0","61084aea533adb7e7518d4df","6213bd7c25ba286514140921","5","","","","","0","3"
"null","","","null","","","","html-keyboard-response","240","630892","0.0-240.0","61084aea533adb7e7518d4df","6213bd7c25ba286514140921","","","","","<p style=""color:darkgreen;font-size:24px;"">Correct :)</p>","",""
"2611","key","n","n","16.65877070063636","500","250","psychophysics","241","633507","0.0-241.0","61084aea533adb7e7518d4df","6213bd7c25ba286514140921","5","","","","","0","8"
"null","","","null","","","","html-keyboard-response","242","634008","0.0-242.0","61084aea533adb7e7518d4df","6213bd7c25ba286514140921","","","","","<p style=""color:darkgreen;font-size:24px;"">Correct :)</p>","",""
"2489","key","n","n","16.658590604026877","500","250","psychophysics","243","636501","0.0-243.0","61084aea533adb7e7518d4df","6213bd7c25ba286514140921","5","","","","","0","8"
"null","","","null","","","","html-keyboard-response","244","637002","0.0-244.0","61084aea533adb7e7518d4df","6213bd7c25ba286514140921","","","","","<p style=""color:darkgreen;font-size:24px;"">Correct :)</p>","",""
"2575","key","v","v","16.658681818182043","500","250","psychophysics","245","639582","0.0-245.0","61084aea533adb7e7518d4df","6213bd7c25ba286514140921","5","","","","","0","3"
"null","","","null","","","","html-keyboard-response","246","640084","0.0-246.0","61084aea533adb7e7518d4df","6213bd7c25ba286514140921","","","","","<p style=""color:darkgreen;font-size:24px;"">Correct :)</p>","",""
"2554","key","n","n","16.658753246753083","500","250","psychophysics","247","642641","0.0-247.0","61084aea533adb7e7518d4df","6213bd7c25ba286514140921","5","","","","","0","6"
"null","","","null","","","","html-keyboard-response","248","643143","0.0-248.0","61084aea533adb7e7518d4df","6213bd7c25ba286514140921","","","","","<p style=""color:darkgreen;font-size:24px;"">Correct :)</p>","",""
"2532","key","n","n","16.658717105263158","500","250","psychophysics","249","645678","0.0-249.0","61084aea533adb7e7518d4df","6213bd7c25ba286514140921","5","","","","","0","4"
"null","","","null","","","","html-keyboard-response","250","646179","0.0-250.0","61084aea533adb7e7518d4df","6213bd7c25ba286514140921","","","","","<p style=""color:darkgreen;font-size:24px;"">Correct :)</p>","",""
"2587","key","v","v","16.658632258064443","500","250","psychophysics","251","648768","0.0-251.0","61084aea533adb7e7518d4df","6213bd7c25ba286514140921","5","","","","","0","9"
"null","","","null","","","","html-keyboard-response","252","649270","0.0-252.0","61084aea533adb7e7518d4df","6213bd7c25ba286514140921","","","","","<p style=""color:darkgreen;font-size:24px;"">Correct :)</p>","",""
"2524","key","n","n","16.658774834437704","500","250","psychophysics","253","651797","0.0-253.0","61084aea533adb7e7518d4df","6213bd7c25ba286514140921","5","","","","","0","4"
"null","","","null","","","","html-keyboard-response","254","652298","0.0-254.0","61084aea533adb7e7518d4df","6213bd7c25ba286514140921","","","","","<p style=""color:darkgreen;font-size:24px;"">Correct :)</p>","",""
"2537","key","n","n","16.65859868421026","500","250","psychophysics","255","654838","0.0-255.0","61084aea533adb7e7518d4df","6213bd7c25ba286514140921","5","","","","","0","4"
"null","","","null","","","","html-keyboard-response","256","655339","0.0-256.0","61084aea533adb7e7518d4df","6213bd7c25ba286514140921","","","","","<p style=""color:darkgreen;font-size:24px;"">Correct :)</p>","",""
"2556","key","v","v","16.658740259740235","500","250","psychophysics","257","657898","0.0-257.0","61084aea533adb7e7518d4df","6213bd7c25ba286514140921","5","","","","","0","1"
"null","","","null","","","","html-keyboard-response","258","658399","0.0-258.0","61084aea533adb7e7518d4df","6213bd7c25ba286514140921","","","","","<p style=""color:darkgreen;font-size:24px;"">Correct :)</p>","",""
"2865","key","v","v","16.65886046511641","500","250","psychophysics","259","661268","0.0-259.0","61084aea533adb7e7518d4df","6213bd7c25ba286514140921","5","","","","","0","9"
"null","","","null","","","","html-keyboard-response","260","661769","0.0-260.0","61084aea533adb7e7518d4df","6213bd7c25ba286514140921","","","","","<p style=""color:darkgreen;font-size:24px;"">Correct :)</p>","",""
"2666","key","n","n","16.658812500000202","500","250","psychophysics","261","664439","0.0-261.0","61084aea533adb7e7518d4df","6213bd7c25ba286514140921","5","","","","","0","2"
"null","","","null","","","","html-keyboard-response","262","664940","0.0-262.0","61084aea533adb7e7518d4df","6213bd7c25ba286514140921","","","","","<p style=""color:darkgreen;font-size:24px;"">Correct :)</p>","",""
"2604","key","v","v","16.658681528662054","500","250","psychophysics","263","667549","0.0-263.0","61084aea533adb7e7518d4df","6213bd7c25ba286514140921","5","","","","","0","3"
"null","","","null","","","","html-keyboard-response","264","668050","0.0-264.0","61084aea533adb7e7518d4df","6213bd7c25ba286514140921","","","","","<p style=""color:darkgreen;font-size:24px;"">Correct :)</p>","",""
"2469","key","n","n","16.658567567567523","500","250","psychophysics","265","670523","0.0-265.0","61084aea533adb7e7518d4df","6213bd7c25ba286514140921","5","","","","","0","9"
"null","","","null","","","","html-keyboard-response","266","671024","0.0-266.0","61084aea533adb7e7518d4df","6213bd7c25ba286514140921","","","","","<p style=""color:red;font-size:24px;"">Error :(</p>","",""
"2730","key","v","v","16.658780487805107","500","250","psychophysics","267","673758","0.0-267.0","61084aea533adb7e7518d4df","6213bd7c25ba286514140921","5","","","","","0","1"
"null","","","null","","","","html-keyboard-response","268","674259","0.0-268.0","61084aea533adb7e7518d4df","6213bd7c25ba286514140921","","","","","<p style=""color:darkgreen;font-size:24px;"">Correct :)</p>","",""
"2589","key","n","n","16.658612903225567","500","250","psychophysics","269","676851","0.0-269.0","61084aea533adb7e7518d4df","6213bd7c25ba286514140921","5","","","","","0","8"
"null","","","null","","","","html-keyboard-response","270","677353","0.0-270.0","61084aea533adb7e7518d4df","6213bd7c25ba286514140921","","","","","<p style=""color:darkgreen;font-size:24px;"">Correct :)</p>","",""
"2701","key","n","n","16.658691358024594","500","250","psychophysics","271","680058","0.0-271.0","61084aea533adb7e7518d4df","6213bd7c25ba286514140921","5","","","","","0","6"
"null","","","null","","","","html-keyboard-response","272","680559","0.0-272.0","61084aea533adb7e7518d4df","6213bd7c25ba286514140921","","","","","<p style=""color:darkgreen;font-size:24px;"">Correct :)</p>","",""
"2575","key","n","n","16.658709677419957","500","250","psychophysics","273","683137","0.0-273.0","61084aea533adb7e7518d4df","6213bd7c25ba286514140921","5","","","","","0","4"
"null","","","null","","","","html-keyboard-response","274","683638","0.0-274.0","61084aea533adb7e7518d4df","6213bd7c25ba286514140921","","","","","<p style=""color:darkgreen;font-size:24px;"">Correct :)</p>","",""
"2756","key","v","v","16.65883636363627","500","250","psychophysics","275","686398","0.0-275.0","61084aea533adb7e7518d4df","6213bd7c25ba286514140921","5","","","","","0","3"
"null","","","null","","","","html-keyboard-response","276","686899","0.0-276.0","61084aea533adb7e7518d4df","6213bd7c25ba286514140921","","","","","<p style=""color:darkgreen;font-size:24px;"">Correct :)</p>","",""
"2551","key","v","v","16.6586405228758","500","250","psychophysics","277","689453","0.0-277.0","61084aea533adb7e7518d4df","6213bd7c25ba286514140921","5","","","","","0","1"
"null","","","null","","","","html-keyboard-response","278","689954","0.0-278.0","61084aea533adb7e7518d4df","6213bd7c25ba286514140921","","","","","<p style=""color:darkgreen;font-size:24px;"">Correct :)</p>","",""
"2730","key","v","v","16.65872560975656","500","250","psychophysics","279","692697","0.0-279.0","61084aea533adb7e7518d4df","6213bd7c25ba286514140921","5","","","","","0","9"
"null","","","null","","","","html-keyboard-response","280","693199","0.0-280.0","61084aea533adb7e7518d4df","6213bd7c25ba286514140921","","","","","<p style=""color:darkgreen;font-size:24px;"">Correct :)</p>","",""
"2878","key","n","n","16.65888953488388","500","250","psychophysics","281","696080","0.0-281.0","61084aea533adb7e7518d4df","6213bd7c25ba286514140921","5","","","","","0","8"
"null","","","null","","","","html-keyboard-response","282","696582","0.0-282.0","61084aea533adb7e7518d4df","6213bd7c25ba286514140921","","","","","<p style=""color:darkgreen;font-size:24px;"">Correct :)</p>","",""
"2674","key","n","n","16.65862500000003","500","250","psychophysics","283","699259","0.0-283.0","61084aea533adb7e7518d4df","6213bd7c25ba286514140921","5","","","","","0","2"
"null","","","null","","","","html-keyboard-response","284","699761","0.0-284.0","61084aea533adb7e7518d4df","6213bd7c25ba286514140921","","","","","<p style=""color:darkgreen;font-size:24px;"">Correct :)</p>","",""
"2819","key","v","v","16.6587751479289","500","250","psychophysics","285","702583","0.0-285.0","61084aea533adb7e7518d4df","6213bd7c25ba286514140921","5","","","","","0","9"
"null","","","null","","","","html-keyboard-response","286","703085","0.0-286.0","61084aea533adb7e7518d4df","6213bd7c25ba286514140921","","","","","<p style=""color:darkgreen;font-size:24px;"">Correct :)</p>","",""
"2596","key","n","n","16.658666666667276","500","250","psychophysics","287","705683","0.0-287.0","61084aea533adb7e7518d4df","6213bd7c25ba286514140921","5","","","","","0","4"
"null","","","null","","","","html-keyboard-response","288","706184","0.0-288.0","61084aea533adb7e7518d4df","6213bd7c25ba286514140921","","","","","<p style=""color:darkgreen;font-size:24px;"">Correct :)</p>","",""
"2636","key","v","v","16.658651898733687","500","250","psychophysics","289","708823","0.0-289.0","61084aea533adb7e7518d4df","6213bd7c25ba286514140921","5","","","","","0","1"
"null","","","null","","","","html-keyboard-response","290","709324","0.0-290.0","61084aea533adb7e7518d4df","6213bd7c25ba286514140921","","","","","<p style=""color:darkgreen;font-size:24px;"">Correct :)</p>","",""
"2663","key","v","v","16.658643749999463","500","250","psychophysics","291","711991","0.0-291.0","61084aea533adb7e7518d4df","6213bd7c25ba286514140921","5","","","","","0","7"
"null","","","null","","","","html-keyboard-response","292","712492","0.0-292.0","61084aea533adb7e7518d4df","6213bd7c25ba286514140921","","","","","<p style=""color:darkgreen;font-size:24px;"">Correct :)</p>","",""
"2721","key","v","v","16.658742331288344","500","250","psychophysics","293","715216","0.0-293.0","61084aea533adb7e7518d4df","6213bd7c25ba286514140921","5","","","","","0","7"
"null","","","null","","","","html-keyboard-response","294","715717","0.0-294.0","61084aea533adb7e7518d4df","6213bd7c25ba286514140921","","","","","<p style=""color:darkgreen;font-size:24px;"">Correct :)</p>","",""
"37425","","","v","","","","html-keyboard-response","295","753143","0.0-295.0","61084aea533adb7e7518d4df","6213bd7c25ba286514140921","","","","","<p> Here, the tasks are going to switch.  For some trials, your job is to decide if the digit is less than or greater than 5.  For others, it is to decide if the digit is even or odd.  You will be told which type of trial the current one is.  But, pay attention, the type of trial changes too.  We are going to do 50 of these.  </p>  <br><br>  Ready? (press v or n)","",""
"3218","key","v","v","16.654239583333645","500","250","psychophysics","296","756363","0.0-296.0","61084aea533adb7e7518d4df","6213bd7c25ba286514140921","6","","","","","1","4"
"null","","","null","","","","html-keyboard-response","297","756865","0.0-297.0","61084aea533adb7e7518d4df","6213bd7c25ba286514140921","","","","","<p style=""color:darkgreen;font-size:24px;"">Correct :)</p>","",""
"2598","key","n","n","16.658782051281424","500","250","psychophysics","298","759466","0.0-298.0","61084aea533adb7e7518d4df","6213bd7c25ba286514140921","6","","","","","0","6"
"null","","","null","","","","html-keyboard-response","299","759967","0.0-299.0","61084aea533adb7e7518d4df","6213bd7c25ba286514140921","","","","","<p style=""color:darkgreen;font-size:24px;"">Correct :)</p>","",""
"2529","key","v","v","16.658828947368374","500","250","psychophysics","300","762499","0.0-300.0","61084aea533adb7e7518d4df","6213bd7c25ba286514140921","6","","","","","1","1"
"null","","","null","","","","html-keyboard-response","301","763004","0.0-301.0","61084aea533adb7e7518d4df","6213bd7c25ba286514140921","","","","","<p style=""color:darkgreen;font-size:24px;"">Correct :)</p>","",""
"2749","key","v","v","16.658878787879296","500","250","psychophysics","302","765756","0.0-302.0","61084aea533adb7e7518d4df","6213bd7c25ba286514140921","6","","","","","0","9"
"null","","","null","","","","html-keyboard-response","303","766257","0.0-303.0","61084aea533adb7e7518d4df","6213bd7c25ba286514140921","","","","","<p style=""color:darkgreen;font-size:24px;"">Correct :)</p>","",""
"2679","key","n","n","16.658714285714012","500","250","psychophysics","304","768939","0.0-304.0","61084aea533adb7e7518d4df","6213bd7c25ba286514140921","6","","","","","0","2"
"null","","","null","","","","html-keyboard-response","305","769441","0.0-305.0","61084aea533adb7e7518d4df","6213bd7c25ba286514140921","","","","","<p style=""color:darkgreen;font-size:24px;"">Correct :)</p>","",""
"2564","key","n","n","16.658701298700937","500","250","psychophysics","306","772009","0.0-306.0","61084aea533adb7e7518d4df","6213bd7c25ba286514140921","6","","","","","0","6"
"null","","","null","","","","html-keyboard-response","307","772510","0.0-307.0","61084aea533adb7e7518d4df","6213bd7c25ba286514140921","","","","","<p style=""color:darkgreen;font-size:24px;"">Correct :)</p>","",""
"2846","key","n","n","16.65883625730973","500","250","psychophysics","308","775360","0.0-308.0","61084aea533adb7e7518d4df","6213bd7c25ba286514140921","6","","","","","1","6"
"null","","","null","","","","html-keyboard-response","309","775861","0.0-309.0","61084aea533adb7e7518d4df","6213bd7c25ba286514140921","","","","","<p style=""color:darkgreen;font-size:24px;"">Correct :)</p>","",""
"2639","key","n","n","16.65881761006276","500","250","psychophysics","310","778503","0.0-310.0","61084aea533adb7e7518d4df","6213bd7c25ba286514140921","6","","","","","0","2"
"null","","","null","","","","html-keyboard-response","311","779004","0.0-311.0","61084aea533adb7e7518d4df","6213bd7c25ba286514140921","","","","","<p style=""color:darkgreen;font-size:24px;"">Correct :)</p>","",""
"2530","key","n","n","16.65875000000003","500","250","psychophysics","312","781537","0.0-312.0","61084aea533adb7e7518d4df","6213bd7c25ba286514140921","6","","","","","0","8"
"null","","","null","","","","html-keyboard-response","313","782039","0.0-313.0","61084aea533adb7e7518d4df","6213bd7c25ba286514140921","","","","","<p style=""color:darkgreen;font-size:24px;"">Correct :)</p>","",""
"2484","key","n","n","16.658644295302253","500","250","psychophysics","314","784526","0.0-314.0","61084aea533adb7e7518d4df","6213bd7c25ba286514140921","6","","","","","0","4"
"null","","","null","","","","html-keyboard-response","315","785027","0.0-315.0","61084aea533adb7e7518d4df","6213bd7c25ba286514140921","","","","","<p style=""color:darkgreen;font-size:24px;"">Correct :)</p>","",""
"2542","key","v","v","16.65859868421103","500","250","psychophysics","316","787572","0.0-316.0","61084aea533adb7e7518d4df","6213bd7c25ba286514140921","6","","","","","1","3"
"null","","","null","","","","html-keyboard-response","317","788074","0.0-317.0","61084aea533adb7e7518d4df","6213bd7c25ba286514140921","","","","","<p style=""color:darkgreen;font-size:24px;"">Correct :)</p>","",""
"2854","key","v","v","16.658860465115733","500","250","psychophysics","318","790931","0.0-318.0","61084aea533adb7e7518d4df","6213bd7c25ba286514140921","6","","","","","0","9"
"null","","","null","","","","html-keyboard-response","319","791432","0.0-319.0","61084aea533adb7e7518d4df","6213bd7c25ba286514140921","","","","","<p style=""color:darkgreen;font-size:24px;"">Correct :)</p>","",""
"3294","key","n","n","16.659020202020372","500","250","psychophysics","320","794730","0.0-320.0","61084aea533adb7e7518d4df","6213bd7c25ba286514140921","6","","","","","0","2"
"null","","","null","","","","html-keyboard-response","321","795231","0.0-321.0","61084aea533adb7e7518d4df","6213bd7c25ba286514140921","","","","","<p style=""color:darkgreen;font-size:24px;"">Correct :)</p>","",""
"3295","key","n","n","16.65893939393984","500","250","psychophysics","322","798530","0.0-322.0","61084aea533adb7e7518d4df","6213bd7c25ba286514140921","6","","","","","1","7"
"null","","","null","","","","html-keyboard-response","323","799031","0.0-323.0","61084aea533adb7e7518d4df","6213bd7c25ba286514140921","","","","","<p style=""color:darkgreen;font-size:24px;"">Correct :)</p>","",""
"2695","key","n","n","16.658808641975753","500","250","psychophysics","324","801730","0.0-324.0","61084aea533adb7e7518d4df","6213bd7c25ba286514140921","6","","","","","0","4"
"null","","","null","","","","html-keyboard-response","325","802231","0.0-325.0","61084aea533adb7e7518d4df","6213bd7c25ba286514140921","","","","","<p style=""color:darkgreen;font-size:24px;"">Correct :)</p>","",""
"2559","key","v","v","16.658753246753083","500","250","psychophysics","326","804792","0.0-326.0","61084aea533adb7e7518d4df","6213bd7c25ba286514140921","6","","","","","1","3"
"null","","","null","","","","html-keyboard-response","327","805294","0.0-327.0","61084aea533adb7e7518d4df","6213bd7c25ba286514140921","","","","","<p style=""color:darkgreen;font-size:24px;"">Correct :)</p>","",""
"2661","key","n","n","16.658868749999964","500","250","psychophysics","328","807957","0.0-328.0","61084aea533adb7e7518d4df","6213bd7c25ba286514140921","6","","","","","0","6"
"null","","","null","","","","html-keyboard-response","329","808458","0.0-329.0","61084aea533adb7e7518d4df","6213bd7c25ba286514140921","","","","","<p style=""color:darkgreen;font-size:24px;"">Correct :)</p>","",""
"2796","key","n","n","16.658755952381483","500","250","psychophysics","330","811257","0.0-330.0","61084aea533adb7e7518d4df","6213bd7c25ba286514140921","6","","","","","1","6"
"null","","","null","","","","html-keyboard-response","331","811759","0.0-331.0","61084aea533adb7e7518d4df","6213bd7c25ba286514140921","","","","","<p style=""color:darkgreen;font-size:24px;"">Correct :)</p>","",""
"2579","key","n","n","16.658703225806747","500","250","psychophysics","332","814341","0.0-332.0","61084aea533adb7e7518d4df","6213bd7c25ba286514140921","6","","","","","1","6"
"null","","","null","","","","html-keyboard-response","333","814842","0.0-333.0","61084aea533adb7e7518d4df","6213bd7c25ba286514140921","","","","","<p style=""color:darkgreen;font-size:24px;"">Correct :)</p>","",""
"2952","key","n","n","16.65883615819243","500","250","psychophysics","334","817797","0.0-334.0","61084aea533adb7e7518d4df","6213bd7c25ba286514140921","6","","","","","0","2"
"null","","","null","","","","html-keyboard-response","335","818299","0.0-335.0","61084aea533adb7e7518d4df","6213bd7c25ba286514140921","","","","","<p style=""color:darkgreen;font-size:24px;"">Correct :)</p>","",""
"3279","key","v","v","16.65899999999987","500","250","psychophysics","336","821581","0.0-336.0","61084aea533adb7e7518d4df","6213bd7c25ba286514140921","6","","","","","0","7"
"null","","","null","","","","html-keyboard-response","337","822082","0.0-337.0","61084aea533adb7e7518d4df","6213bd7c25ba286514140921","","","","","<p style=""color:darkgreen;font-size:24px;"">Correct :)</p>","",""
"3279","key","v","v","16.65893908629435","500","250","psychophysics","338","825365","0.0-338.0","61084aea533adb7e7518d4df","6213bd7c25ba286514140921","6","","","","","1","4"
"null","","","null","","","","html-keyboard-response","339","825867","0.0-339.0","61084aea533adb7e7518d4df","6213bd7c25ba286514140921","","","","","<p style=""color:darkgreen;font-size:24px;"">Correct :)</p>","",""
"3482","key","n","n","16.65914354066957","500","250","psychophysics","340","829352","0.0-340.0","61084aea533adb7e7518d4df","6213bd7c25ba286514140921","6","","","","","1","7"
"null","","","null","","","","html-keyboard-response","341","829853","0.0-341.0","61084aea533adb7e7518d4df","6213bd7c25ba286514140921","","","","","<p style=""color:darkgreen;font-size:24px;"">Correct :)</p>","",""
"3394","key","n","n","16.658999999999935","500","250","psychophysics","342","833251","0.0-342.0","61084aea533adb7e7518d4df","6213bd7c25ba286514140921","6","","","","","1","7"
"null","","","null","","","","html-keyboard-response","343","833752","0.0-343.0","61084aea533adb7e7518d4df","6213bd7c25ba286514140921","","","","","<p style=""color:darkgreen;font-size:24px;"">Correct :)</p>","",""
"2420","key","v","v","16.658739726027243","500","250","psychophysics","344","836175","0.0-344.0","61084aea533adb7e7518d4df","6213bd7c25ba286514140921","6","","","","","1","2"
"null","","","null","","","","html-keyboard-response","345","836676","0.0-345.0","61084aea533adb7e7518d4df","6213bd7c25ba286514140921","","","","","<p style=""color:darkgreen;font-size:24px;"">Correct :)</p>","",""
"2540","key","n","n","16.65875000000003","500","250","psychophysics","346","839220","0.0-346.0","61084aea533adb7e7518d4df","6213bd7c25ba286514140921","6","","","","","1","9"
"null","","","null","","","","html-keyboard-response","347","839721","0.0-347.0","61084aea533adb7e7518d4df","6213bd7c25ba286514140921","","","","","<p style=""color:darkgreen;font-size:24px;"">Correct :)</p>","",""
"2618","key","n","n","16.658753164556863","500","250","psychophysics","348","842343","0.0-348.0","61084aea533adb7e7518d4df","6213bd7c25ba286514140921","6","","","","","0","8"
"null","","","null","","","","html-keyboard-response","349","842844","0.0-349.0","61084aea533adb7e7518d4df","6213bd7c25ba286514140921","","","","","<p style=""color:darkgreen;font-size:24px;"">Correct :)</p>","",""
"2831","key","v","v","16.658799999999566","500","250","psychophysics","350","845678","0.0-350.0","61084aea533adb7e7518d4df","6213bd7c25ba286514140921","6","","","","","1","2"
"null","","","null","","","","html-keyboard-response","351","846180","0.0-351.0","61084aea533adb7e7518d4df","6213bd7c25ba286514140921","","","","","<p style=""color:darkgreen;font-size:24px;"">Correct :)</p>","",""
"3133","key","n","n","16.6589308510636","500","250","psychophysics","352","849316","0.0-352.0","61084aea533adb7e7518d4df","6213bd7c25ba286514140921","6","","","","","0","4"
"null","","","null","","","","html-keyboard-response","353","849818","0.0-353.0","61084aea533adb7e7518d4df","6213bd7c25ba286514140921","","","","","<p style=""color:darkgreen;font-size:24px;"">Correct :)</p>","",""
"2611","key","n","n","16.658685897435927","500","250","psychophysics","354","852432","0.0-354.0","61084aea533adb7e7518d4df","6213bd7c25ba286514140921","6","","","","","1","8"
"null","","","null","","","","html-keyboard-response","355","852933","0.0-355.0","61084aea533adb7e7518d4df","6213bd7c25ba286514140921","","","","","<p style=""color:darkgreen;font-size:24px;"">Correct :)</p>","",""
"2412","key","v","v","16.658569444444666","500","250","psychophysics","356","855348","0.0-356.0","61084aea533adb7e7518d4df","6213bd7c25ba286514140921","6","","","","","1","4"
"null","","","null","","","","html-keyboard-response","357","855850","0.0-357.0","61084aea533adb7e7518d4df","6213bd7c25ba286514140921","","","","","<p style=""color:darkgreen;font-size:24px;"">Correct :)</p>","",""
"2997","key","v","v","16.658827777777333","500","250","psychophysics","358","858850","0.0-358.0","61084aea533adb7e7518d4df","6213bd7c25ba286514140921","6","","","","","1","4"
"null","","","null","","","","html-keyboard-response","359","859351","0.0-359.0","61084aea533adb7e7518d4df","6213bd7c25ba286514140921","","","","","<p style=""color:darkgreen;font-size:24px;"">Correct :)</p>","",""
"2693","key","n","n","16.658734567901032","500","250","psychophysics","360","862048","0.0-360.0","61084aea533adb7e7518d4df","6213bd7c25ba286514140921","6","","","","","0","2"
"null","","","null","","","","html-keyboard-response","361","862549","0.0-361.0","61084aea533adb7e7518d4df","6213bd7c25ba286514140921","","","","","<p style=""color:darkgreen;font-size:24px;"">Correct :)</p>","",""
"2714","key","v","v","16.658840490797925","500","250","psychophysics","362","865267","0.0-362.0","61084aea533adb7e7518d4df","6213bd7c25ba286514140921","6","","","","","1","1"
"null","","","null","","","","html-keyboard-response","363","865768","0.0-363.0","61084aea533adb7e7518d4df","6213bd7c25ba286514140921","","","","","<p style=""color:darkgreen;font-size:24px;"">Correct :)</p>","",""
"2726","key","n","n","16.658780487805107","500","250","psychophysics","364","868497","0.0-364.0","61084aea533adb7e7518d4df","6213bd7c25ba286514140921","6","","","","","0","8"
"null","","","null","","","","html-keyboard-response","365","868998","0.0-365.0","61084aea533adb7e7518d4df","6213bd7c25ba286514140921","","","","","<p style=""color:darkgreen;font-size:24px;"">Correct :)</p>","",""
"3490","key","n","n","16.65906220095669","500","250","psychophysics","366","872491","0.0-366.0","61084aea533adb7e7518d4df","6213bd7c25ba286514140921","6","","","","","1","7"
"null","","","null","","","","html-keyboard-response","367","872993","0.0-367.0","61084aea533adb7e7518d4df","6213bd7c25ba286514140921","","","","","<p style=""color:darkgreen;font-size:24px;"">Correct :)</p>","",""
"2493","key","n","n","16.65856375838958","500","250","psychophysics","368","875489","0.0-368.0","61084aea533adb7e7518d4df","6213bd7c25ba286514140921","6","","","","","0","2"
"null","","","null","","","","html-keyboard-response","369","875991","0.0-369.0","61084aea533adb7e7518d4df","6213bd7c25ba286514140921","","","","","<p style=""color:darkgreen;font-size:24px;"">Correct :)</p>","",""
"3152","key","v","v","16.658878306878567","500","250","psychophysics","370","879145","0.0-370.0","61084aea533adb7e7518d4df","6213bd7c25ba286514140921","6","","","","","0","3"
"null","","","null","","","","html-keyboard-response","371","879647","0.0-371.0","61084aea533adb7e7518d4df","6213bd7c25ba286514140921","","","","","<p style=""color:darkgreen;font-size:24px;"">Correct :)</p>","",""
"3287","key","v","v","16.659005076142247","500","250","psychophysics","372","882937","0.0-372.0","61084aea533adb7e7518d4df","6213bd7c25ba286514140921","6","","","","","0","3"
"null","","","null","","","","html-keyboard-response","373","883439","0.0-373.0","61084aea533adb7e7518d4df","6213bd7c25ba286514140921","","","","","<p style=""color:darkgreen;font-size:24px;"">Correct :)</p>","",""
"2823","key","n","n","16.658674556213658","500","250","psychophysics","374","886264","0.0-374.0","61084aea533adb7e7518d4df","6213bd7c25ba286514140921","6","","","","","0","6"
"null","","","null","","","","html-keyboard-response","375","886766","0.0-375.0","61084aea533adb7e7518d4df","6213bd7c25ba286514140921","","","","","<p style=""color:darkgreen;font-size:24px;"">Correct :)</p>","",""
"3024","key","n","n","16.658873626373193","500","250","psychophysics","376","889793","0.0-376.0","61084aea533adb7e7518d4df","6213bd7c25ba286514140921","6","","","","","1","8"
"null","","","null","","","","html-keyboard-response","377","890294","0.0-377.0","61084aea533adb7e7518d4df","6213bd7c25ba286514140921","","","","","<p style=""color:darkgreen;font-size:24px;"">Correct :)</p>","",""
"2561","key","n","n","16.65881818181808","500","250","psychophysics","378","892858","0.0-378.0","61084aea533adb7e7518d4df","6213bd7c25ba286514140921","6","","","","","0","2"
"null","","","null","","","","html-keyboard-response","379","893359","0.0-379.0","61084aea533adb7e7518d4df","6213bd7c25ba286514140921","","","","","<p style=""color:darkgreen;font-size:24px;"">Correct :)</p>","",""
"2687","key","n","n","16.658732919254547","500","250","psychophysics","380","896049","0.0-380.0","61084aea533adb7e7518d4df","6213bd7c25ba286514140921","6","","","","","0","2"
"null","","","null","","","","html-keyboard-response","381","896551","0.0-381.0","61084aea533adb7e7518d4df","6213bd7c25ba286514140921","","","","","<p style=""color:darkgreen;font-size:24px;"">Correct :)</p>","",""
"3087","key","n","n","16.658891891891365","500","250","psychophysics","382","899641","0.0-382.0","61084aea533adb7e7518d4df","6213bd7c25ba286514140921","6","","","","","0","6"
"null","","","null","","","","html-keyboard-response","383","900143","0.0-383.0","61084aea533adb7e7518d4df","6213bd7c25ba286514140921","","","","","<p style=""color:darkgreen;font-size:24px;"">Correct :)</p>","",""
"2884","key","n","n","16.658791907514566","500","250","psychophysics","384","903030","0.0-384.0","61084aea533adb7e7518d4df","6213bd7c25ba286514140921","6","","","","","1","9"
"null","","","null","","","","html-keyboard-response","385","903531","0.0-385.0","61084aea533adb7e7518d4df","6213bd7c25ba286514140921","","","","","<p style=""color:darkgreen;font-size:24px;"">Correct :)</p>","",""
"2664","key","n","n","16.658693750000385","500","250","psychophysics","386","906198","0.0-386.0","61084aea533adb7e7518d4df","6213bd7c25ba286514140921","6","","","","","0","2"
"null","","","null","","","","html-keyboard-response","387","906700","0.0-387.0","61084aea533adb7e7518d4df","6213bd7c25ba286514140921","","","","","<p style=""color:darkgreen;font-size:24px;"">Correct :)</p>","",""
"3074","key","n","n","16.65891847826108","500","250","psychophysics","388","909777","0.0-388.0","61084aea533adb7e7518d4df","6213bd7c25ba286514140921","6","","","","","1","9"
"null","","","null","","","","html-keyboard-response","389","910279","0.0-389.0","61084aea533adb7e7518d4df","6213bd7c25ba286514140921","","","","","<p style=""color:darkgreen;font-size:24px;"">Correct :)</p>","",""
"3060","key","v","v","16.658836065573347","500","250","psychophysics","390","913341","0.0-390.0","61084aea533adb7e7518d4df","6213bd7c25ba286514140921","6","","","","","0","3"
"null","","","null","","","","html-keyboard-response","391","913843","0.0-391.0","61084aea533adb7e7518d4df","6213bd7c25ba286514140921","","","","","<p style=""color:darkgreen;font-size:24px;"">Correct :)</p>","",""
"3109","key","n","n","16.65895161290355","500","250","psychophysics","392","916955","0.0-392.0","61084aea533adb7e7518d4df","6213bd7c25ba286514140921","6","","","","","0","6"
"null","","","null","","","","html-keyboard-response","393","917456","0.0-393.0","61084aea533adb7e7518d4df","6213bd7c25ba286514140921","","","","","<p style=""color:darkgreen;font-size:24px;"">Correct :)</p>","",""
"2777","key","v","v","16.658754491018588","500","250","psychophysics","394","920237","0.0-394.0","61084aea533adb7e7518d4df","6213bd7c25ba286514140921","6","","","","","0","7"
"null","","","null","","","","html-keyboard-response","395","920739","0.0-395.0","61084aea533adb7e7518d4df","6213bd7c25ba286514140921","","","","","<p style=""color:darkgreen;font-size:24px;"">Correct :)</p>","",""
"5926","","","v","","","","html-keyboard-response","396","926666","0.0-396.0","61084aea533adb7e7518d4df","6213bd7c25ba286514140921","","","","","<p> Last set of trials.  Here, the tasks are going to switch once again.  We are going to do 50 of these.  And then you are done with the experiment.  </p>  <br><br>  Ready? (press v or n)","",""
"2869","key","n","n","16.643901734104155","500","250","psychophysics","397","929538","0.0-397.0","61084aea533adb7e7518d4df","6213bd7c25ba286514140921","7","","","","","0","6"
"null","","","null","","","","html-keyboard-response","398","930039","0.0-398.0","61084aea533adb7e7518d4df","6213bd7c25ba286514140921","","","","","<p style=""color:darkgreen;font-size:24px;"">Correct :)</p>","",""
"2861","key","v","v","16.658906976744493","500","250","psychophysics","399","932904","0.0-399.0","61084aea533adb7e7518d4df","6213bd7c25ba286514140921","7","","","","","1","2"
"null","","","null","","","","html-keyboard-response","400","933406","0.0-400.0","61084aea533adb7e7518d4df","6213bd7c25ba286514140921","","","","","<p style=""color:darkgreen;font-size:24px;"">Correct :)</p>","",""
"2886","key","n","n","16.658999999999903","500","250","psychophysics","401","936297","0.0-401.0","61084aea533adb7e7518d4df","6213bd7c25ba286514140921","7","","","","","0","4"
"null","","","null","","","","html-keyboard-response","402","936798","0.0-402.0","61084aea533adb7e7518d4df","6213bd7c25ba286514140921","","","","","<p style=""color:darkgreen;font-size:24px;"">Correct :)</p>","",""
"2635","key","n","n","16.65872327044076","500","250","psychophysics","403","939438","0.0-403.0","61084aea533adb7e7518d4df","6213bd7c25ba286514140921","7","","","","","0","2"
"null","","","null","","","","html-keyboard-response","404","939940","0.0-404.0","61084aea533adb7e7518d4df","6213bd7c25ba286514140921","","","","","<p style=""color:darkgreen;font-size:24px;"">Correct :)</p>","",""
"2591","key","v","v","16.6588525641023","500","250","psychophysics","405","942534","0.0-405.0","61084aea533adb7e7518d4df","6213bd7c25ba286514140921","7","","","","","0","3"
"null","","","null","","","","html-keyboard-response","406","943036","0.0-406.0","61084aea533adb7e7518d4df","6213bd7c25ba286514140921","","","","","<p style=""color:darkgreen;font-size:24px;"">Correct :)</p>","",""
"2605","key","v","v","16.658724358974723","500","250","psychophysics","407","945643","0.0-407.0","61084aea533adb7e7518d4df","6213bd7c25ba286514140921","7","","","","","1","4"
"null","","","null","","","","html-keyboard-response","408","946145","0.0-408.0","61084aea533adb7e7518d4df","6213bd7c25ba286514140921","","","","","<p style=""color:darkgreen;font-size:24px;"">Correct :)</p>","",""
"2451","key","n","n","16.658628378378076","500","250","psychophysics","409","948600","0.0-409.0","61084aea533adb7e7518d4df","6213bd7c25ba286514140921","7","","","","","0","6"
"null","","","null","","","","html-keyboard-response","410","949101","0.0-410.0","61084aea533adb7e7518d4df","6213bd7c25ba286514140921","","","","","<p style=""color:darkgreen;font-size:24px;"">Correct :)</p>","",""
"2459","key","n","n","16.658675675675262","500","250","psychophysics","411","951564","0.0-411.0","61084aea533adb7e7518d4df","6213bd7c25ba286514140921","7","","","","","1","7"
"null","","","null","","","","html-keyboard-response","412","952065","0.0-412.0","61084aea533adb7e7518d4df","6213bd7c25ba286514140921","","","","","<p style=""color:darkgreen;font-size:24px;"">Correct :)</p>","",""
"2885","key","v","v","16.65880346820808","500","250","psychophysics","413","954953","0.0-413.0","61084aea533adb7e7518d4df","6213bd7c25ba286514140921","7","","","","","1","3"
"null","","","null","","","","html-keyboard-response","414","955455","0.0-414.0","61084aea533adb7e7518d4df","6213bd7c25ba286514140921","","","","","<p style=""color:darkgreen;font-size:24px;"">Correct :)</p>","",""
"2741","key","v","v","16.658769696969255","500","250","psychophysics","415","958199","0.0-415.0","61084aea533adb7e7518d4df","6213bd7c25ba286514140921","7","","","","","0","7"
"null","","","null","","","","html-keyboard-response","416","958700","0.0-416.0","61084aea533adb7e7518d4df","6213bd7c25ba286514140921","","","","","<p style=""color:darkgreen;font-size:24px;"">Correct :)</p>","",""
"2642","key","n","n","16.65882389937123","500","250","psychophysics","417","961345","0.0-417.0","61084aea533adb7e7518d4df","6213bd7c25ba286514140921","7","","","","","0","2"
"null","","","null","","","","html-keyboard-response","418","961847","0.0-418.0","61084aea533adb7e7518d4df","6213bd7c25ba286514140921","","","","","<p style=""color:darkgreen;font-size:24px;"">Correct :)</p>","",""
"2774","key","v","v","16.65883832335302","500","250","psychophysics","419","964625","0.0-419.0","61084aea533adb7e7518d4df","6213bd7c25ba286514140921","7","","","","","0","1"
"null","","","null","","","","html-keyboard-response","420","965127","0.0-420.0","61084aea533adb7e7518d4df","6213bd7c25ba286514140921","","","","","<p style=""color:darkgreen;font-size:24px;"">Correct :)</p>","",""
"2520","key","v","v","16.658649006622554","500","250","psychophysics","421","967650","0.0-421.0","61084aea533adb7e7518d4df","6213bd7c25ba286514140921","7","","","","","1","1"
"null","","","null","","","","html-keyboard-response","422","968152","0.0-422.0","61084aea533adb7e7518d4df","6213bd7c25ba286514140921","","","","","<p style=""color:darkgreen;font-size:24px;"">Correct :)</p>","",""
"2866","key","v","v","16.65885549132925","500","250","psychophysics","423","971022","0.0-423.0","61084aea533adb7e7518d4df","6213bd7c25ba286514140921","7","","","","","1","1"
"null","","","null","","","","html-keyboard-response","424","971524","0.0-424.0","61084aea533adb7e7518d4df","6213bd7c25ba286514140921","","","","","<p style=""color:darkgreen;font-size:24px;"">Correct :)</p>","",""
"2550","key","v","v","16.658699346404962","500","250","psychophysics","425","974077","0.0-425.0","61084aea533adb7e7518d4df","6213bd7c25ba286514140921","7","","","","","1","2"
"null","","","null","","","","html-keyboard-response","426","974578","0.0-426.0","61084aea533adb7e7518d4df","6213bd7c25ba286514140921","","","","","<p style=""color:darkgreen;font-size:24px;"">Correct :)</p>","",""
"2440","key","v","v","16.658625850339934","500","250","psychophysics","427","977021","0.0-427.0","61084aea533adb7e7518d4df","6213bd7c25ba286514140921","7","","","","","1","2"
"null","","","null","","","","html-keyboard-response","428","977523","0.0-428.0","61084aea533adb7e7518d4df","6213bd7c25ba286514140921","","","","","<p style=""color:darkgreen;font-size:24px;"">Correct :)</p>","",""
"2685","key","v","v","16.658745341615386","500","250","psychophysics","429","980211","0.0-429.0","61084aea533adb7e7518d4df","6213bd7c25ba286514140921","7","","","","","0","3"
"null","","","null","","","","html-keyboard-response","430","980713","0.0-430.0","61084aea533adb7e7518d4df","6213bd7c25ba286514140921","","","","","<p style=""color:darkgreen;font-size:24px;"">Correct :)</p>","",""
"2854","key","v","v","16.658744186046533","500","250","psychophysics","431","983571","0.0-431.0","61084aea533adb7e7518d4df","6213bd7c25ba286514140921","7","","","","","1","2"
"null","","","null","","","","html-keyboard-response","432","984072","0.0-432.0","61084aea533adb7e7518d4df","6213bd7c25ba286514140921","","","","","<p style=""color:darkgreen;font-size:24px;"">Correct :)</p>","",""
"2590","key","v","v","16.65871794871801","500","250","psychophysics","433","986666","0.0-433.0","61084aea533adb7e7518d4df","6213bd7c25ba286514140921","7","","","","","1","4"
"null","","","null","","","","html-keyboard-response","434","987167","0.0-434.0","61084aea533adb7e7518d4df","6213bd7c25ba286514140921","","","","","<p style=""color:darkgreen;font-size:24px;"">Correct :)</p>","",""
"2660","key","v","v","16.658750000000147","500","250","psychophysics","435","989831","0.0-435.0","61084aea533adb7e7518d4df","6213bd7c25ba286514140921","7","","","","","1","2"
"null","","","null","","","","html-keyboard-response","436","990332","0.0-436.0","61084aea533adb7e7518d4df","6213bd7c25ba286514140921","","","","","<p style=""color:darkgreen;font-size:24px;"">Correct :)</p>","",""
"2428","key","v","v","16.65867808219189","500","250","psychophysics","437","992769","0.0-437.0","61084aea533adb7e7518d4df","6213bd7c25ba286514140921","7","","","","","1","2"
"null","","","null","","","","html-keyboard-response","438","993270","0.0-438.0","61084aea533adb7e7518d4df","6213bd7c25ba286514140921","","","","","<p style=""color:darkgreen;font-size:24px;"">Correct :)</p>","",""
"2408","key","v","v","16.658648275862575","500","250","psychophysics","439","995682","0.0-439.0","61084aea533adb7e7518d4df","6213bd7c25ba286514140921","7","","","","","1","4"
"null","","","null","","","","html-keyboard-response","440","996184","0.0-440.0","61084aea533adb7e7518d4df","6213bd7c25ba286514140921","","","","","<p style=""color:darkgreen;font-size:24px;"">Correct :)</p>","",""
"2609","key","v","v","16.658789808916783","500","250","psychophysics","441","998796","0.0-441.0","61084aea533adb7e7518d4df","6213bd7c25ba286514140921","7","","","","","0","7"
"null","","","null","","","","html-keyboard-response","442","999298","0.0-442.0","61084aea533adb7e7518d4df","6213bd7c25ba286514140921","","","","","<p style=""color:darkgreen;font-size:24px;"">Correct :)</p>","",""
"2785","key","n","n","16.658742514970115","500","250","psychophysics","443","1002086","0.0-443.0","61084aea533adb7e7518d4df","6213bd7c25ba286514140921","7","","","","","1","7"
"null","","","null","","","","html-keyboard-response","444","1002588","0.0-444.0","61084aea533adb7e7518d4df","6213bd7c25ba286514140921","","","","","<p style=""color:darkgreen;font-size:24px;"">Correct :)</p>","",""
"2424","key","v","v","16.658506849315017","500","250","psychophysics","445","1005014","0.0-445.0","61084aea533adb7e7518d4df","6213bd7c25ba286514140921","7","","","","","1","4"
"null","","","null","","","","html-keyboard-response","446","1005516","0.0-446.0","61084aea533adb7e7518d4df","6213bd7c25ba286514140921","","","","","<p style=""color:darkgreen;font-size:24px;"">Correct :)</p>","",""
"2866","key","v","v","16.65897674418561","500","250","psychophysics","447","1008385","0.0-447.0","61084aea533adb7e7518d4df","6213bd7c25ba286514140921","7","","","","","1","4"
"null","","","null","","","","html-keyboard-response","448","1008886","0.0-448.0","61084aea533adb7e7518d4df","6213bd7c25ba286514140921","","","","","<p style=""color:darkgreen;font-size:24px;"">Correct :)</p>","",""
"2624","key","n","n","16.65881645569616","500","250","psychophysics","449","1011514","0.0-449.0","61084aea533adb7e7518d4df","6213bd7c25ba286514140921","7","","","","","0","4"
"null","","","null","","","","html-keyboard-response","450","1012015","0.0-450.0","61084aea533adb7e7518d4df","6213bd7c25ba286514140921","","","","","<p style=""color:darkgreen;font-size:24px;"">Correct :)</p>","",""
"2736","key","n","n","16.65885454545461","500","250","psychophysics","451","1014755","0.0-451.0","61084aea533adb7e7518d4df","6213bd7c25ba286514140921","7","","","","","0","4"
"null","","","null","","","","html-keyboard-response","452","1015256","0.0-452.0","61084aea533adb7e7518d4df","6213bd7c25ba286514140921","","","","","<p style=""color:darkgreen;font-size:24px;"">Correct :)</p>","",""
"3047","key","n","n","16.65890163934441","500","250","psychophysics","453","1018307","0.0-453.0","61084aea533adb7e7518d4df","6213bd7c25ba286514140921","7","","","","","1","6"
"null","","","null","","","","html-keyboard-response","454","1018808","0.0-454.0","61084aea533adb7e7518d4df","6213bd7c25ba286514140921","","","","","<p style=""color:darkgreen;font-size:24px;"">Correct :)</p>","",""
"2422","key","n","n","16.658524137931266","500","250","psychophysics","455","1021234","0.0-455.0","61084aea533adb7e7518d4df","6213bd7c25ba286514140921","7","","","","","1","7"
"null","","","null","","","","html-keyboard-response","456","1021735","0.0-456.0","61084aea533adb7e7518d4df","6213bd7c25ba286514140921","","","","","<p style=""color:darkgreen;font-size:24px;"">Correct :)</p>","",""
"2812","key","n","n","16.658757396450145","500","250","psychophysics","457","1024551","0.0-457.0","61084aea533adb7e7518d4df","6213bd7c25ba286514140921","7","","","","","0","4"
"null","","","null","","","","html-keyboard-response","458","1025053","0.0-458.0","61084aea533adb7e7518d4df","6213bd7c25ba286514140921","","","","","<p style=""color:darkgreen;font-size:24px;"">Correct :)</p>","",""
"2859","key","n","n","16.658713450292478","500","250","psychophysics","459","1027915","0.0-459.0","61084aea533adb7e7518d4df","6213bd7c25ba286514140921","7","","","","","0","2"
"null","","","null","","","","html-keyboard-response","460","1028421","0.0-460.0","61084aea533adb7e7518d4df","6213bd7c25ba286514140921","","","","","<p style=""color:darkgreen;font-size:24px;"">Correct :)</p>","",""
"3092","key","v","v","16.658897849462015","500","250","psychophysics","461","1031516","0.0-461.0","61084aea533adb7e7518d4df","6213bd7c25ba286514140921","7","","","","","1","2"
"null","","","null","","","","html-keyboard-response","462","1032017","0.0-462.0","61084aea533adb7e7518d4df","6213bd7c25ba286514140921","","","","","<p style=""color:darkgreen;font-size:24px;"">Correct :)</p>","",""
"2810","key","n","n","16.658828402367234","500","250","psychophysics","463","1034830","0.0-463.0","61084aea533adb7e7518d4df","6213bd7c25ba286514140921","7","","","","","0","6"
"null","","","null","","","","html-keyboard-response","464","1035331","0.0-464.0","61084aea533adb7e7518d4df","6213bd7c25ba286514140921","","","","","<p style=""color:darkgreen;font-size:24px;"">Correct :)</p>","",""
"2661","key","v","v","16.658668749999926","500","250","psychophysics","465","1037996","0.0-465.0","61084aea533adb7e7518d4df","6213bd7c25ba286514140921","7","","","","","0","1"
"null","","","null","","","","html-keyboard-response","466","1038497","0.0-466.0","61084aea533adb7e7518d4df","6213bd7c25ba286514140921","","","","","<p style=""color:darkgreen;font-size:24px;"">Correct :)</p>","",""
"2426","key","v","v","16.65871724137908","500","250","psychophysics","467","1040926","0.0-467.0","61084aea533adb7e7518d4df","6213bd7c25ba286514140921","7","","","","","0","1"
"null","","","null","","","","html-keyboard-response","468","1041428","0.0-468.0","61084aea533adb7e7518d4df","6213bd7c25ba286514140921","","","","","<p style=""color:darkgreen;font-size:24px;"">Correct :)</p>","",""
"2687","key","n","n","16.658788819876154","500","250","psychophysics","469","1044118","0.0-469.0","61084aea533adb7e7518d4df","6213bd7c25ba286514140921","7","","","","","1","7"
"null","","","null","","","","html-keyboard-response","470","1044619","0.0-470.0","61084aea533adb7e7518d4df","6213bd7c25ba286514140921","","","","","<p style=""color:darkgreen;font-size:24px;"">Correct :)</p>","",""
"2848","key","n","n","16.658877192982146","500","250","psychophysics","471","1047470","0.0-471.0","61084aea533adb7e7518d4df","6213bd7c25ba286514140921","7","","","","","0","6"
"null","","","null","","","","html-keyboard-response","472","1047971","0.0-472.0","61084aea533adb7e7518d4df","6213bd7c25ba286514140921","","","","","<p style=""color:darkgreen;font-size:24px;"">Correct :)</p>","",""
"2474","key","v","v","16.658617449664956","500","250","psychophysics","473","1050452","0.0-473.0","61084aea533adb7e7518d4df","6213bd7c25ba286514140921","7","","","","","1","1"
"null","","","null","","","","html-keyboard-response","474","1050953","0.0-474.0","61084aea533adb7e7518d4df","6213bd7c25ba286514140921","","","","","<p style=""color:darkgreen;font-size:24px;"">Correct :)</p>","",""
"2947","key","n","n","16.658949152542814","500","250","psychophysics","475","1053904","0.0-475.0","61084aea533adb7e7518d4df","6213bd7c25ba286514140921","7","","","","","0","2"
"null","","","null","","","","html-keyboard-response","476","1054407","0.0-476.0","61084aea533adb7e7518d4df","6213bd7c25ba286514140921","","","","","<p style=""color:darkgreen;font-size:24px;"">Correct :)</p>","",""
"3018","key","n","n","16.65891712707164","500","250","psychophysics","477","1057428","0.0-477.0","61084aea533adb7e7518d4df","6213bd7c25ba286514140921","7","","","","","1","6"
"null","","","null","","","","html-keyboard-response","478","1057929","0.0-478.0","61084aea533adb7e7518d4df","6213bd7c25ba286514140921","","","","","<p style=""color:darkgreen;font-size:24px;"">Correct :)</p>","",""
"2703","key","v","v","16.658777777776756","500","250","psychophysics","479","1060635","0.0-479.0","61084aea533adb7e7518d4df","6213bd7c25ba286514140921","7","","","","","1","3"
"null","","","null","","","","html-keyboard-response","480","1061136","0.0-480.0","61084aea533adb7e7518d4df","6213bd7c25ba286514140921","","","","","<p style=""color:darkgreen;font-size:24px;"">Correct :)</p>","",""
"2535","key","v","v","16.658684210527053","500","250","psychophysics","481","1063675","0.0-481.0","61084aea533adb7e7518d4df","6213bd7c25ba286514140921","7","","","","","0","1"
"null","","","null","","","","html-keyboard-response","482","1064176","0.0-482.0","61084aea533adb7e7518d4df","6213bd7c25ba286514140921","","","","","<p style=""color:darkgreen;font-size:24px;"">Correct :)</p>","",""
"2424","key","v","v","16.658650684932706","500","250","psychophysics","483","1066603","0.0-483.0","61084aea533adb7e7518d4df","6213bd7c25ba286514140921","7","","","","","0","1"
"null","","","null","","","","html-keyboard-response","484","1067105","0.0-484.0","61084aea533adb7e7518d4df","6213bd7c25ba286514140921","","","","","<p style=""color:darkgreen;font-size:24px;"">Correct :)</p>","",""
"2761","key","n","n","16.658795180722105","500","250","psychophysics","485","1069868","0.0-485.0","61084aea533adb7e7518d4df","6213bd7c25ba286514140921","7","","","","","1","6"
"null","","","null","","","","html-keyboard-response","486","1070369","0.0-486.0","61084aea533adb7e7518d4df","6213bd7c25ba286514140921","","","","","<p style=""color:darkgreen;font-size:24px;"">Correct :)</p>","",""
"2728","key","v","v","16.658731707316402","500","250","psychophysics","487","1073101","0.0-487.0","61084aea533adb7e7518d4df","6213bd7c25ba286514140921","7","","","","","1","4"
"null","","","null","","","","html-keyboard-response","488","1073603","0.0-488.0","61084aea533adb7e7518d4df","6213bd7c25ba286514140921","","","","","<p style=""color:darkgreen;font-size:24px;"">Correct :)</p>","",""
"2655","key","v","v","16.658716981132287","500","250","psychophysics","489","1076261","0.0-489.0","61084aea533adb7e7518d4df","6213bd7c25ba286514140921","7","","","","","0","7"
"null","","","null","","","","html-keyboard-response","490","1076762","0.0-490.0","61084aea533adb7e7518d4df","6213bd7c25ba286514140921","","","","","<p style=""color:darkgreen;font-size:24px;"">Correct :)</p>","",""
"2744","key","v","v","16.658792682927636","500","250","psychophysics","491","1079509","0.0-491.0","61084aea533adb7e7518d4df","6213bd7c25ba286514140921","7","","","","","0","7"
"null","","","null","","","","html-keyboard-response","492","1080011","0.0-492.0","61084aea533adb7e7518d4df","6213bd7c25ba286514140921","","","","","<p style=""color:darkgreen;font-size:24px;"">Correct :)</p>","",""
"2758","key","v","v","16.65877575757631","500","250","psychophysics","493","1082772","0.0-493.0","61084aea533adb7e7518d4df","6213bd7c25ba286514140921","7","","","","","1","3"
"null","","","null","","","","html-keyboard-response","494","1083273","0.0-494.0","61084aea533adb7e7518d4df","6213bd7c25ba286514140921","","","","","<p style=""color:darkgreen;font-size:24px;"">Correct :)</p>","",""
"2806","key","n","n","16.658769230770233","500","250","psychophysics","495","1086083","0.0-495.0","61084aea533adb7e7518d4df","6213bd7c25ba286514140921","7","","","","","0","6"
"null","","","null","","","","html-keyboard-response","496","1086584","0.0-496.0","61084aea533adb7e7518d4df","6213bd7c25ba286514140921","","","","","<p style=""color:darkgreen;font-size:24px;"">Correct :)</p>","",""
