"rt","response_type","key_press","response","avg_frame_time","center_x","center_y","trial_type","trial_index","time_elapsed","internal_node_id","pid","sid","phase","guide","targ","resp","stimulus","is5","stim"
"2318","key"," "," ","16.66740287769784","500","250","psychophysics","0","2333","0.0-0.0","614e2446523bb49af662fb62","6213e4c001590d283e14a34c","","","","","","",""
"1877","key"," "," ","16.666","500","250","psychophysics","1","4213","0.0-1.0","614e2446523bb49af662fb62","6213e4c001590d283e14a34c","","","","","","",""
"5007","key"," "," ","16.6653745819398","500","250","psychophysics","2","9223","0.0-2.0","614e2446523bb49af662fb62","6213e4c001590d283e14a34c","","","","","","",""
"891","key"," "," ","16.668433962264146","500","250","psychophysics","3","10118","0.0-3.0","614e2446523bb49af662fb62","6213e4c001590d283e14a34c","","","","","","",""
"1112","key"," "," ","16.668560606060606","500","250","psychophysics","4","11232","0.0-4.0","614e2446523bb49af662fb62","6213e4c001590d283e14a34c","","","","","","",""
"2650","key"," "," ","16.666721518987345","500","250","psychophysics","5","13884","0.0-5.0","614e2446523bb49af662fb62","6213e4c001590d283e14a34c","","","","","","",""
"2845","key"," "," ","16.666264705882337","500","250","psychophysics","6","16731","0.0-6.0","614e2446523bb49af662fb62","6213e4c001590d283e14a34c","","","","","","",""
"5248","key"," "," ","16.66655095541401","500","250","psychophysics","7","21981","0.0-7.0","614e2446523bb49af662fb62","6213e4c001590d283e14a34c","","","","","","",""
"6745","key"," "," ","16.66643069306931","500","250","psychophysics","8","28729","0.0-8.0","614e2446523bb49af662fb62","6213e4c001590d283e14a34c","0","0","56","56","","",""
"2122","key"," "," ","16.6671349206349","500","250","psychophysics","9","30853","0.0-9.0","614e2446523bb49af662fb62","6213e4c001590d283e14a34c","","","","","","",""
"1333","key"," "," ","16.66736249999999","500","250","psychophysics","10","32192","0.0-10.0","614e2446523bb49af662fb62","6213e4c001590d283e14a34c","","","","","","",""
"2448","key"," "," ","16.668712328767157","500","250","psychophysics","11","34642","0.0-11.0","614e2446523bb49af662fb62","6213e4c001590d283e14a34c","","","","","","",""
"2464","key"," "," ","16.665217687074808","500","250","psychophysics","12","37108","0.0-12.0","614e2446523bb49af662fb62","6213e4c001590d283e14a34c","","","","","","",""
"1060","key"," "," ","16.666274193548404","500","250","psychophysics","13","38171","0.0-13.0","614e2446523bb49af662fb62","6213e4c001590d283e14a34c","","","","","","",""
"1841","key"," "," ","16.667863636363606","500","250","psychophysics","14","40017","0.0-14.0","614e2446523bb49af662fb62","6213e4c001590d283e14a34c","","","","","","",""
"2400","key"," "," ","16.666804195804165","500","250","psychophysics","15","42420","0.0-15.0","614e2446523bb49af662fb62","6213e4c001590d283e14a34c","","","","","","",""
"2296","key"," "," ","16.666182481751825","500","250","psychophysics","16","44720","0.0-16.0","614e2446523bb49af662fb62","6213e4c001590d283e14a34c","","","","","","",""
"4033","key"," "," ","16.66617768595043","500","250","psychophysics","17","48757","0.0-17.0","614e2446523bb49af662fb62","6213e4c001590d283e14a34c","1","0","53","52","","",""
"3856","key"," "," ","16.66588695652175","500","250","psychophysics","18","52615","0.0-18.0","614e2446523bb49af662fb62","6213e4c001590d283e14a34c","1","5","39","36","","",""
"2895","key"," "," ","16.667693641618488","500","250","psychophysics","19","55513","0.0-19.0","614e2446523bb49af662fb62","6213e4c001590d283e14a34c","1","0","28","31","","",""
"3584","key"," "," ","16.666130841121475","500","250","psychophysics","20","59099","0.0-20.0","614e2446523bb49af662fb62","6213e4c001590d283e14a34c","1","5","57","55","","",""
"3697","key"," "," ","16.667248868778277","500","250","psychophysics","21","62798","0.0-21.0","614e2446523bb49af662fb62","6213e4c001590d283e14a34c","1","0","57","73","","",""
"2463","key"," "," ","16.666462585033972","500","250","psychophysics","22","65263","0.0-22.0","614e2446523bb49af662fb62","6213e4c001590d283e14a34c","1","5","43","42","","",""
"2300","key"," "," ","16.665328467153348","500","250","psychophysics","23","67565","0.0-23.0","614e2446523bb49af662fb62","6213e4c001590d283e14a34c","1","0","30","50","","",""
"2038","key"," "," ","16.66746721311473","500","250","psychophysics","24","69605","0.0-24.0","614e2446523bb49af662fb62","6213e4c001590d283e14a34c","1","5","23","28","","",""
"2313","key"," "," ","16.6662536231884","500","250","psychophysics","25","71927","0.0-25.0","614e2446523bb49af662fb62","6213e4c001590d283e14a34c","1","0","27","43","","",""
"2506","key"," "," ","16.665872483221552","500","250","psychophysics","26","74435","0.0-26.0","614e2446523bb49af662fb62","6213e4c001590d283e14a34c","1","5","22","26","","",""
"3098","key"," "," ","16.667708108108098","500","250","psychophysics","27","77536","0.0-27.0","614e2446523bb49af662fb62","6213e4c001590d283e14a34c","1","0","35","47","","",""
"2586","key"," "," ","16.66709677419351","500","250","psychophysics","28","80125","0.0-28.0","614e2446523bb49af662fb62","6213e4c001590d283e14a34c","1","5","47","47","","",""
"3677","key"," "," ","16.666040909090885","500","250","psychophysics","29","83804","0.0-29.0","614e2446523bb49af662fb62","6213e4c001590d283e14a34c","1","0","56","73","","",""
"2095","key"," "," ","16.66597580645166","500","250","psychophysics","30","85901","0.0-30.0","614e2446523bb49af662fb62","6213e4c001590d283e14a34c","1","5","31","39","","",""
"3264","key"," "," ","16.66575510204088","500","250","psychophysics","31","89170","0.0-31.0","614e2446523bb49af662fb62","6213e4c001590d283e14a34c","1","0","45","64","","",""
"1909","key"," "," ","16.66673451327434","500","250","psychophysics","32","91080","0.0-32.0","614e2446523bb49af662fb62","6213e4c001590d283e14a34c","1","5","32","33","","",""
"3337","key"," "," ","16.666205000000044","500","250","psychophysics","33","94420","0.0-33.0","614e2446523bb49af662fb62","6213e4c001590d283e14a34c","1","0","52","77","","",""
"2498","key"," "," ","16.664973154362453","500","250","psychophysics","34","96921","0.0-34.0","614e2446523bb49af662fb62","6213e4c001590d283e14a34c","1","5","55","60","","",""
"3427","key"," "," ","16.66644607843138","500","250","psychophysics","35","100351","0.0-35.0","614e2446523bb49af662fb62","6213e4c001590d283e14a34c","1","0","55","83","","",""
"2205","key"," "," ","16.667219696969727","500","250","psychophysics","36","102558","0.0-36.0","614e2446523bb49af662fb62","6213e4c001590d283e14a34c","1","5","43","45","","",""
"1387","key"," "," ","16.66252439024396","500","250","psychophysics","37","103947","0.0-37.0","614e2446523bb49af662fb62","6213e4c001590d283e14a34c","","","","","","",""
"2955","key"," "," ","16.66688700564966","500","250","psychophysics","38","106904","0.0-38.0","614e2446523bb49af662fb62","6213e4c001590d283e14a34c","","","","","","",""
"830","key"," "," ","16.66526530612241","500","250","psychophysics","39","107736","0.0-39.0","614e2446523bb49af662fb62","6213e4c001590d283e14a34c","","","","","","",""
"3792","key"," "," ","16.665495575221247","500","250","psychophysics","40","111531","0.0-40.0","614e2446523bb49af662fb62","6213e4c001590d283e14a34c","2","0","57","86","","",""
"1074","key"," "," ","16.668562500000007","500","250","psychophysics","41","112607","0.0-41.0","614e2446523bb49af662fb62","6213e4c001590d283e14a34c","","","","","","",""
"3511","key"," "," ","16.666680952380936","500","250","psychophysics","42","116121","0.0-42.0","614e2446523bb49af662fb62","6213e4c001590d283e14a34c","2","0","40","54","","",""
"713","key"," "," ","16.66245238095213","500","250","psychophysics","43","116837","0.0-43.0","614e2446523bb49af662fb62","6213e4c001590d283e14a34c","","","","","","",""
"2819","key"," "," ","16.666369047619032","500","250","psychophysics","44","119658","0.0-44.0","614e2446523bb49af662fb62","6213e4c001590d283e14a34c","2","0","53","58","","",""
"678","key"," "," ","16.666575000000012","500","250","psychophysics","45","120338","0.0-45.0","614e2446523bb49af662fb62","6213e4c001590d283e14a34c","","","","","","",""
"1929","key"," "," ","16.66486956521732","500","250","psychophysics","46","122269","0.0-46.0","614e2446523bb49af662fb62","6213e4c001590d283e14a34c","2","0","20","38","","",""
"622","key"," "," ","16.669444444444608","500","250","psychophysics","47","122895","0.0-47.0","614e2446523bb49af662fb62","6213e4c001590d283e14a34c","","","","","","",""
"1797","key"," "," ","16.667327102803828","500","250","psychophysics","48","124693","0.0-48.0","614e2446523bb49af662fb62","6213e4c001590d283e14a34c","2","0","20","26","","",""
"569","key"," "," ","16.664575757575662","500","250","psychophysics","49","125264","0.0-49.0","614e2446523bb49af662fb62","6213e4c001590d283e14a34c","","","","","","",""
"2572","key"," "," ","16.66806493506492","500","250","psychophysics","50","127838","0.0-50.0","614e2446523bb49af662fb62","6213e4c001590d283e14a34c","2","0","54","60","","",""
"633","key"," "," ","16.66627027027032","500","250","psychophysics","51","128472","0.0-51.0","614e2446523bb49af662fb62","6213e4c001590d283e14a34c","","","","","","",""
"2780","key"," "," ","16.665704819277096","500","250","psychophysics","52","131254","0.0-52.0","614e2446523bb49af662fb62","6213e4c001590d283e14a34c","2","0","57","68","","",""
"595","key"," "," ","16.661800000000014","500","250","psychophysics","53","131852","0.0-53.0","614e2446523bb49af662fb62","6213e4c001590d283e14a34c","","","","","","",""
"2113","key"," "," ","16.665285714285723","500","250","psychophysics","54","133968","0.0-54.0","614e2446523bb49af662fb62","6213e4c001590d283e14a34c","2","0","35","41","","",""
"660","key"," "," ","16.67186842105232","500","250","psychophysics","55","134630","0.0-55.0","614e2446523bb49af662fb62","6213e4c001590d283e14a34c","","","","","","",""
"1623","key"," "," ","16.665659793814616","500","250","psychophysics","56","136257","0.0-56.0","614e2446523bb49af662fb62","6213e4c001590d283e14a34c","2","0","21","33","","",""
"662","key"," "," ","16.669384615384608","500","250","psychophysics","57","136922","0.0-57.0","614e2446523bb49af662fb62","6213e4c001590d283e14a34c","","","","","","",""
"672","key"," "," ","16.65951282051332","500","250","psychophysics","58","137596","0.0-58.0","614e2446523bb49af662fb62","6213e4c001590d283e14a34c","2","0","46","10","","",""
"788","key"," "," ","16.661063829787384","500","250","psychophysics","59","138387","0.0-59.0","614e2446523bb49af662fb62","6213e4c001590d283e14a34c","","","","","","",""
"2860","key"," "," ","16.665280701754423","500","250","psychophysics","60","141250","0.0-60.0","614e2446523bb49af662fb62","6213e4c001590d283e14a34c","2","0","52","67","","",""
"658","key"," "," ","16.662552631578844","500","250","psychophysics","61","141910","0.0-61.0","614e2446523bb49af662fb62","6213e4c001590d283e14a34c","","","","","","",""
"2405","key"," "," ","16.666409722222348","500","250","psychophysics","62","144317","0.0-62.0","614e2446523bb49af662fb62","6213e4c001590d283e14a34c","2","0","43","45","","",""
"676","key"," "," ","16.665641025640817","500","250","psychophysics","63","144996","0.0-63.0","614e2446523bb49af662fb62","6213e4c001590d283e14a34c","","","","","","",""
"2830","key"," "," ","16.667195266272152","500","250","psychophysics","64","147828","0.0-64.0","614e2446523bb49af662fb62","6213e4c001590d283e14a34c","2","0","55","63","","",""
"610","key"," "," ","16.670333333332866","500","250","psychophysics","65","148440","0.0-65.0","614e2446523bb49af662fb62","6213e4c001590d283e14a34c","","","","","","",""
"2137","key"," "," ","16.665732283464642","500","250","psychophysics","66","150579","0.0-66.0","614e2446523bb49af662fb62","6213e4c001590d283e14a34c","2","0","33","47","","",""
"452","key"," "," ","16.666814814815385","500","250","psychophysics","67","151034","0.0-67.0","614e2446523bb49af662fb62","6213e4c001590d283e14a34c","","","","","","",""
"1663","key"," "," ","16.66584848484843","500","250","psychophysics","68","152700","0.0-68.0","614e2446523bb49af662fb62","6213e4c001590d283e14a34c","2","0","37","32","","",""
"552","key"," "," ","16.664874999999483","500","250","psychophysics","69","153254","0.0-69.0","614e2446523bb49af662fb62","6213e4c001590d283e14a34c","","","","","","",""
"1380","key"," "," ","16.665597560975584","500","250","psychophysics","70","154636","0.0-70.0","614e2446523bb49af662fb62","6213e4c001590d283e14a34c","","","","","","",""
"717","key"," "," ","16.662904761904862","500","250","psychophysics","71","155355","0.0-71.0","614e2446523bb49af662fb62","6213e4c001590d283e14a34c","","","","","","",""
"1560","key"," "," ","16.66612903225819","500","250","psychophysics","72","156918","0.0-72.0","614e2446523bb49af662fb62","6213e4c001590d283e14a34c","3","5","27","25","","",""
"2513","key"," "," ","16.66561333333336","500","250","psychophysics","73","159434","0.0-73.0","614e2446523bb49af662fb62","6213e4c001590d283e14a34c","3","0","44","50","","",""
"2014","key"," "," ","16.666133333333224","500","250","psychophysics","74","161450","0.0-74.0","614e2446523bb49af662fb62","6213e4c001590d283e14a34c","3","5","44","32","","",""
"1938","key"," "," ","16.667886956521745","500","250","psychophysics","75","163390","0.0-75.0","614e2446523bb49af662fb62","6213e4c001590d283e14a34c","3","0","23","37","","",""
"1790","key"," "," ","16.664925233644833","500","250","psychophysics","76","165182","0.0-76.0","614e2446523bb49af662fb62","6213e4c001590d283e14a34c","3","5","22","22","","",""
"2382","key"," "," ","16.666183098591535","500","250","psychophysics","77","167567","0.0-77.0","614e2446523bb49af662fb62","6213e4c001590d283e14a34c","3","0","43","49","","",""
"2164","key"," "," ","16.665372093023358","500","250","psychophysics","78","169732","0.0-78.0","614e2446523bb49af662fb62","6213e4c001590d283e14a34c","3","5","47","35","","",""
"2132","key"," "," ","16.664708661417365","500","250","psychophysics","79","171866","0.0-79.0","614e2446523bb49af662fb62","6213e4c001590d283e14a34c","3","0","48","50","","",""
"2145","key"," "," ","16.66460629921259","500","250","psychophysics","80","174013","0.0-80.0","614e2446523bb49af662fb62","6213e4c001590d283e14a34c","3","5","58","40","","",""
"1860","key"," "," ","16.66706306306301","500","250","psychophysics","81","175876","0.0-81.0","614e2446523bb49af662fb62","6213e4c001590d283e14a34c","3","0","28","39","","",""
"2510","key"," "," ","16.666206666666742","500","250","psychophysics","82","178389","0.0-82.0","614e2446523bb49af662fb62","6213e4c001590d283e14a34c","3","5","56","32","","",""
"2190","key"," "," ","16.66563358778629","500","250","psychophysics","83","180582","0.0-83.0","614e2446523bb49af662fb62","6213e4c001590d283e14a34c","3","0","43","49","","",""
"1718","key"," "," ","16.665294117646923","500","250","psychophysics","84","182302","0.0-84.0","614e2446523bb49af662fb62","6213e4c001590d283e14a34c","3","5","40","30","","",""
"1779","key"," "," ","16.66610377358508","500","250","psychophysics","85","184083","0.0-85.0","614e2446523bb49af662fb62","6213e4c001590d283e14a34c","3","0","35","36","","",""
"1735","key"," "," ","16.665174757281616","500","250","psychophysics","86","185820","0.0-86.0","614e2446523bb49af662fb62","6213e4c001590d283e14a34c","3","5","58","35","","",""
"1796","key"," "," ","16.66688785046746","500","250","psychophysics","87","187618","0.0-87.0","614e2446523bb49af662fb62","6213e4c001590d283e14a34c","3","0","29","37","","",""
"1546","key"," "," ","16.66708695652177","500","250","psychophysics","88","189166","0.0-88.0","614e2446523bb49af662fb62","6213e4c001590d283e14a34c","3","5","41","29","","",""
"1975","key"," "," ","16.66599145299147","500","250","psychophysics","89","191143","0.0-89.0","614e2446523bb49af662fb62","6213e4c001590d283e14a34c","3","0","50","35","","",""
"1708","key"," "," ","16.666107843137247","500","250","psychophysics","90","192853","0.0-90.0","614e2446523bb49af662fb62","6213e4c001590d283e14a34c","3","5","46","34","","",""
"1743","key"," "," ","16.665298076922998","500","250","psychophysics","91","194599","0.0-91.0","614e2446523bb49af662fb62","6213e4c001590d283e14a34c","3","0","21","36","","",""
"1196","key"," "," ","16.66366197183092","500","250","psychophysics","92","195798","0.0-92.0","614e2446523bb49af662fb62","6213e4c001590d283e14a34c","","","","","","",""
"25503","","","v","","","","html-keyboard-response","93","221302","0.0-93.0","614e2446523bb49af662fb62","6213e4c001590d283e14a34c","","","","","<p> In this part of the experiment, we are going present digits 1, 2, 3, 4, 6, 7, 8, and 9.  Notice that 5 is missing.  Your job is to say whether the presented digit is less than or greater than 5.  For example, 3 is less than 5 and 7 is greater than 5.  If the digit is less than 5, press the v key; if it is greater than 5, press the n key. We are going to do 200 of these in total, but only 50 righ now. They go real fast.</p>  <br><br>  Ready? (press v or n)","",""
"2892","key","n","n","16.671109195402387","500","250","psychophysics","94","224202","0.0-94.0","614e2446523bb49af662fb62","6213e4c001590d283e14a34c","4","","","","","1","7"
"null","","","null","","","","html-keyboard-response","95","224705","0.0-95.0","614e2446523bb49af662fb62","6213e4c001590d283e14a34c","","","","","<p style=""color:darkgreen;font-size:24px;"">Correct :)</p>","",""
"2530","key","v","v","16.66634210526325","500","250","psychophysics","96","227240","0.0-96.0","614e2446523bb49af662fb62","6213e4c001590d283e14a34c","4","","","","","1","1"
"null","","","null","","","","html-keyboard-response","97","227743","0.0-97.0","614e2446523bb49af662fb62","6213e4c001590d283e14a34c","","","","","<p style=""color:darkgreen;font-size:24px;"">Correct :)</p>","",""
"2412","key","v","v","16.66502758620692","500","250","psychophysics","98","230159","0.0-98.0","614e2446523bb49af662fb62","6213e4c001590d283e14a34c","4","","","","","1","3"
"null","","","null","","","","html-keyboard-response","99","230662","0.0-99.0","614e2446523bb49af662fb62","6213e4c001590d283e14a34c","","","","","<p style=""color:darkgreen;font-size:24px;"">Correct :)</p>","",""
"2398","key","v","v","16.666499999999967","500","250","psychophysics","100","233066","0.0-100.0","614e2446523bb49af662fb62","6213e4c001590d283e14a34c","4","","","","","1","1"
"null","","","null","","","","html-keyboard-response","101","233567","0.0-101.0","614e2446523bb49af662fb62","6213e4c001590d283e14a34c","","","","","<p style=""color:darkgreen;font-size:24px;"">Correct :)</p>","",""
"2434","key","n","n","16.66595890410966","500","250","psychophysics","102","236003","0.0-102.0","614e2446523bb49af662fb62","6213e4c001590d283e14a34c","4","","","","","1","7"
"null","","","null","","","","html-keyboard-response","103","236507","0.0-103.0","614e2446523bb49af662fb62","6213e4c001590d283e14a34c","","","","","<p style=""color:darkgreen;font-size:24px;"">Correct :)</p>","",""
"2544","key","n","n","16.66536601307194","500","250","psychophysics","104","239056","0.0-104.0","614e2446523bb49af662fb62","6213e4c001590d283e14a34c","4","","","","","1","9"
"null","","","null","","","","html-keyboard-response","105","239558","0.0-105.0","614e2446523bb49af662fb62","6213e4c001590d283e14a34c","","","","","<p style=""color:darkgreen;font-size:24px;"">Correct :)</p>","",""
"2661","key","v","v","16.665218749999987","500","250","psychophysics","106","242221","0.0-106.0","614e2446523bb49af662fb62","6213e4c001590d283e14a34c","4","","","","","1","2"
"null","","","null","","","","html-keyboard-response","107","242722","0.0-107.0","614e2446523bb49af662fb62","6213e4c001590d283e14a34c","","","","","<p style=""color:darkgreen;font-size:24px;"">Correct :)</p>","",""
"2720","key","n","n","16.667048780487853","500","250","psychophysics","108","245447","0.0-108.0","614e2446523bb49af662fb62","6213e4c001590d283e14a34c","4","","","","","1","8"
"null","","","null","","","","html-keyboard-response","109","245949","0.0-109.0","614e2446523bb49af662fb62","6213e4c001590d283e14a34c","","","","","<p style=""color:darkgreen;font-size:24px;"">Correct :)</p>","",""
"2611","key","v","v","16.66606369426761","500","250","psychophysics","110","248565","0.0-110.0","614e2446523bb49af662fb62","6213e4c001590d283e14a34c","4","","","","","1","4"
"null","","","null","","","","html-keyboard-response","111","249066","0.0-111.0","614e2446523bb49af662fb62","6213e4c001590d283e14a34c","","","","","<p style=""color:darkgreen;font-size:24px;"">Correct :)</p>","",""
"2507","key","n","n","16.66553642384096","500","250","psychophysics","112","251579","0.0-112.0","614e2446523bb49af662fb62","6213e4c001590d283e14a34c","4","","","","","1","6"
"null","","","null","","","","html-keyboard-response","113","252081","0.0-113.0","614e2446523bb49af662fb62","6213e4c001590d283e14a34c","","","","","<p style=""color:darkgreen;font-size:24px;"">Correct :)</p>","",""
"2566","key","v","v","16.66537012987016","500","250","psychophysics","114","254651","0.0-114.0","614e2446523bb49af662fb62","6213e4c001590d283e14a34c","4","","","","","1","4"
"null","","","null","","","","html-keyboard-response","115","255153","0.0-115.0","614e2446523bb49af662fb62","6213e4c001590d283e14a34c","","","","","<p style=""color:darkgreen;font-size:24px;"">Correct :)</p>","",""
"2639","key","n","n","16.66662264150954","500","250","psychophysics","116","257797","0.0-116.0","614e2446523bb49af662fb62","6213e4c001590d283e14a34c","4","","","","","1","7"
"null","","","null","","","","html-keyboard-response","117","258299","0.0-117.0","614e2446523bb49af662fb62","6213e4c001590d283e14a34c","","","","","<p style=""color:darkgreen;font-size:24px;"">Correct :)</p>","",""
"2509","key","v","v","16.66607947019873","500","250","psychophysics","118","260813","0.0-118.0","614e2446523bb49af662fb62","6213e4c001590d283e14a34c","4","","","","","1","4"
"null","","","null","","","","html-keyboard-response","119","261315","0.0-119.0","614e2446523bb49af662fb62","6213e4c001590d283e14a34c","","","","","<p style=""color:darkgreen;font-size:24px;"">Correct :)</p>","",""
"2437","key","n","n","16.66605479452059","500","250","psychophysics","120","263758","0.0-120.0","614e2446523bb49af662fb62","6213e4c001590d283e14a34c","4","","","","","1","7"
"null","","","null","","","","html-keyboard-response","121","264259","0.0-121.0","614e2446523bb49af662fb62","6213e4c001590d283e14a34c","","","","","<p style=""color:darkgreen;font-size:24px;"">Correct :)</p>","",""
"2435","key","n","n","16.780965753424713","500","250","psychophysics","122","266697","0.0-122.0","614e2446523bb49af662fb62","6213e4c001590d283e14a34c","4","","","","","1","8"
"null","","","null","","","","html-keyboard-response","123","267198","0.0-123.0","614e2446523bb49af662fb62","6213e4c001590d283e14a34c","","","","","<p style=""color:darkgreen;font-size:24px;"">Correct :)</p>","",""
"2399","key","n","n","16.6666111111113","500","250","psychophysics","124","269600","0.0-124.0","614e2446523bb49af662fb62","6213e4c001590d283e14a34c","4","","","","","1","8"
"null","","","null","","","","html-keyboard-response","125","270101","0.0-125.0","614e2446523bb49af662fb62","6213e4c001590d283e14a34c","","","","","<p style=""color:darkgreen;font-size:24px;"">Correct :)</p>","",""
"2403","key","n","n","16.6661111111114","500","250","psychophysics","126","272508","0.0-126.0","614e2446523bb49af662fb62","6213e4c001590d283e14a34c","4","","","","","1","7"
"null","","","null","","","","html-keyboard-response","127","273022","0.0-127.0","614e2446523bb49af662fb62","6213e4c001590d283e14a34c","","","","","<p style=""color:darkgreen;font-size:24px;"">Correct :)</p>","",""
"2385","key","n","n","16.665541666666588","500","250","psychophysics","128","275413","0.0-128.0","614e2446523bb49af662fb62","6213e4c001590d283e14a34c","4","","","","","1","7"
"null","","","null","","","","html-keyboard-response","129","275916","0.0-129.0","614e2446523bb49af662fb62","6213e4c001590d283e14a34c","","","","","<p style=""color:darkgreen;font-size:24px;"">Correct :)</p>","",""
"2391","key","n","n","16.667124999999942","500","250","psychophysics","130","278313","0.0-130.0","614e2446523bb49af662fb62","6213e4c001590d283e14a34c","4","","","","","1","9"
"null","","","null","","","","html-keyboard-response","131","278815","0.0-131.0","614e2446523bb49af662fb62","6213e4c001590d283e14a34c","","","","","<p style=""color:darkgreen;font-size:24px;"">Correct :)</p>","",""
"2509","key","v","v","16.66487417218548","500","250","psychophysics","132","281329","0.0-132.0","614e2446523bb49af662fb62","6213e4c001590d283e14a34c","4","","","","","1","3"
"null","","","null","","","","html-keyboard-response","133","281831","0.0-133.0","614e2446523bb49af662fb62","6213e4c001590d283e14a34c","","","","","<p style=""color:darkgreen;font-size:24px;"">Correct :)</p>","",""
"2458","key","v","v","16.664601351351184","500","250","psychophysics","134","284294","0.0-134.0","614e2446523bb49af662fb62","6213e4c001590d283e14a34c","4","","","","","1","3"
"null","","","null","","","","html-keyboard-response","135","284797","0.0-135.0","614e2446523bb49af662fb62","6213e4c001590d283e14a34c","","","","","<p style=""color:darkgreen;font-size:24px;"">Correct :)</p>","",""
"2593","key","v","v","16.665160256409973","500","250","psychophysics","136","287394","0.0-136.0","614e2446523bb49af662fb62","6213e4c001590d283e14a34c","4","","","","","1","2"
"null","","","null","","","","html-keyboard-response","137","287898","0.0-137.0","614e2446523bb49af662fb62","6213e4c001590d283e14a34c","","","","","<p style=""color:darkgreen;font-size:24px;"">Correct :)</p>","",""
"2399","key","n","n","16.66690972222245","500","250","psychophysics","138","290304","0.0-138.0","614e2446523bb49af662fb62","6213e4c001590d283e14a34c","4","","","","","1","6"
"null","","","null","","","","html-keyboard-response","139","290807","0.0-139.0","614e2446523bb49af662fb62","6213e4c001590d283e14a34c","","","","","<p style=""color:darkgreen;font-size:24px;"">Correct :)</p>","",""
"2464","key","n","n","16.77795270270262","500","250","psychophysics","140","293277","0.0-140.0","614e2446523bb49af662fb62","6213e4c001590d283e14a34c","4","","","","","1","8"
"null","","","null","","","","html-keyboard-response","141","293779","0.0-141.0","614e2446523bb49af662fb62","6213e4c001590d283e14a34c","","","","","<p style=""color:darkgreen;font-size:24px;"">Correct :)</p>","",""
"2423","key","n","n","16.66677241379291","500","250","psychophysics","142","296207","0.0-142.0","614e2446523bb49af662fb62","6213e4c001590d283e14a34c","4","","","","","1","6"
"null","","","null","","","","html-keyboard-response","143","296708","0.0-143.0","614e2446523bb49af662fb62","6213e4c001590d283e14a34c","","","","","<p style=""color:darkgreen;font-size:24px;"">Correct :)</p>","",""
"2474","key","v","v","16.66663513513482","500","250","psychophysics","144","299187","0.0-144.0","614e2446523bb49af662fb62","6213e4c001590d283e14a34c","4","","","","","1","3"
"null","","","null","","","","html-keyboard-response","145","299689","0.0-145.0","614e2446523bb49af662fb62","6213e4c001590d283e14a34c","","","","","<p style=""color:darkgreen;font-size:24px;"">Correct :)</p>","",""
"2467","key","v","v","16.665006711409465","500","250","psychophysics","146","302161","0.0-146.0","614e2446523bb49af662fb62","6213e4c001590d283e14a34c","4","","","","","1","4"
"null","","","null","","","","html-keyboard-response","147","302662","0.0-147.0","614e2446523bb49af662fb62","6213e4c001590d283e14a34c","","","","","<p style=""color:darkgreen;font-size:24px;"">Correct :)</p>","",""
"2443","key","n","n","16.664972789115573","500","250","psychophysics","148","305109","0.0-148.0","614e2446523bb49af662fb62","6213e4c001590d283e14a34c","4","","","","","1","6"
"null","","","null","","","","html-keyboard-response","149","305612","0.0-149.0","614e2446523bb49af662fb62","6213e4c001590d283e14a34c","","","","","<p style=""color:darkgreen;font-size:24px;"">Correct :)</p>","",""
"2569","key","v","v","16.66595454545474","500","250","psychophysics","150","308185","0.0-150.0","614e2446523bb49af662fb62","6213e4c001590d283e14a34c","4","","","","","1","3"
"null","","","null","","","","html-keyboard-response","151","308688","0.0-151.0","614e2446523bb49af662fb62","6213e4c001590d283e14a34c","","","","","<p style=""color:darkgreen;font-size:24px;"">Correct :)</p>","",""
"2460","key","v","v","16.667425675675542","500","250","psychophysics","152","311154","0.0-152.0","614e2446523bb49af662fb62","6213e4c001590d283e14a34c","4","","","","","1","1"
"null","","","null","","","","html-keyboard-response","153","311655","0.0-153.0","614e2446523bb49af662fb62","6213e4c001590d283e14a34c","","","","","<p style=""color:darkgreen;font-size:24px;"">Correct :)</p>","",""
"2490","key","n","n","16.666533333333597","500","250","psychophysics","154","314150","0.0-154.0","614e2446523bb49af662fb62","6213e4c001590d283e14a34c","4","","","","","1","9"
"null","","","null","","","","html-keyboard-response","155","314651","0.0-155.0","614e2446523bb49af662fb62","6213e4c001590d283e14a34c","","","","","<p style=""color:darkgreen;font-size:24px;"">Correct :)</p>","",""
"2495","key","v","v","16.666166666666978","500","250","psychophysics","156","317148","0.0-156.0","614e2446523bb49af662fb62","6213e4c001590d283e14a34c","4","","","","","1","3"
"null","","","null","","","","html-keyboard-response","157","317650","0.0-157.0","614e2446523bb49af662fb62","6213e4c001590d283e14a34c","","","","","<p style=""color:darkgreen;font-size:24px;"">Correct :)</p>","",""
"2510","key","n","n","16.666245033112602","500","250","psychophysics","158","320165","0.0-158.0","614e2446523bb49af662fb62","6213e4c001590d283e14a34c","4","","","","","1","8"
"null","","","null","","","","html-keyboard-response","159","320669","0.0-159.0","614e2446523bb49af662fb62","6213e4c001590d283e14a34c","","","","","<p style=""color:darkgreen;font-size:24px;"">Correct :)</p>","",""
"2527","key","n","n","16.663875000000285","500","250","psychophysics","160","323199","0.0-160.0","614e2446523bb49af662fb62","6213e4c001590d283e14a34c","4","","","","","1","6"
"null","","","null","","","","html-keyboard-response","161","323700","0.0-161.0","614e2446523bb49af662fb62","6213e4c001590d283e14a34c","","","","","<p style=""color:darkgreen;font-size:24px;"">Correct :)</p>","",""
"2495","key","v","v","16.66681999999991","500","250","psychophysics","162","326199","0.0-162.0","614e2446523bb49af662fb62","6213e4c001590d283e14a34c","4","","","","","1","1"
"null","","","null","","","","html-keyboard-response","163","326700","0.0-163.0","614e2446523bb49af662fb62","6213e4c001590d283e14a34c","","","","","<p style=""color:darkgreen;font-size:24px;"">Correct :)</p>","",""
"2548","key","v","v","16.665084967320464","500","250","psychophysics","164","329254","0.0-164.0","614e2446523bb49af662fb62","6213e4c001590d283e14a34c","4","","","","","1","4"
"null","","","null","","","","html-keyboard-response","165","329755","0.0-165.0","614e2446523bb49af662fb62","6213e4c001590d283e14a34c","","","","","<p style=""color:darkgreen;font-size:24px;"">Correct :)</p>","",""
"2454","key","v","v","16.666290540540373","500","250","psychophysics","166","332215","0.0-166.0","614e2446523bb49af662fb62","6213e4c001590d283e14a34c","4","","","","","1","3"
"null","","","null","","","","html-keyboard-response","167","332716","0.0-167.0","614e2446523bb49af662fb62","6213e4c001590d283e14a34c","","","","","<p style=""color:darkgreen;font-size:24px;"">Correct :)</p>","",""
"2441","key","n","n","16.66477551020414","500","250","psychophysics","168","335162","0.0-168.0","614e2446523bb49af662fb62","6213e4c001590d283e14a34c","4","","","","","1","8"
"null","","","null","","","","html-keyboard-response","169","335664","0.0-169.0","614e2446523bb49af662fb62","6213e4c001590d283e14a34c","","","","","<p style=""color:darkgreen;font-size:24px;"">Correct :)</p>","",""
"2547","key","n","n","16.66662745098043","500","250","psychophysics","170","338215","0.0-170.0","614e2446523bb49af662fb62","6213e4c001590d283e14a34c","4","","","","","1","7"
"null","","","null","","","","html-keyboard-response","171","338717","0.0-171.0","614e2446523bb49af662fb62","6213e4c001590d283e14a34c","","","","","<p style=""color:darkgreen;font-size:24px;"">Correct :)</p>","",""
"2439","key","n","n","16.66630612244888","500","250","psychophysics","172","341161","0.0-172.0","614e2446523bb49af662fb62","6213e4c001590d283e14a34c","4","","","","","1","7"
"null","","","null","","","","html-keyboard-response","173","341664","0.0-173.0","614e2446523bb49af662fb62","6213e4c001590d283e14a34c","","","","","<p style=""color:darkgreen;font-size:24px;"">Correct :)</p>","",""
"2480","key","v","v","16.665818791946275","500","250","psychophysics","174","344148","0.0-174.0","614e2446523bb49af662fb62","6213e4c001590d283e14a34c","4","","","","","1","1"
"null","","","null","","","","html-keyboard-response","175","344651","0.0-175.0","614e2446523bb49af662fb62","6213e4c001590d283e14a34c","","","","","<p style=""color:darkgreen;font-size:24px;"">Correct :)</p>","",""
"2494","key","v","v","16.667226666666878","500","250","psychophysics","176","347148","0.0-176.0","614e2446523bb49af662fb62","6213e4c001590d283e14a34c","4","","","","","1","3"
"null","","","null","","","","html-keyboard-response","177","347650","0.0-177.0","614e2446523bb49af662fb62","6213e4c001590d283e14a34c","","","","","<p style=""color:darkgreen;font-size:24px;"">Correct :)</p>","",""
"2488","key","v","v","16.66486666666693","500","250","psychophysics","178","350143","0.0-178.0","614e2446523bb49af662fb62","6213e4c001590d283e14a34c","4","","","","","1","4"
"null","","","null","","","","html-keyboard-response","179","350646","0.0-179.0","614e2446523bb49af662fb62","6213e4c001590d283e14a34c","","","","","<p style=""color:darkgreen;font-size:24px;"">Correct :)</p>","",""
"2538","key","n","n","16.665967105263245","500","250","psychophysics","180","353187","0.0-180.0","614e2446523bb49af662fb62","6213e4c001590d283e14a34c","4","","","","","1","7"
"null","","","null","","","","html-keyboard-response","181","353689","0.0-181.0","614e2446523bb49af662fb62","6213e4c001590d283e14a34c","","","","","<p style=""color:darkgreen;font-size:24px;"">Correct :)</p>","",""
"2568","key","v","v","16.666759740259625","500","250","psychophysics","182","356260","0.0-182.0","614e2446523bb49af662fb62","6213e4c001590d283e14a34c","4","","","","","1","2"
"null","","","null","","","","html-keyboard-response","183","356762","0.0-183.0","614e2446523bb49af662fb62","6213e4c001590d283e14a34c","","","","","<p style=""color:darkgreen;font-size:24px;"">Correct :)</p>","",""
"2460","key","n","n","16.66741891891886","500","250","psychophysics","184","359225","0.0-184.0","614e2446523bb49af662fb62","6213e4c001590d283e14a34c","4","","","","","1","9"
"null","","","null","","","","html-keyboard-response","185","359728","0.0-185.0","614e2446523bb49af662fb62","6213e4c001590d283e14a34c","","","","","<p style=""color:darkgreen;font-size:24px;"">Correct :)</p>","",""
"2484","key","v","v","16.665516778523564","500","250","psychophysics","186","362215","0.0-186.0","614e2446523bb49af662fb62","6213e4c001590d283e14a34c","4","","","","","1","2"
"null","","","null","","","","html-keyboard-response","187","362716","0.0-187.0","614e2446523bb49af662fb62","6213e4c001590d283e14a34c","","","","","<p style=""color:darkgreen;font-size:24px;"">Correct :)</p>","",""
"2471","key","v","v","16.666328859060766","500","250","psychophysics","188","365194","0.0-188.0","614e2446523bb49af662fb62","6213e4c001590d283e14a34c","4","","","","","1","1"
"null","","","null","","","","html-keyboard-response","189","365696","0.0-189.0","614e2446523bb49af662fb62","6213e4c001590d283e14a34c","","","","","<p style=""color:darkgreen;font-size:24px;"">Correct :)</p>","",""
"2413","key","v","v","16.663931506849373","500","250","psychophysics","190","368123","0.0-190.0","614e2446523bb49af662fb62","6213e4c001590d283e14a34c","4","","","","","1","3"
"null","","","null","","","","html-keyboard-response","191","368624","0.0-191.0","614e2446523bb49af662fb62","6213e4c001590d283e14a34c","","","","","<p style=""color:darkgreen;font-size:24px;"">Correct :)</p>","",""
"2420","key","v","v","16.663889655172586","500","250","psychophysics","192","371049","0.0-192.0","614e2446523bb49af662fb62","6213e4c001590d283e14a34c","4","","","","","1","4"
"null","","","null","","","","html-keyboard-response","193","371550","0.0-193.0","614e2446523bb49af662fb62","6213e4c001590d283e14a34c","","","","","<p style=""color:darkgreen;font-size:24px;"">Correct :)</p>","",""
"9571","","","v","","","","html-keyboard-response","194","381122","0.0-194.0","614e2446523bb49af662fb62","6213e4c001590d283e14a34c","","","","","<p> Ok, now we are going present the same digits as before.  Your job is to say whether the digit is even or odd  If the digit is odd, press to v key; if it is even, press the n key. We are going to do 50 of these.  </p>  <br><br>  Ready? (press v or n)","",""
"2654","key","n","n","16.67005660377352","500","250","psychophysics","195","383780","0.0-195.0","614e2446523bb49af662fb62","6213e4c001590d283e14a34c","5","","","","","0","8"
"null","","","null","","","","html-keyboard-response","196","384282","0.0-196.0","614e2446523bb49af662fb62","6213e4c001590d283e14a34c","","","","","<p style=""color:darkgreen;font-size:24px;"">Correct :)</p>","",""
"2538","key","n","n","16.775078947368264","500","250","psychophysics","197","386825","0.0-197.0","614e2446523bb49af662fb62","6213e4c001590d283e14a34c","5","","","","","0","9"
"null","","","null","","","","html-keyboard-response","198","387326","0.0-198.0","614e2446523bb49af662fb62","6213e4c001590d283e14a34c","","","","","<p style=""color:red;font-size:24px;"">Error :(</p>","",""
"2711","key","v","v","16.66728220858891","500","250","psychophysics","199","390042","0.0-199.0","614e2446523bb49af662fb62","6213e4c001590d283e14a34c","5","","","","","0","3"
"null","","","null","","","","html-keyboard-response","200","390544","0.0-200.0","614e2446523bb49af662fb62","6213e4c001590d283e14a34c","","","","","<p style=""color:darkgreen;font-size:24px;"">Correct :)</p>","",""
"2900","key","n","n","16.666712643678338","500","250","psychophysics","201","393450","0.0-201.0","614e2446523bb49af662fb62","6213e4c001590d283e14a34c","5","","","","","0","2"
"null","","","null","","","","html-keyboard-response","202","393951","0.0-202.0","614e2446523bb49af662fb62","6213e4c001590d283e14a34c","","","","","<p style=""color:darkgreen;font-size:24px;"">Correct :)</p>","",""
"2527","key","n","n","16.666624999999936","500","250","psychophysics","203","396484","0.0-203.0","614e2446523bb49af662fb62","6213e4c001590d283e14a34c","5","","","","","0","6"
"null","","","null","","","","html-keyboard-response","204","396986","0.0-204.0","614e2446523bb49af662fb62","6213e4c001590d283e14a34c","","","","","<p style=""color:darkgreen;font-size:24px;"">Correct :)</p>","",""
"2552","key","v","v","16.66415789473678","500","250","psychophysics","205","399541","0.0-205.0","614e2446523bb49af662fb62","6213e4c001590d283e14a34c","5","","","","","0","9"
"null","","","null","","","","html-keyboard-response","206","400044","0.0-206.0","614e2446523bb49af662fb62","6213e4c001590d283e14a34c","","","","","<p style=""color:darkgreen;font-size:24px;"">Correct :)</p>","",""
"2600","key","v","v","16.665846153845987","500","250","psychophysics","207","402650","0.0-207.0","614e2446523bb49af662fb62","6213e4c001590d283e14a34c","5","","","","","0","3"
"null","","","null","","","","html-keyboard-response","208","403151","0.0-208.0","614e2446523bb49af662fb62","6213e4c001590d283e14a34c","","","","","<p style=""color:darkgreen;font-size:24px;"">Correct :)</p>","",""
"2516","key","n","n","16.66741059602636","500","250","psychophysics","209","405670","0.0-209.0","614e2446523bb49af662fb62","6213e4c001590d283e14a34c","5","","","","","0","6"
"null","","","null","","","","html-keyboard-response","210","406172","0.0-210.0","614e2446523bb49af662fb62","6213e4c001590d283e14a34c","","","","","<p style=""color:darkgreen;font-size:24px;"">Correct :)</p>","",""
"2496","key","n","n","16.66708000000023","500","250","psychophysics","211","408675","0.0-211.0","614e2446523bb49af662fb62","6213e4c001590d283e14a34c","5","","","","","0","4"
"null","","","null","","","","html-keyboard-response","212","409177","0.0-212.0","614e2446523bb49af662fb62","6213e4c001590d283e14a34c","","","","","<p style=""color:darkgreen;font-size:24px;"">Correct :)</p>","",""
"2477","key","v","v","16.666087248322363","500","250","psychophysics","213","411658","0.0-213.0","614e2446523bb49af662fb62","6213e4c001590d283e14a34c","5","","","","","0","9"
"null","","","null","","","","html-keyboard-response","214","412159","0.0-214.0","614e2446523bb49af662fb62","6213e4c001590d283e14a34c","","","","","<p style=""color:darkgreen;font-size:24px;"">Correct :)</p>","",""
"2626","key","v","v","16.666025316455812","500","250","psychophysics","215","414791","0.0-215.0","614e2446523bb49af662fb62","6213e4c001590d283e14a34c","5","","","","","0","4"
"null","","","null","","","","html-keyboard-response","216","415293","0.0-216.0","614e2446523bb49af662fb62","6213e4c001590d283e14a34c","","","","","<p style=""color:red;font-size:24px;"">Error :(</p>","",""
"3283","key","n","n","16.667131979695668","500","250","psychophysics","217","418581","0.0-217.0","614e2446523bb49af662fb62","6213e4c001590d283e14a34c","5","","","","","0","3"
"null","","","null","","","","html-keyboard-response","218","419083","0.0-218.0","614e2446523bb49af662fb62","6213e4c001590d283e14a34c","","","","","<p style=""color:red;font-size:24px;"">Error :(</p>","",""
"2916","key","n","n","16.666607954545313","500","250","psychophysics","219","422004","0.0-219.0","614e2446523bb49af662fb62","6213e4c001590d283e14a34c","5","","","","","0","2"
"null","","","null","","","","html-keyboard-response","220","422507","0.0-220.0","614e2446523bb49af662fb62","6213e4c001590d283e14a34c","","","","","<p style=""color:darkgreen;font-size:24px;"">Correct :)</p>","",""
"2586","key","v","v","16.66551612903244","500","250","psychophysics","221","425098","0.0-221.0","614e2446523bb49af662fb62","6213e4c001590d283e14a34c","5","","","","","0","3"
"null","","","null","","","","html-keyboard-response","222","425599","0.0-222.0","614e2446523bb49af662fb62","6213e4c001590d283e14a34c","","","","","<p style=""color:darkgreen;font-size:24px;"">Correct :)</p>","",""
"2449","key","n","n","16.665743243243433","500","250","psychophysics","223","428054","0.0-223.0","614e2446523bb49af662fb62","6213e4c001590d283e14a34c","5","","","","","0","2"
"null","","","null","","","","html-keyboard-response","224","428557","0.0-224.0","614e2446523bb49af662fb62","6213e4c001590d283e14a34c","","","","","<p style=""color:darkgreen;font-size:24px;"">Correct :)</p>","",""
"2524","key","v","v","16.665774834436743","500","250","psychophysics","225","431085","0.0-225.0","614e2446523bb49af662fb62","6213e4c001590d283e14a34c","5","","","","","0","7"
"null","","","null","","","","html-keyboard-response","226","431588","0.0-226.0","614e2446523bb49af662fb62","6213e4c001590d283e14a34c","","","","","<p style=""color:darkgreen;font-size:24px;"">Correct :)</p>","",""
"2636","key","n","n","16.666569620253345","500","250","psychophysics","227","434226","0.0-227.0","614e2446523bb49af662fb62","6213e4c001590d283e14a34c","5","","","","","0","6"
"null","","","null","","","","html-keyboard-response","228","434728","0.0-228.0","614e2446523bb49af662fb62","6213e4c001590d283e14a34c","","","","","<p style=""color:darkgreen;font-size:24px;"">Correct :)</p>","",""
"2504","key","v","v","16.66599337748346","500","250","psychophysics","229","437238","0.0-229.0","614e2446523bb49af662fb62","6213e4c001590d283e14a34c","5","","","","","0","3"
"null","","","null","","","","html-keyboard-response","230","437740","0.0-230.0","614e2446523bb49af662fb62","6213e4c001590d283e14a34c","","","","","<p style=""color:darkgreen;font-size:24px;"">Correct :)</p>","",""
"2604","key","v","v","16.665871794871727","500","250","psychophysics","231","440349","0.0-231.0","614e2446523bb49af662fb62","6213e4c001590d283e14a34c","5","","","","","0","9"
"null","","","null","","","","html-keyboard-response","232","440850","0.0-232.0","614e2446523bb49af662fb62","6213e4c001590d283e14a34c","","","","","<p style=""color:darkgreen;font-size:24px;"">Correct :)</p>","",""
"2554","key","n","n","16.6647987012988","500","250","psychophysics","233","443407","0.0-233.0","614e2446523bb49af662fb62","6213e4c001590d283e14a34c","5","","","","","0","8"
"null","","","null","","","","html-keyboard-response","234","443908","0.0-234.0","614e2446523bb49af662fb62","6213e4c001590d283e14a34c","","","","","<p style=""color:darkgreen;font-size:24px;"">Correct :)</p>","",""
"2470","key","v","v","16.667371621621676","500","250","psychophysics","235","446384","0.0-235.0","614e2446523bb49af662fb62","6213e4c001590d283e14a34c","5","","","","","0","7"
"null","","","null","","","","html-keyboard-response","236","446886","0.0-236.0","614e2446523bb49af662fb62","6213e4c001590d283e14a34c","","","","","<p style=""color:darkgreen;font-size:24px;"">Correct :)</p>","",""
"2664","key","n","n","16.666643750000002","500","250","psychophysics","237","449555","0.0-237.0","614e2446523bb49af662fb62","6213e4c001590d283e14a34c","5","","","","","0","2"
"null","","","null","","","","html-keyboard-response","238","450057","0.0-238.0","614e2446523bb49af662fb62","6213e4c001590d283e14a34c","","","","","<p style=""color:darkgreen;font-size:24px;"">Correct :)</p>","",""
"2537","key","v","v","16.667374999999947","500","250","psychophysics","239","452599","0.0-239.0","614e2446523bb49af662fb62","6213e4c001590d283e14a34c","5","","","","","0","1"
"null","","","null","","","","html-keyboard-response","240","453100","0.0-240.0","614e2446523bb49af662fb62","6213e4c001590d283e14a34c","","","","","<p style=""color:darkgreen;font-size:24px;"">Correct :)</p>","",""
"2450","key","n","n","16.77970748299299","500","250","psychophysics","241","455555","0.0-241.0","614e2446523bb49af662fb62","6213e4c001590d283e14a34c","5","","","","","0","6"
"null","","","null","","","","html-keyboard-response","242","456058","0.0-242.0","614e2446523bb49af662fb62","6213e4c001590d283e14a34c","","","","","<p style=""color:darkgreen;font-size:24px;"">Correct :)</p>","",""
"2548","key","v","v","16.66588888888923","500","250","psychophysics","243","458610","0.0-243.0","614e2446523bb49af662fb62","6213e4c001590d283e14a34c","5","","","","","0","9"
"null","","","null","","","","html-keyboard-response","244","459111","0.0-244.0","614e2446523bb49af662fb62","6213e4c001590d283e14a34c","","","","","<p style=""color:darkgreen;font-size:24px;"">Correct :)</p>","",""
"2571","key","n","n","16.666541935483956","500","250","psychophysics","245","461686","0.0-245.0","614e2446523bb49af662fb62","6213e4c001590d283e14a34c","5","","","","","0","4"
"null","","","null","","","","html-keyboard-response","246","462188","0.0-246.0","614e2446523bb49af662fb62","6213e4c001590d283e14a34c","","","","","<p style=""color:darkgreen;font-size:24px;"">Correct :)</p>","",""
"2509","key","n","n","16.666119205298223","500","250","psychophysics","247","464702","0.0-247.0","614e2446523bb49af662fb62","6213e4c001590d283e14a34c","5","","","","","0","2"
"null","","","null","","","","html-keyboard-response","248","465204","0.0-248.0","614e2446523bb49af662fb62","6213e4c001590d283e14a34c","","","","","<p style=""color:darkgreen;font-size:24px;"">Correct :)</p>","",""
"2721","key","n","n","16.66574846625762","500","250","psychophysics","249","467930","0.0-249.0","614e2446523bb49af662fb62","6213e4c001590d283e14a34c","5","","","","","0","4"
"null","","","null","","","","html-keyboard-response","250","468431","0.0-250.0","614e2446523bb49af662fb62","6213e4c001590d283e14a34c","","","","","<p style=""color:darkgreen;font-size:24px;"">Correct :)</p>","",""
"2665","key","v","v","16.665757763975368","500","250","psychophysics","251","471102","0.0-251.0","614e2446523bb49af662fb62","6213e4c001590d283e14a34c","5","","","","","0","7"
"null","","","null","","","","html-keyboard-response","252","471605","0.0-252.0","614e2446523bb49af662fb62","6213e4c001590d283e14a34c","","","","","<p style=""color:darkgreen;font-size:24px;"">Correct :)</p>","",""
"2686","key","v","v","16.66488819875753","500","250","psychophysics","253","474295","0.0-253.0","614e2446523bb49af662fb62","6213e4c001590d283e14a34c","5","","","","","0","3"
"null","","","null","","","","html-keyboard-response","254","474796","0.0-254.0","614e2446523bb49af662fb62","6213e4c001590d283e14a34c","","","","","<p style=""color:darkgreen;font-size:24px;"">Correct :)</p>","",""
"2644","key","v","v","16.66618238993717","500","250","psychophysics","255","477446","0.0-255.0","614e2446523bb49af662fb62","6213e4c001590d283e14a34c","5","","","","","0","7"
"null","","","null","","","","html-keyboard-response","256","477947","0.0-256.0","614e2446523bb49af662fb62","6213e4c001590d283e14a34c","","","","","<p style=""color:darkgreen;font-size:24px;"">Correct :)</p>","",""
"2667","key","v","v","16.666931249999834","500","250","psychophysics","257","480616","0.0-257.0","614e2446523bb49af662fb62","6213e4c001590d283e14a34c","5","","","","","0","3"
"null","","","null","","","","html-keyboard-response","258","481118","0.0-258.0","614e2446523bb49af662fb62","6213e4c001590d283e14a34c","","","","","<p style=""color:darkgreen;font-size:24px;"">Correct :)</p>","",""
"2536","key","v","v","16.665605263157648","500","250","psychophysics","259","483657","0.0-259.0","614e2446523bb49af662fb62","6213e4c001590d283e14a34c","5","","","","","0","3"
"null","","","null","","","","html-keyboard-response","260","484158","0.0-260.0","614e2446523bb49af662fb62","6213e4c001590d283e14a34c","","","","","<p style=""color:darkgreen;font-size:24px;"">Correct :)</p>","",""
"2535","key","v","v","16.665921052631777","500","250","psychophysics","261","486699","0.0-261.0","614e2446523bb49af662fb62","6213e4c001590d283e14a34c","5","","","","","0","7"
"null","","","null","","","","html-keyboard-response","262","487202","0.0-262.0","614e2446523bb49af662fb62","6213e4c001590d283e14a34c","","","","","<p style=""color:darkgreen;font-size:24px;"">Correct :)</p>","",""
"2735","key","n","n","16.665682926829394","500","250","psychophysics","263","489942","0.0-263.0","614e2446523bb49af662fb62","6213e4c001590d283e14a34c","5","","","","","0","8"
"null","","","null","","","","html-keyboard-response","264","490443","0.0-264.0","614e2446523bb49af662fb62","6213e4c001590d283e14a34c","","","","","<p style=""color:darkgreen;font-size:24px;"">Correct :)</p>","",""
"2498","key","n","n","16.665840000000316","500","250","psychophysics","265","492946","0.0-265.0","614e2446523bb49af662fb62","6213e4c001590d283e14a34c","5","","","","","0","8"
"null","","","null","","","","html-keyboard-response","266","493448","0.0-266.0","614e2446523bb49af662fb62","6213e4c001590d283e14a34c","","","","","<p style=""color:darkgreen;font-size:24px;"">Correct :)</p>","",""
"2630","key","n","n","16.66625949367107","500","250","psychophysics","267","496084","0.0-267.0","614e2446523bb49af662fb62","6213e4c001590d283e14a34c","5","","","","","0","4"
"null","","","null","","","","html-keyboard-response","268","496588","0.0-268.0","614e2446523bb49af662fb62","6213e4c001590d283e14a34c","","","","","<p style=""color:darkgreen;font-size:24px;"">Correct :)</p>","",""
"2488","key","n","n","16.66502684563744","500","250","psychophysics","269","499080","0.0-269.0","614e2446523bb49af662fb62","6213e4c001590d283e14a34c","5","","","","","0","8"
"null","","","null","","","","html-keyboard-response","270","499582","0.0-270.0","614e2446523bb49af662fb62","6213e4c001590d283e14a34c","","","","","<p style=""color:darkgreen;font-size:24px;"">Correct :)</p>","",""
"2424","key","n","n","16.666124137930957","500","250","psychophysics","271","502012","0.0-271.0","614e2446523bb49af662fb62","6213e4c001590d283e14a34c","5","","","","","0","4"
"null","","","null","","","","html-keyboard-response","272","502513","0.0-272.0","614e2446523bb49af662fb62","6213e4c001590d283e14a34c","","","","","<p style=""color:darkgreen;font-size:24px;"">Correct :)</p>","",""
"2595","key","v","v","16.772167741935775","500","250","psychophysics","273","505114","0.0-273.0","614e2446523bb49af662fb62","6213e4c001590d283e14a34c","5","","","","","0","9"
"null","","","null","","","","html-keyboard-response","274","505617","0.0-274.0","614e2446523bb49af662fb62","6213e4c001590d283e14a34c","","","","","<p style=""color:darkgreen;font-size:24px;"">Correct :)</p>","",""
"2625","key","v","v","16.66614649681542","500","250","psychophysics","275","508247","0.0-275.0","614e2446523bb49af662fb62","6213e4c001590d283e14a34c","5","","","","","0","1"
"null","","","null","","","","html-keyboard-response","276","508750","0.0-276.0","614e2446523bb49af662fb62","6213e4c001590d283e14a34c","","","","","<p style=""color:darkgreen;font-size:24px;"">Correct :)</p>","",""
"2495","key","n","n","16.6647133333333","500","250","psychophysics","277","511250","0.0-277.0","614e2446523bb49af662fb62","6213e4c001590d283e14a34c","5","","","","","0","4"
"null","","","null","","","","html-keyboard-response","278","511753","0.0-278.0","614e2446523bb49af662fb62","6213e4c001590d283e14a34c","","","","","<p style=""color:darkgreen;font-size:24px;"">Correct :)</p>","",""
"2506","key","n","n","16.665659999999917","500","250","psychophysics","279","514264","0.0-279.0","614e2446523bb49af662fb62","6213e4c001590d283e14a34c","5","","","","","0","2"
"null","","","null","","","","html-keyboard-response","280","514766","0.0-280.0","614e2446523bb49af662fb62","6213e4c001590d283e14a34c","","","","","<p style=""color:darkgreen;font-size:24px;"">Correct :)</p>","",""
"2459","key","n","n","16.666312925169898","500","250","psychophysics","281","517230","0.0-281.0","614e2446523bb49af662fb62","6213e4c001590d283e14a34c","5","","","","","0","6"
"null","","","null","","","","html-keyboard-response","282","517733","0.0-282.0","614e2446523bb49af662fb62","6213e4c001590d283e14a34c","","","","","<p style=""color:darkgreen;font-size:24px;"">Correct :)</p>","",""
"2527","key","v","v","16.665490066225175","500","250","psychophysics","283","520264","0.0-283.0","614e2446523bb49af662fb62","6213e4c001590d283e14a34c","5","","","","","0","7"
"null","","","null","","","","html-keyboard-response","284","520765","0.0-284.0","614e2446523bb49af662fb62","6213e4c001590d283e14a34c","","","","","<p style=""color:darkgreen;font-size:24px;"">Correct :)</p>","",""
"2410","key","n","n","16.665750000000116","500","250","psychophysics","285","523181","0.0-285.0","614e2446523bb49af662fb62","6213e4c001590d283e14a34c","5","","","","","0","8"
"null","","","null","","","","html-keyboard-response","286","523682","0.0-286.0","614e2446523bb49af662fb62","6213e4c001590d283e14a34c","","","","","<p style=""color:darkgreen;font-size:24px;"">Correct :)</p>","",""
"2532","key","v","v","16.665296052631962","500","250","psychophysics","287","526219","0.0-287.0","614e2446523bb49af662fb62","6213e4c001590d283e14a34c","5","","","","","0","9"
"null","","","null","","","","html-keyboard-response","288","526720","0.0-288.0","614e2446523bb49af662fb62","6213e4c001590d283e14a34c","","","","","<p style=""color:darkgreen;font-size:24px;"">Correct :)</p>","",""
"2550","key","v","v","16.665156862744908","500","250","psychophysics","289","529275","0.0-289.0","614e2446523bb49af662fb62","6213e4c001590d283e14a34c","5","","","","","0","7"
"null","","","null","","","","html-keyboard-response","290","529778","0.0-290.0","614e2446523bb49af662fb62","6213e4c001590d283e14a34c","","","","","<p style=""color:darkgreen;font-size:24px;"">Correct :)</p>","",""
"2514","key","v","v","16.66504635761603","500","250","psychophysics","291","532297","0.0-291.0","614e2446523bb49af662fb62","6213e4c001590d283e14a34c","5","","","","","0","9"
"null","","","null","","","","html-keyboard-response","292","532800","0.0-292.0","614e2446523bb49af662fb62","6213e4c001590d283e14a34c","","","","","<p style=""color:darkgreen;font-size:24px;"">Correct :)</p>","",""
"2633","key","v","v","16.66684177215211","500","250","psychophysics","293","535438","0.0-293.0","614e2446523bb49af662fb62","6213e4c001590d283e14a34c","5","","","","","0","1"
"null","","","null","","","","html-keyboard-response","294","535939","0.0-294.0","614e2446523bb49af662fb62","6213e4c001590d283e14a34c","","","","","<p style=""color:darkgreen;font-size:24px;"">Correct :)</p>","",""
"8792","","","v","","","","html-keyboard-response","295","544733","0.0-295.0","614e2446523bb49af662fb62","6213e4c001590d283e14a34c","","","","","<p> Here, the tasks are going to switch.  For some trials, your job is to decide if the digit is less than or greater than 5.  For others, it is to decide if the digit is even or odd.  You will be told which type of trial the current one is.  But, pay attention, the type of trial changes too.  We are going to do 50 of these.  </p>  <br><br>  Ready? (press v or n)","",""
"3155","key","n","n","16.668169312169233","500","250","psychophysics","296","547890","0.0-296.0","614e2446523bb49af662fb62","6213e4c001590d283e14a34c","6","","","","","1","8"
"null","","","null","","","","html-keyboard-response","297","548391","0.0-297.0","614e2446523bb49af662fb62","6213e4c001590d283e14a34c","","","","","<p style=""color:darkgreen;font-size:24px;"">Correct :)</p>","",""
"2995","key","n","n","16.667322222221667","500","250","psychophysics","298","551390","0.0-298.0","614e2446523bb49af662fb62","6213e4c001590d283e14a34c","6","","","","","0","8"
"null","","","null","","","","html-keyboard-response","299","551893","0.0-299.0","614e2446523bb49af662fb62","6213e4c001590d283e14a34c","","","","","<p style=""color:darkgreen;font-size:24px;"">Correct :)</p>","",""
"2948","key","v","v","16.66812994350261","500","250","psychophysics","300","554845","0.0-300.0","614e2446523bb49af662fb62","6213e4c001590d283e14a34c","6","","","","","1","4"
"null","","","null","","","","html-keyboard-response","301","555347","0.0-301.0","614e2446523bb49af662fb62","6213e4c001590d283e14a34c","","","","","<p style=""color:darkgreen;font-size:24px;"">Correct :)</p>","",""
"2698","key","v","v","16.6653765432104","500","250","psychophysics","302","558050","0.0-302.0","614e2446523bb49af662fb62","6213e4c001590d283e14a34c","6","","","","","1","1"
"null","","","null","","","","html-keyboard-response","303","558552","0.0-303.0","614e2446523bb49af662fb62","6213e4c001590d283e14a34c","","","","","<p style=""color:darkgreen;font-size:24px;"">Correct :)</p>","",""
"2527","key","v","v","16.665269736841623","500","250","psychophysics","304","561081","0.0-304.0","614e2446523bb49af662fb62","6213e4c001590d283e14a34c","6","","","","","0","7"
"null","","","null","","","","html-keyboard-response","305","561584","0.0-305.0","614e2446523bb49af662fb62","6213e4c001590d283e14a34c","","","","","<p style=""color:darkgreen;font-size:24px;"">Correct :)</p>","",""
"2586","key","n","n","16.665858064516026","500","250","psychophysics","306","564172","0.0-306.0","614e2446523bb49af662fb62","6213e4c001590d283e14a34c","6","","","","","0","6"
"null","","","null","","","","html-keyboard-response","307","564674","0.0-307.0","614e2446523bb49af662fb62","6213e4c001590d283e14a34c","","","","","<p style=""color:darkgreen;font-size:24px;"">Correct :)</p>","",""
"2596","key","v","v","16.666173076922767","500","250","psychophysics","308","567272","0.0-308.0","614e2446523bb49af662fb62","6213e4c001590d283e14a34c","6","","","","","0","1"
"null","","","null","","","","html-keyboard-response","309","567773","0.0-309.0","614e2446523bb49af662fb62","6213e4c001590d283e14a34c","","","","","<p style=""color:darkgreen;font-size:24px;"">Correct :)</p>","",""
"2496","key","n","n","16.66531333333347","500","250","psychophysics","310","570274","0.0-310.0","614e2446523bb49af662fb62","6213e4c001590d283e14a34c","6","","","","","1","9"
"null","","","null","","","","html-keyboard-response","311","570775","0.0-311.0","614e2446523bb49af662fb62","6213e4c001590d283e14a34c","","","","","<p style=""color:darkgreen;font-size:24px;"">Correct :)</p>","",""
"2545","key","n","n","16.666823529411605","500","250","psychophysics","312","573322","0.0-312.0","614e2446523bb49af662fb62","6213e4c001590d283e14a34c","6","","","","","1","9"
"null","","","null","","","","html-keyboard-response","313","573823","0.0-313.0","614e2446523bb49af662fb62","6213e4c001590d283e14a34c","","","","","<p style=""color:darkgreen;font-size:24px;"">Correct :)</p>","",""
"2706","key","v","v","16.66492024539867","500","250","psychophysics","314","576532","0.0-314.0","614e2446523bb49af662fb62","6213e4c001590d283e14a34c","6","","","","","1","4"
"null","","","null","","","","html-keyboard-response","315","577033","0.0-315.0","614e2446523bb49af662fb62","6213e4c001590d283e14a34c","","","","","<p style=""color:darkgreen;font-size:24px;"">Correct :)</p>","",""
"3143","key","v","v","16.66682446808517","500","250","psychophysics","316","580178","0.0-316.0","614e2446523bb49af662fb62","6213e4c001590d283e14a34c","6","","","","","0","9"
"null","","","null","","","","html-keyboard-response","317","580680","0.0-317.0","614e2446523bb49af662fb62","6213e4c001590d283e14a34c","","","","","<p style=""color:darkgreen;font-size:24px;"">Correct :)</p>","",""
"2631","key","v","v","16.66689240506296","500","250","psychophysics","318","583315","0.0-318.0","614e2446523bb49af662fb62","6213e4c001590d283e14a34c","6","","","","","0","3"
"null","","","null","","","","html-keyboard-response","319","583817","0.0-319.0","614e2446523bb49af662fb62","6213e4c001590d283e14a34c","","","","","<p style=""color:darkgreen;font-size:24px;"">Correct :)</p>","",""
"2648","key","n","n","16.665691823899195","500","250","psychophysics","320","586470","0.0-320.0","614e2446523bb49af662fb62","6213e4c001590d283e14a34c","6","","","","","1","7"
"null","","","null","","","","html-keyboard-response","321","586971","0.0-321.0","614e2446523bb49af662fb62","6213e4c001590d283e14a34c","","","","","<p style=""color:darkgreen;font-size:24px;"">Correct :)</p>","",""
"3222","key","n","n","16.665551546391594","500","250","psychophysics","322","590197","0.0-322.0","614e2446523bb49af662fb62","6213e4c001590d283e14a34c","6","","","","","0","6"
"null","","","null","","","","html-keyboard-response","323","590699","0.0-323.0","614e2446523bb49af662fb62","6213e4c001590d283e14a34c","","","","","<p style=""color:darkgreen;font-size:24px;"">Correct :)</p>","",""
"2859","key","v","v","16.665837209302186","500","250","psychophysics","324","593563","0.0-324.0","614e2446523bb49af662fb62","6213e4c001590d283e14a34c","6","","","","","1","1"
"null","","","null","","","","html-keyboard-response","325","594066","0.0-325.0","614e2446523bb49af662fb62","6213e4c001590d283e14a34c","","","","","<p style=""color:darkgreen;font-size:24px;"">Correct :)</p>","",""
"2507","key","n","n","16.66326490066258","500","250","psychophysics","326","596579","0.0-326.0","614e2446523bb49af662fb62","6213e4c001590d283e14a34c","6","","","","","0","8"
"null","","","null","","","","html-keyboard-response","327","597081","0.0-327.0","614e2446523bb49af662fb62","6213e4c001590d283e14a34c","","","","","<p style=""color:darkgreen;font-size:24px;"">Correct :)</p>","",""
"2498","key","n","n","16.667533333333363","500","250","psychophysics","328","599582","0.0-328.0","614e2446523bb49af662fb62","6213e4c001590d283e14a34c","6","","","","","1","4"
"null","","","null","","","","html-keyboard-response","329","600084","0.0-329.0","614e2446523bb49af662fb62","6213e4c001590d283e14a34c","","","","","<p style=""color:red;font-size:24px;"">Error :(</p>","",""
"2575","key","v","v","16.664509677419048","500","250","psychophysics","330","602664","0.0-330.0","614e2446523bb49af662fb62","6213e4c001590d283e14a34c","6","","","","","1","1"
"null","","","null","","","","html-keyboard-response","331","603166","0.0-331.0","614e2446523bb49af662fb62","6213e4c001590d283e14a34c","","","","","<p style=""color:darkgreen;font-size:24px;"">Correct :)</p>","",""
"2747","key","v","v","16.666006060606435","500","250","psychophysics","332","605918","0.0-332.0","614e2446523bb49af662fb62","6213e4c001590d283e14a34c","6","","","","","1","8"
"null","","","null","","","","html-keyboard-response","333","606419","0.0-333.0","614e2446523bb49af662fb62","6213e4c001590d283e14a34c","","","","","<p style=""color:red;font-size:24px;"">Error :(</p>","",""
"3075","key","n","n","16.665816216216097","500","250","psychophysics","334","609500","0.0-334.0","614e2446523bb49af662fb62","6213e4c001590d283e14a34c","6","","","","","0","8"
"null","","","null","","","","html-keyboard-response","335","610002","0.0-335.0","614e2446523bb49af662fb62","6213e4c001590d283e14a34c","","","","","<p style=""color:darkgreen;font-size:24px;"">Correct :)</p>","",""
"2513","key","n","n","16.664940397350723","500","250","psychophysics","336","612517","0.0-336.0","614e2446523bb49af662fb62","6213e4c001590d283e14a34c","6","","","","","0","8"
"null","","","null","","","","html-keyboard-response","337","613020","0.0-337.0","614e2446523bb49af662fb62","6213e4c001590d283e14a34c","","","","","<p style=""color:darkgreen;font-size:24px;"">Correct :)</p>","",""
"2537","key","v","v","16.667627450980373","500","250","psychophysics","338","615563","0.0-338.0","614e2446523bb49af662fb62","6213e4c001590d283e14a34c","6","","","","","0","1"
"null","","","null","","","","html-keyboard-response","339","616064","0.0-339.0","614e2446523bb49af662fb62","6213e4c001590d283e14a34c","","","","","<p style=""color:darkgreen;font-size:24px;"">Correct :)</p>","",""
"3318","key","n","n","16.665291457286635","500","250","psychophysics","340","619388","0.0-340.0","614e2446523bb49af662fb62","6213e4c001590d283e14a34c","6","","","","","1","7"
"null","","","null","","","","html-keyboard-response","341","619889","0.0-341.0","614e2446523bb49af662fb62","6213e4c001590d283e14a34c","","","","","<p style=""color:darkgreen;font-size:24px;"">Correct :)</p>","",""
"2806","key","n","n","16.66621893491133","500","250","psychophysics","342","622698","0.0-342.0","614e2446523bb49af662fb62","6213e4c001590d283e14a34c","6","","","","","0","8"
"null","","","null","","","","html-keyboard-response","343","623200","0.0-343.0","614e2446523bb49af662fb62","6213e4c001590d283e14a34c","","","","","<p style=""color:darkgreen;font-size:24px;"">Correct :)</p>","",""
"2577","key","v","v","16.666619354838716","500","250","psychophysics","344","625781","0.0-344.0","614e2446523bb49af662fb62","6213e4c001590d283e14a34c","6","","","","","0","9"
"null","","","null","","","","html-keyboard-response","345","626284","0.0-345.0","614e2446523bb49af662fb62","6213e4c001590d283e14a34c","","","","","<p style=""color:darkgreen;font-size:24px;"">Correct :)</p>","",""
"2664","key","v","v","16.664518749999843","500","250","psychophysics","346","628952","0.0-346.0","614e2446523bb49af662fb62","6213e4c001590d283e14a34c","6","","","","","0","1"
"null","","","null","","","","html-keyboard-response","347","629453","0.0-347.0","614e2446523bb49af662fb62","6213e4c001590d283e14a34c","","","","","<p style=""color:darkgreen;font-size:24px;"">Correct :)</p>","",""
"2535","key","n","n","16.665940789473673","500","250","psychophysics","348","631990","0.0-348.0","614e2446523bb49af662fb62","6213e4c001590d283e14a34c","6","","","","","1","6"
"null","","","null","","","","html-keyboard-response","349","632491","0.0-349.0","614e2446523bb49af662fb62","6213e4c001590d283e14a34c","","","","","<p style=""color:darkgreen;font-size:24px;"">Correct :)</p>","",""
"2550","key","n","n","16.774686274509815","500","250","psychophysics","350","635046","0.0-350.0","614e2446523bb49af662fb62","6213e4c001590d283e14a34c","6","","","","","1","9"
"null","","","null","","","","html-keyboard-response","351","635547","0.0-351.0","614e2446523bb49af662fb62","6213e4c001590d283e14a34c","","","","","<p style=""color:darkgreen;font-size:24px;"">Correct :)</p>","",""
"2544","key","n","n","16.664588235294314","500","250","psychophysics","352","638094","0.0-352.0","614e2446523bb49af662fb62","6213e4c001590d283e14a34c","6","","","","","1","9"
"null","","","null","","","","html-keyboard-response","353","638596","0.0-353.0","614e2446523bb49af662fb62","6213e4c001590d283e14a34c","","","","","<p style=""color:darkgreen;font-size:24px;"">Correct :)</p>","",""
"2437","key","n","n","16.666417808219318","500","250","psychophysics","354","641038","0.0-354.0","614e2446523bb49af662fb62","6213e4c001590d283e14a34c","6","","","","","1","8"
"null","","","null","","","","html-keyboard-response","355","641540","0.0-355.0","614e2446523bb49af662fb62","6213e4c001590d283e14a34c","","","","","<p style=""color:darkgreen;font-size:24px;"">Correct :)</p>","",""
"2499","key","v","v","16.665403973510095","500","250","psychophysics","356","644046","0.0-356.0","614e2446523bb49af662fb62","6213e4c001590d283e14a34c","6","","","","","1","3"
"null","","","null","","","","html-keyboard-response","357","644546","0.0-357.0","614e2446523bb49af662fb62","6213e4c001590d283e14a34c","","","","","<p style=""color:darkgreen;font-size:24px;"">Correct :)</p>","",""
"2522","key","v","v","16.66740397351026","500","250","psychophysics","358","647070","0.0-358.0","614e2446523bb49af662fb62","6213e4c001590d283e14a34c","6","","","","","1","3"
"null","","","null","","","","html-keyboard-response","359","647572","0.0-359.0","614e2446523bb49af662fb62","6213e4c001590d283e14a34c","","","","","<p style=""color:darkgreen;font-size:24px;"">Correct :)</p>","",""
"2599","key","n","n","16.667057692308354","500","250","psychophysics","360","650173","0.0-360.0","614e2446523bb49af662fb62","6213e4c001590d283e14a34c","6","","","","","1","7"
"null","","","null","","","","html-keyboard-response","361","650674","0.0-361.0","614e2446523bb49af662fb62","6213e4c001590d283e14a34c","","","","","<p style=""color:darkgreen;font-size:24px;"">Correct :)</p>","",""
"3075","key","n","n","16.665459016393335","500","250","psychophysics","362","653753","0.0-362.0","614e2446523bb49af662fb62","6213e4c001590d283e14a34c","6","","","","","0","4"
"null","","","null","","","","html-keyboard-response","363","654254","0.0-363.0","614e2446523bb49af662fb62","6213e4c001590d283e14a34c","","","","","<p style=""color:darkgreen;font-size:24px;"">Correct :)</p>","",""
"2726","key","n","n","16.665646341463223","500","250","psychophysics","364","656987","0.0-364.0","614e2446523bb49af662fb62","6213e4c001590d283e14a34c","6","","","","","0","2"
"null","","","null","","","","html-keyboard-response","365","657490","0.0-365.0","614e2446523bb49af662fb62","6213e4c001590d283e14a34c","","","","","<p style=""color:darkgreen;font-size:24px;"">Correct :)</p>","",""
"2786","key","n","n","16.76659880239589","500","250","psychophysics","366","660278","0.0-366.0","614e2446523bb49af662fb62","6213e4c001590d283e14a34c","6","","","","","0","8"
"null","","","null","","","","html-keyboard-response","367","660780","0.0-367.0","614e2446523bb49af662fb62","6213e4c001590d283e14a34c","","","","","<p style=""color:darkgreen;font-size:24px;"">Correct :)</p>","",""
"2491","key","n","n","16.66551333333288","500","250","psychophysics","368","663276","0.0-368.0","614e2446523bb49af662fb62","6213e4c001590d283e14a34c","6","","","","","0","4"
"null","","","null","","","","html-keyboard-response","369","663779","0.0-369.0","614e2446523bb49af662fb62","6213e4c001590d283e14a34c","","","","","<p style=""color:darkgreen;font-size:24px;"">Correct :)</p>","",""
"2394","key","n","n","16.666465277777913","500","250","psychophysics","370","666178","0.0-370.0","614e2446523bb49af662fb62","6213e4c001590d283e14a34c","6","","","","","0","4"
"null","","","null","","","","html-keyboard-response","371","666679","0.0-371.0","614e2446523bb49af662fb62","6213e4c001590d283e14a34c","","","","","<p style=""color:darkgreen;font-size:24px;"">Correct :)</p>","",""
"3148","key","n","n","16.66556084656068","500","250","psychophysics","372","669830","0.0-372.0","614e2446523bb49af662fb62","6213e4c001590d283e14a34c","6","","","","","1","6"
"null","","","null","","","","html-keyboard-response","373","670333","0.0-373.0","614e2446523bb49af662fb62","6213e4c001590d283e14a34c","","","","","<p style=""color:darkgreen;font-size:24px;"">Correct :)</p>","",""
"3388","key","v","v","16.665808823529183","500","250","psychophysics","374","673725","0.0-374.0","614e2446523bb49af662fb62","6213e4c001590d283e14a34c","6","","","","","0","1"
"null","","","null","","","","html-keyboard-response","375","674228","0.0-375.0","614e2446523bb49af662fb62","6213e4c001590d283e14a34c","","","","","<p style=""color:darkgreen;font-size:24px;"">Correct :)</p>","",""
"2834","key","n","n","16.66559411764679","500","250","psychophysics","376","677067","0.0-376.0","614e2446523bb49af662fb62","6213e4c001590d283e14a34c","6","","","","","0","6"
"null","","","null","","","","html-keyboard-response","377","677568","0.0-377.0","614e2446523bb49af662fb62","6213e4c001590d283e14a34c","","","","","<p style=""color:darkgreen;font-size:24px;"">Correct :)</p>","",""
"2784","key","n","n","16.665690476189845","500","250","psychophysics","378","680359","0.0-378.0","614e2446523bb49af662fb62","6213e4c001590d283e14a34c","6","","","","","0","4"
"null","","","null","","","","html-keyboard-response","379","680862","0.0-379.0","614e2446523bb49af662fb62","6213e4c001590d283e14a34c","","","","","<p style=""color:darkgreen;font-size:24px;"">Correct :)</p>","",""
"2672","key","v","v","16.666100000000007","500","250","psychophysics","380","683536","0.0-380.0","614e2446523bb49af662fb62","6213e4c001590d283e14a34c","6","","","","","1","1"
"null","","","null","","","","html-keyboard-response","381","684038","0.0-381.0","614e2446523bb49af662fb62","6213e4c001590d283e14a34c","","","","","<p style=""color:darkgreen;font-size:24px;"">Correct :)</p>","",""
"2786","key","n","n","16.764994011976487","500","250","psychophysics","382","686827","0.0-382.0","614e2446523bb49af662fb62","6213e4c001590d283e14a34c","6","","","","","0","6"
"null","","","null","","","","html-keyboard-response","383","687328","0.0-383.0","614e2446523bb49af662fb62","6213e4c001590d283e14a34c","","","","","<p style=""color:darkgreen;font-size:24px;"">Correct :)</p>","",""
"2605","key","n","n","16.666814102564388","500","250","psychophysics","384","689937","0.0-384.0","614e2446523bb49af662fb62","6213e4c001590d283e14a34c","6","","","","","0","6"
"null","","","null","","","","html-keyboard-response","385","690440","0.0-385.0","614e2446523bb49af662fb62","6213e4c001590d283e14a34c","","","","","<p style=""color:darkgreen;font-size:24px;"">Correct :)</p>","",""
"2579","key","v","v","16.66490967742002","500","250","psychophysics","386","693024","0.0-386.0","614e2446523bb49af662fb62","6213e4c001590d283e14a34c","6","","","","","1","4"
"null","","","null","","","","html-keyboard-response","387","693525","0.0-387.0","614e2446523bb49af662fb62","6213e4c001590d283e14a34c","","","","","<p style=""color:darkgreen;font-size:24px;"">Correct :)</p>","",""
"2621","key","v","v","16.66817834394892","500","250","psychophysics","388","696148","0.0-388.0","614e2446523bb49af662fb62","6213e4c001590d283e14a34c","6","","","","","1","1"
"null","","","null","","","","html-keyboard-response","389","696649","0.0-389.0","614e2446523bb49af662fb62","6213e4c001590d283e14a34c","","","","","<p style=""color:darkgreen;font-size:24px;"">Correct :)</p>","",""
"2560","key","v","v","16.66501298701306","500","250","psychophysics","390","699215","0.0-390.0","614e2446523bb49af662fb62","6213e4c001590d283e14a34c","6","","","","","1","3"
"null","","","null","","","","html-keyboard-response","391","699716","0.0-391.0","614e2446523bb49af662fb62","6213e4c001590d283e14a34c","","","","","<p style=""color:darkgreen;font-size:24px;"">Correct :)</p>","",""
"2627","key","n","n","16.66729746835492","500","250","psychophysics","392","702344","0.0-392.0","614e2446523bb49af662fb62","6213e4c001590d283e14a34c","6","","","","","0","4"
"null","","","null","","","","html-keyboard-response","393","702847","0.0-393.0","614e2446523bb49af662fb62","6213e4c001590d283e14a34c","","","","","<p style=""color:darkgreen;font-size:24px;"">Correct :)</p>","",""
"2698","key","v","v","16.66440123456809","500","250","psychophysics","394","705549","0.0-394.0","614e2446523bb49af662fb62","6213e4c001590d283e14a34c","6","","","","","1","7"
"null","","","null","","","","html-keyboard-response","395","706052","0.0-395.0","614e2446523bb49af662fb62","6213e4c001590d283e14a34c","","","","","<p style=""color:red;font-size:24px;"">Error :(</p>","",""
"2714","","","v","","","","html-keyboard-response","396","708767","0.0-396.0","614e2446523bb49af662fb62","6213e4c001590d283e14a34c","","","","","<p> Last set of trials.  Here, the tasks are going to switch once again.  We are going to do 50 of these.  And then you are done with the experiment.  </p>  <br><br>  Ready? (press v or n)","",""
"3055","key","v","v","16.66590760869566","500","250","psychophysics","397","711826","0.0-397.0","614e2446523bb49af662fb62","6213e4c001590d283e14a34c","7","","","","","0","1"
"null","","","null","","","","html-keyboard-response","398","712328","0.0-398.0","614e2446523bb49af662fb62","6213e4c001590d283e14a34c","","","","","<p style=""color:darkgreen;font-size:24px;"">Correct :)</p>","",""
"2574","key","v","v","16.666638709677592","500","250","psychophysics","399","714907","0.0-399.0","614e2446523bb49af662fb62","6213e4c001590d283e14a34c","7","","","","","0","3"
"null","","","null","","","","html-keyboard-response","400","715410","0.0-400.0","614e2446523bb49af662fb62","6213e4c001590d283e14a34c","","","","","<p style=""color:darkgreen;font-size:24px;"">Correct :)</p>","",""
"2585","key","v","v","16.66693548387097","500","250","psychophysics","401","717997","0.0-401.0","614e2446523bb49af662fb62","6213e4c001590d283e14a34c","7","","","","","0","1"
"null","","","null","","","","html-keyboard-response","402","718498","0.0-402.0","614e2446523bb49af662fb62","6213e4c001590d283e14a34c","","","","","<p style=""color:darkgreen;font-size:24px;"">Correct :)</p>","",""
"2517","key","v","v","16.667039735099326","500","250","psychophysics","403","721018","0.0-403.0","614e2446523bb49af662fb62","6213e4c001590d283e14a34c","7","","","","","1","2"
"null","","","null","","","","html-keyboard-response","404","721520","0.0-404.0","614e2446523bb49af662fb62","6213e4c001590d283e14a34c","","","","","<p style=""color:darkgreen;font-size:24px;"">Correct :)</p>","",""
"2582","key","n","n","16.772703225807017","500","250","psychophysics","405","724106","0.0-405.0","614e2446523bb49af662fb62","6213e4c001590d283e14a34c","7","","","","","0","6"
"null","","","null","","","","html-keyboard-response","406","724608","0.0-406.0","614e2446523bb49af662fb62","6213e4c001590d283e14a34c","","","","","<p style=""color:darkgreen;font-size:24px;"">Correct :)</p>","",""
"2902","key","n","n","16.667103448275867","500","250","psychophysics","407","727513","0.0-407.0","614e2446523bb49af662fb62","6213e4c001590d283e14a34c","7","","","","","0","2"
"null","","","null","","","","html-keyboard-response","408","728014","0.0-408.0","614e2446523bb49af662fb62","6213e4c001590d283e14a34c","","","","","<p style=""color:darkgreen;font-size:24px;"">Correct :)</p>","",""
"2532","key","n","n","16.6656513157895","500","250","psychophysics","409","730552","0.0-409.0","614e2446523bb49af662fb62","6213e4c001590d283e14a34c","7","","","","","0","6"
"null","","","null","","","","html-keyboard-response","410","731055","0.0-410.0","614e2446523bb49af662fb62","6213e4c001590d283e14a34c","","","","","<p style=""color:darkgreen;font-size:24px;"">Correct :)</p>","",""
"2460","key","v","v","16.666183673469412","500","250","psychophysics","411","733520","0.0-411.0","614e2446523bb49af662fb62","6213e4c001590d283e14a34c","7","","","","","0","7"
"null","","","null","","","","html-keyboard-response","412","734023","0.0-412.0","614e2446523bb49af662fb62","6213e4c001590d283e14a34c","","","","","<p style=""color:darkgreen;font-size:24px;"">Correct :)</p>","",""
"2529","key","v","v","16.66669736842098","500","250","psychophysics","413","736556","0.0-413.0","614e2446523bb49af662fb62","6213e4c001590d283e14a34c","7","","","","","1","4"
"null","","","null","","","","html-keyboard-response","414","737058","0.0-414.0","614e2446523bb49af662fb62","6213e4c001590d283e14a34c","","","","","<p style=""color:darkgreen;font-size:24px;"">Correct :)</p>","",""
"2908","key","v","v","16.666344827586308","500","250","psychophysics","415","739970","0.0-415.0","614e2446523bb49af662fb62","6213e4c001590d283e14a34c","7","","","","","1","3"
"null","","","null","","","","html-keyboard-response","416","740473","0.0-416.0","614e2446523bb49af662fb62","6213e4c001590d283e14a34c","","","","","<p style=""color:darkgreen;font-size:24px;"">Correct :)</p>","",""
"2793","key","v","v","16.664952095808506","500","250","psychophysics","417","743270","0.0-417.0","614e2446523bb49af662fb62","6213e4c001590d283e14a34c","7","","","","","1","2"
"null","","","null","","","","html-keyboard-response","418","743773","0.0-418.0","614e2446523bb49af662fb62","6213e4c001590d283e14a34c","","","","","<p style=""color:darkgreen;font-size:24px;"">Correct :)</p>","",""
"3062","key","n","n","16.66534782608695","500","250","psychophysics","419","746839","0.0-419.0","614e2446523bb49af662fb62","6213e4c001590d283e14a34c","7","","","","","0","2"
"null","","","null","","","","html-keyboard-response","420","747341","0.0-420.0","614e2446523bb49af662fb62","6213e4c001590d283e14a34c","","","","","<p style=""color:darkgreen;font-size:24px;"">Correct :)</p>","",""
"2732","key","v","v","16.665902439025004","500","250","psychophysics","421","750075","0.0-421.0","614e2446523bb49af662fb62","6213e4c001590d283e14a34c","7","","","","","0","1"
"null","","","null","","","","html-keyboard-response","422","750575","0.0-422.0","614e2446523bb49af662fb62","6213e4c001590d283e14a34c","","","","","<p style=""color:darkgreen;font-size:24px;"">Correct :)</p>","",""
"3163","key","v","v","16.666831578947235","500","250","psychophysics","423","753741","0.0-423.0","614e2446523bb49af662fb62","6213e4c001590d283e14a34c","7","","","","","1","2"
"null","","","null","","","","html-keyboard-response","424","754242","0.0-424.0","614e2446523bb49af662fb62","6213e4c001590d283e14a34c","","","","","<p style=""color:darkgreen;font-size:24px;"">Correct :)</p>","",""
"2514","key","n","n","16.66620529801292","500","250","psychophysics","425","756761","0.0-425.0","614e2446523bb49af662fb62","6213e4c001590d283e14a34c","7","","","","","1","6"
"null","","","null","","","","html-keyboard-response","426","757263","0.0-426.0","614e2446523bb49af662fb62","6213e4c001590d283e14a34c","","","","","<p style=""color:darkgreen;font-size:24px;"">Correct :)</p>","",""
"2667","key","v","v","16.666431249999732","500","250","psychophysics","427","759936","0.0-427.0","614e2446523bb49af662fb62","6213e4c001590d283e14a34c","7","","","","","1","4"
"null","","","null","","","","html-keyboard-response","428","760438","0.0-428.0","614e2446523bb49af662fb62","6213e4c001590d283e14a34c","","","","","<p style=""color:darkgreen;font-size:24px;"">Correct :)</p>","",""
"2748","key","v","v","16.6674181818186","500","250","psychophysics","429","763190","0.0-429.0","614e2446523bb49af662fb62","6213e4c001590d283e14a34c","7","","","","","1","3"
"null","","","null","","","","html-keyboard-response","430","763693","0.0-430.0","614e2446523bb49af662fb62","6213e4c001590d283e14a34c","","","","","<p style=""color:darkgreen;font-size:24px;"">Correct :)</p>","",""
"3113","key","n","n","16.66621276595756","500","250","psychophysics","431","766821","0.0-431.0","614e2446523bb49af662fb62","6213e4c001590d283e14a34c","7","","","","","1","7"
"null","","","null","","","","html-keyboard-response","432","767323","0.0-432.0","614e2446523bb49af662fb62","6213e4c001590d283e14a34c","","","","","<p style=""color:darkgreen;font-size:24px;"">Correct :)</p>","",""
"3244","key","v","v","16.665902564102687","500","250","psychophysics","433","770572","0.0-433.0","614e2446523bb49af662fb62","6213e4c001590d283e14a34c","7","","","","","0","7"
"null","","","null","","","","html-keyboard-response","434","771074","0.0-434.0","614e2446523bb49af662fb62","6213e4c001590d283e14a34c","","","","","<p style=""color:darkgreen;font-size:24px;"">Correct :)</p>","",""
"2660","key","v","v","16.66478124999994","500","250","psychophysics","435","773739","0.0-435.0","614e2446523bb49af662fb62","6213e4c001590d283e14a34c","7","","","","","0","1"
"null","","","null","","","","html-keyboard-response","436","774240","0.0-436.0","614e2446523bb49af662fb62","6213e4c001590d283e14a34c","","","","","<p style=""color:darkgreen;font-size:24px;"">Correct :)</p>","",""
"2753","key","n","n","16.666315151515388","500","250","psychophysics","437","776995","0.0-437.0","614e2446523bb49af662fb62","6213e4c001590d283e14a34c","7","","","","","0","6"
"null","","","null","","","","html-keyboard-response","438","777497","0.0-438.0","614e2446523bb49af662fb62","6213e4c001590d283e14a34c","","","","","<p style=""color:darkgreen;font-size:24px;"">Correct :)</p>","",""
"3115","key","n","n","16.666096256684167","500","250","psychophysics","439","780617","0.0-439.0","614e2446523bb49af662fb62","6213e4c001590d283e14a34c","7","","","","","1","7"
"null","","","null","","","","html-keyboard-response","440","781119","0.0-440.0","614e2446523bb49af662fb62","6213e4c001590d283e14a34c","","","","","<p style=""color:darkgreen;font-size:24px;"">Correct :)</p>","",""
"2597","key","v","v","16.666480769230148","500","250","psychophysics","441","783720","0.0-441.0","614e2446523bb49af662fb62","6213e4c001590d283e14a34c","7","","","","","0","1"
"null","","","null","","","","html-keyboard-response","442","784222","0.0-442.0","614e2446523bb49af662fb62","6213e4c001590d283e14a34c","","","","","<p style=""color:darkgreen;font-size:24px;"">Correct :)</p>","",""
"2563","key","v","v","16.665675324675863","500","250","psychophysics","443","786789","0.0-443.0","614e2446523bb49af662fb62","6213e4c001590d283e14a34c","7","","","","","1","3"
"null","","","null","","","","html-keyboard-response","444","787290","0.0-444.0","614e2446523bb49af662fb62","6213e4c001590d283e14a34c","","","","","<p style=""color:darkgreen;font-size:24px;"">Correct :)</p>","",""
"2787","key","v","v","16.664850299401365","500","250","psychophysics","445","790079","0.0-445.0","614e2446523bb49af662fb62","6213e4c001590d283e14a34c","7","","","","","1","3"
"null","","","null","","","","html-keyboard-response","446","790580","0.0-446.0","614e2446523bb49af662fb62","6213e4c001590d283e14a34c","","","","","<p style=""color:darkgreen;font-size:24px;"">Correct :)</p>","",""
"2743","key","n","n","16.663812121212004","500","250","psychophysics","447","793329","0.0-447.0","614e2446523bb49af662fb62","6213e4c001590d283e14a34c","7","","","","","0","6"
"null","","","null","","","","html-keyboard-response","448","793830","0.0-448.0","614e2446523bb49af662fb62","6213e4c001590d283e14a34c","","","","","<p style=""color:darkgreen;font-size:24px;"">Correct :)</p>","",""
"2928","key","v","v","16.6660795454551","500","250","psychophysics","449","796762","0.0-449.0","614e2446523bb49af662fb62","6213e4c001590d283e14a34c","7","","","","","1","4"
"null","","","null","","","","html-keyboard-response","450","797264","0.0-450.0","614e2446523bb49af662fb62","6213e4c001590d283e14a34c","","","","","<p style=""color:darkgreen;font-size:24px;"">Correct :)</p>","",""
"2805","key","v","v","16.667372781065563","500","250","psychophysics","451","800074","0.0-451.0","614e2446523bb49af662fb62","6213e4c001590d283e14a34c","7","","","","","1","3"
"null","","","null","","","","html-keyboard-response","452","800575","0.0-452.0","614e2446523bb49af662fb62","6213e4c001590d283e14a34c","","","","","<p style=""color:darkgreen;font-size:24px;"">Correct :)</p>","",""
"2595","key","v","v","16.664564102564235","500","250","psychophysics","453","803172","0.0-453.0","614e2446523bb49af662fb62","6213e4c001590d283e14a34c","7","","","","","0","7"
"null","","","null","","","","html-keyboard-response","454","803674","0.0-454.0","614e2446523bb49af662fb62","6213e4c001590d283e14a34c","","","","","<p style=""color:darkgreen;font-size:24px;"">Correct :)</p>","",""
"2539","key","v","v","16.665333333333155","500","250","psychophysics","455","806219","0.0-455.0","614e2446523bb49af662fb62","6213e4c001590d283e14a34c","7","","","","","1","4"
"null","","","null","","","","html-keyboard-response","456","806721","0.0-456.0","614e2446523bb49af662fb62","6213e4c001590d283e14a34c","","","","","<p style=""color:darkgreen;font-size:24px;"">Correct :)</p>","",""
"3016","key","n","n","16.6661270718233","500","250","psychophysics","457","809744","0.0-457.0","614e2446523bb49af662fb62","6213e4c001590d283e14a34c","7","","","","","1","7"
"null","","","null","","","","html-keyboard-response","458","810246","0.0-458.0","614e2446523bb49af662fb62","6213e4c001590d283e14a34c","","","","","<p style=""color:darkgreen;font-size:24px;"">Correct :)</p>","",""
"2638","key","n","n","16.66590566037782","500","250","psychophysics","459","812887","0.0-459.0","614e2446523bb49af662fb62","6213e4c001590d283e14a34c","7","","","","","1","7"
"null","","","null","","","","html-keyboard-response","460","813389","0.0-460.0","614e2446523bb49af662fb62","6213e4c001590d283e14a34c","","","","","<p style=""color:darkgreen;font-size:24px;"">Correct :)</p>","",""
"2541","key","v","v","16.664333333333595","500","250","psychophysics","461","815935","0.0-461.0","614e2446523bb49af662fb62","6213e4c001590d283e14a34c","7","","","","","1","3"
"null","","","null","","","","html-keyboard-response","462","816438","0.0-462.0","614e2446523bb49af662fb62","6213e4c001590d283e14a34c","","","","","<p style=""color:darkgreen;font-size:24px;"">Correct :)</p>","",""
"2841","key","v","v","16.66434117647107","500","250","psychophysics","463","819280","0.0-463.0","614e2446523bb49af662fb62","6213e4c001590d283e14a34c","7","","","","","1","2"
"null","","","null","","","","html-keyboard-response","464","819782","0.0-464.0","614e2446523bb49af662fb62","6213e4c001590d283e14a34c","","","","","<p style=""color:darkgreen;font-size:24px;"">Correct :)</p>","",""
"2548","key","v","v","16.777138157894736","500","250","psychophysics","465","822332","0.0-465.0","614e2446523bb49af662fb62","6213e4c001590d283e14a34c","7","","","","","0","1"
"null","","","null","","","","html-keyboard-response","466","822834","0.0-466.0","614e2446523bb49af662fb62","6213e4c001590d283e14a34c","","","","","<p style=""color:darkgreen;font-size:24px;"">Correct :)</p>","",""
"2644","key","n","n","16.664748427673366","500","250","psychophysics","467","825486","0.0-467.0","614e2446523bb49af662fb62","6213e4c001590d283e14a34c","7","","","","","0","6"
"null","","","null","","","","html-keyboard-response","468","825988","0.0-468.0","614e2446523bb49af662fb62","6213e4c001590d283e14a34c","","","","","<p style=""color:darkgreen;font-size:24px;"">Correct :)</p>","",""
"2992","key","v","v","16.66582681564224","500","250","psychophysics","469","828982","0.0-469.0","614e2446523bb49af662fb62","6213e4c001590d283e14a34c","7","","","","","1","4"
"null","","","null","","","","html-keyboard-response","470","829483","0.0-470.0","614e2446523bb49af662fb62","6213e4c001590d283e14a34c","","","","","<p style=""color:darkgreen;font-size:24px;"">Correct :)</p>","",""
"2661","key","v","v","16.666427672955606","500","250","psychophysics","471","832146","0.0-471.0","614e2446523bb49af662fb62","6213e4c001590d283e14a34c","7","","","","","0","1"
"null","","","null","","","","html-keyboard-response","472","832648","0.0-472.0","614e2446523bb49af662fb62","6213e4c001590d283e14a34c","","","","","<p style=""color:darkgreen;font-size:24px;"">Correct :)</p>","",""
"2742","key","n","n","16.66626060606037","500","250","psychophysics","473","835395","0.0-473.0","614e2446523bb49af662fb62","6213e4c001590d283e14a34c","7","","","","","0","6"
"null","","","null","","","","html-keyboard-response","474","835898","0.0-474.0","614e2446523bb49af662fb62","6213e4c001590d283e14a34c","","","","","<p style=""color:darkgreen;font-size:24px;"">Correct :)</p>","",""
"2647","key","v","v","16.666182389936804","500","250","psychophysics","475","838549","0.0-475.0","614e2446523bb49af662fb62","6213e4c001590d283e14a34c","7","","","","","0","7"
"null","","","null","","","","html-keyboard-response","476","839050","0.0-476.0","614e2446523bb49af662fb62","6213e4c001590d283e14a34c","","","","","<p style=""color:darkgreen;font-size:24px;"">Correct :)</p>","",""
"2698","key","v","v","16.66606790123487","500","250","psychophysics","477","841754","0.0-477.0","614e2446523bb49af662fb62","6213e4c001590d283e14a34c","7","","","","","1","1"
"null","","","null","","","","html-keyboard-response","478","842255","0.0-478.0","614e2446523bb49af662fb62","6213e4c001590d283e14a34c","","","","","<p style=""color:darkgreen;font-size:24px;"">Correct :)</p>","",""
"2653","key","n","n","16.665591194968723","500","250","psychophysics","479","844914","0.0-479.0","614e2446523bb49af662fb62","6213e4c001590d283e14a34c","7","","","","","1","6"
"null","","","null","","","","html-keyboard-response","480","845415","0.0-480.0","614e2446523bb49af662fb62","6213e4c001590d283e14a34c","","","","","<p style=""color:darkgreen;font-size:24px;"">Correct :)</p>","",""
"2582","key","v","v","16.77409677419346","500","250","psychophysics","481","848003","0.0-481.0","614e2446523bb49af662fb62","6213e4c001590d283e14a34c","7","","","","","0","3"
"null","","","null","","","","html-keyboard-response","482","848507","0.0-482.0","614e2446523bb49af662fb62","6213e4c001590d283e14a34c","","","","","<p style=""color:darkgreen;font-size:24px;"">Correct :)</p>","",""
"2613","key","n","n","16.665955414012323","500","250","psychophysics","483","851125","0.0-483.0","614e2446523bb49af662fb62","6213e4c001590d283e14a34c","7","","","","","0","7"
"null","","","null","","","","html-keyboard-response","484","851626","0.0-484.0","614e2446523bb49af662fb62","6213e4c001590d283e14a34c","","","","","<p style=""color:red;font-size:24px;"">Error :(</p>","",""
"3007","key","n","n","16.665546961325525","500","250","psychophysics","485","854636","0.0-485.0","614e2446523bb49af662fb62","6213e4c001590d283e14a34c","7","","","","","1","7"
"null","","","null","","","","html-keyboard-response","486","855139","0.0-486.0","614e2446523bb49af662fb62","6213e4c001590d283e14a34c","","","","","<p style=""color:darkgreen;font-size:24px;"">Correct :)</p>","",""
"2542","key","v","v","16.66620261437911","500","250","psychophysics","487","857685","0.0-487.0","614e2446523bb49af662fb62","6213e4c001590d283e14a34c","7","","","","","1","1"
"null","","","null","","","","html-keyboard-response","488","858187","0.0-488.0","614e2446523bb49af662fb62","6213e4c001590d283e14a34c","","","","","<p style=""color:darkgreen;font-size:24px;"">Correct :)</p>","",""
"2565","key","v","v","16.66566883116906","500","250","psychophysics","489","860756","0.0-489.0","614e2446523bb49af662fb62","6213e4c001590d283e14a34c","7","","","","","1","1"
"null","","","null","","","","html-keyboard-response","490","861258","0.0-490.0","614e2446523bb49af662fb62","6213e4c001590d283e14a34c","","","","","<p style=""color:darkgreen;font-size:24px;"">Correct :)</p>","",""
"2938","key","v","v","16.66400000000028","500","250","psychophysics","491","864202","0.0-491.0","614e2446523bb49af662fb62","6213e4c001590d283e14a34c","7","","","","","1","4"
"null","","","null","","","","html-keyboard-response","492","864702","0.0-492.0","614e2446523bb49af662fb62","6213e4c001590d283e14a34c","","","","","<p style=""color:darkgreen;font-size:24px;"">Correct :)</p>","",""
"3079","key","n","n","16.66705945945924","500","250","psychophysics","493","867786","0.0-493.0","614e2446523bb49af662fb62","6213e4c001590d283e14a34c","7","","","","","1","7"
"null","","","null","","","","html-keyboard-response","494","868288","0.0-494.0","614e2446523bb49af662fb62","6213e4c001590d283e14a34c","","","","","<p style=""color:darkgreen;font-size:24px;"">Correct :)</p>","",""
"2493","key","v","v","16.666566666666572","500","250","psychophysics","495","870785","0.0-495.0","614e2446523bb49af662fb62","6213e4c001590d283e14a34c","7","","","","","1","3"
"null","","","null","","","","html-keyboard-response","496","871286","0.0-496.0","614e2446523bb49af662fb62","6213e4c001590d283e14a34c","","","","","<p style=""color:darkgreen;font-size:24px;"">Correct :)</p>","",""
