"rt","response_type","key_press","response","avg_frame_time","center_x","center_y","trial_type","trial_index","time_elapsed","internal_node_id","pid","sid","phase","guide","targ","resp","stimulus","is5","stim"
"5265","key"," "," ","18.34217252396166","500","250","psychophysics","0","6080","0.0-0.0","55b249bdfdf99b28e3c14b05","6213c6d234b54da61b622fea","","","","","","",""
"2460","key"," "," ","16.86876712328767","500","250","psychophysics","1","8559","0.0-1.0","55b249bdfdf99b28e3c14b05","6213c6d234b54da61b622fea","","","","","","",""
"2674","key"," "," ","16.744875","500","250","psychophysics","2","11248","0.0-2.0","55b249bdfdf99b28e3c14b05","6213c6d234b54da61b622fea","","","","","","",""
"2511","key"," "," ","16.640666666666657","500","250","psychophysics","3","13765","0.0-3.0","55b249bdfdf99b28e3c14b05","6213c6d234b54da61b622fea","","","","","","",""
"4541","key"," "," ","17.141729323308272","500","250","psychophysics","4","19170","0.0-4.0","55b249bdfdf99b28e3c14b05","6213c6d234b54da61b622fea","","","","","","",""
"13127","key"," "," ","17.02987012987013","500","250","psychophysics","5","32302","0.0-5.0","55b249bdfdf99b28e3c14b05","6213c6d234b54da61b622fea","","","","","","",""
"4751","key"," "," ","17.96454545454545","500","250","psychophysics","6","37058","0.0-6.0","55b249bdfdf99b28e3c14b05","6213c6d234b54da61b622fea","","","","","","",""
"6917","key"," "," ","16.967862407862402","500","250","psychophysics","7","43981","0.0-7.0","55b249bdfdf99b28e3c14b05","6213c6d234b54da61b622fea","","","","","","",""
"8785","key"," "," ","16.96297872340424","500","250","psychophysics","8","52771","0.0-8.0","55b249bdfdf99b28e3c14b05","6213c6d234b54da61b622fea","0","0","59","55","","",""
"4274","key"," "," ","16.70603921568625","500","250","psychophysics","9","57047","0.0-9.0","55b249bdfdf99b28e3c14b05","6213c6d234b54da61b622fea","","","","","","",""
"4003","key"," "," ","21.357219251336915","500","250","psychophysics","10","61055","0.0-10.0","55b249bdfdf99b28e3c14b05","6213c6d234b54da61b622fea","","","","","","",""
"4691","key"," "," ","16.70028571428572","500","250","psychophysics","11","65753","0.0-11.0","55b249bdfdf99b28e3c14b05","6213c6d234b54da61b622fea","","","","","","",""
"8811","key"," "," ","16.798823529411756","500","250","psychophysics","12","74616","0.0-12.0","55b249bdfdf99b28e3c14b05","6213c6d234b54da61b622fea","","","","","","",""
"4042","key"," "," ","16.710207468879684","500","250","psychophysics","13","78664","0.0-13.0","55b249bdfdf99b28e3c14b05","6213c6d234b54da61b622fea","","","","","","",""
"3722","key"," "," ","16.790044843049362","500","250","psychophysics","14","82422","0.0-14.0","55b249bdfdf99b28e3c14b05","6213c6d234b54da61b622fea","","","","","","",""
"4955","key"," "," ","16.753830508474543","500","250","psychophysics","15","87381","0.0-15.0","55b249bdfdf99b28e3c14b05","6213c6d234b54da61b622fea","","","","","","",""
"3873","key"," "," ","16.64086206896555","500","250","psychophysics","16","91257","0.0-16.0","55b249bdfdf99b28e3c14b05","6213c6d234b54da61b622fea","","","","","","",""
"15956","key"," "," ","16.72824763903463","500","250","psychophysics","17","107217","0.0-17.0","55b249bdfdf99b28e3c14b05","6213c6d234b54da61b622fea","1","0","32","41","","",""
"15136","key"," "," ","16.6960706401766","500","250","psychophysics","18","122359","0.0-18.0","55b249bdfdf99b28e3c14b05","6213c6d234b54da61b622fea","1","5","42","42","","",""
"24142","key"," "," ","16.81477351916376","500","250","psychophysics","19","146506","0.0-19.0","55b249bdfdf99b28e3c14b05","6213c6d234b54da61b622fea","1","0","57","108","","",""
"10764","key"," "," ","16.640959752322022","500","250","psychophysics","20","157275","0.0-20.0","55b249bdfdf99b28e3c14b05","6213c6d234b54da61b622fea","1","5","36","41","","",""
"15925","key"," "," ","16.888152866242052","500","250","psychophysics","21","173205","0.0-21.0","55b249bdfdf99b28e3c14b05","6213c6d234b54da61b622fea","1","0","38","67","","",""
"12201","key"," "," ","16.640844686648506","500","250","psychophysics","22","185436","0.0-22.0","55b249bdfdf99b28e3c14b05","6213c6d234b54da61b622fea","1","5","54","56","","",""
"14321","key"," "," ","16.777447306791572","500","250","psychophysics","23","199785","0.0-23.0","55b249bdfdf99b28e3c14b05","6213c6d234b54da61b622fea","1","0","38","78","","",""
"40798","key"," "," ","16.668093099224176","500","250","psychophysics","24","240609","0.0-24.0","55b249bdfdf99b28e3c14b05","6213c6d234b54da61b622fea","1","5","59","56","","",""
"15213","key"," "," ","16.806548672566368","500","250","psychophysics","25","255825","0.0-25.0","55b249bdfdf99b28e3c14b05","6213c6d234b54da61b622fea","1","0","59","107","","",""
"15870","key"," "," ","16.763864836325244","500","250","psychophysics","26","271713","0.0-26.0","55b249bdfdf99b28e3c14b05","6213c6d234b54da61b622fea","1","5","20","29","","",""
"12384","key"," "," ","16.66331536388139","500","250","psychophysics","27","284103","0.0-27.0","55b249bdfdf99b28e3c14b05","6213c6d234b54da61b622fea","1","0","20","40","","",""
"21811","key"," "," ","16.730222222222224","500","250","psychophysics","28","305943","0.0-28.0","55b249bdfdf99b28e3c14b05","6213c6d234b54da61b622fea","1","5","31","36","","",""
"23650","key"," "," ","16.652586328400297","500","250","psychophysics","29","329597","0.0-29.0","55b249bdfdf99b28e3c14b05","6213c6d234b54da61b622fea","1","0","21","40","","",""
"14569","key"," "," ","16.67910755148739","500","250","psychophysics","30","344194","0.0-30.0","55b249bdfdf99b28e3c14b05","6213c6d234b54da61b622fea","1","5","25","33","","",""
"52745","key"," "," ","16.741256743890833","500","250","psychophysics","31","396952","0.0-31.0","55b249bdfdf99b28e3c14b05","6213c6d234b54da61b622fea","1","0","37","65","","",""
"10129","key"," "," ","16.778739635157574","500","250","psychophysics","32","407083","0.0-32.0","55b249bdfdf99b28e3c14b05","6213c6d234b54da61b622fea","1","5","40","42","","",""
"16459","key"," "," ","16.708699186991854","500","250","psychophysics","33","423545","0.0-33.0","55b249bdfdf99b28e3c14b05","6213c6d234b54da61b622fea","1","0","50","90","","",""
"36460","key"," "," ","16.801964038727533","500","250","psychophysics","34","460010","0.0-34.0","55b249bdfdf99b28e3c14b05","6213c6d234b54da61b622fea","1","5","31","38","","",""
"26413","key"," "," ","16.82109554140127","500","250","psychophysics","35","486438","0.0-35.0","55b249bdfdf99b28e3c14b05","6213c6d234b54da61b622fea","1","0","44","79","","",""
"11993","key"," "," ","16.9945325779037","500","250","psychophysics","36","498446","0.0-36.0","55b249bdfdf99b28e3c14b05","6213c6d234b54da61b622fea","1","5","39","40","","",""
"6499","key"," "," ","16.769767441860374","500","250","psychophysics","37","504950","0.0-37.0","55b249bdfdf99b28e3c14b05","6213c6d234b54da61b622fea","","","","","","",""
"8700","key"," "," ","16.64084291187743","500","250","psychophysics","38","513655","0.0-38.0","55b249bdfdf99b28e3c14b05","6213c6d234b54da61b622fea","","","","","","",""
"3063","key"," "," ","16.64142076502735","500","250","psychophysics","39","516723","0.0-39.0","55b249bdfdf99b28e3c14b05","6213c6d234b54da61b622fea","","","","","","",""
"29167","key"," "," ","16.74586345381525","500","250","psychophysics","40","545923","0.0-40.0","55b249bdfdf99b28e3c14b05","6213c6d234b54da61b622fea","2","0","31","55","","",""
"7056","key"," "," ","17.210709046454895","500","250","psychophysics","41","552988","0.0-41.0","55b249bdfdf99b28e3c14b05","6213c6d234b54da61b622fea","","","","","","",""
"6876","key"," "," ","17.136724565756765","500","250","psychophysics","42","559899","0.0-42.0","55b249bdfdf99b28e3c14b05","6213c6d234b54da61b622fea","2","0","24","32","","",""
"3507","key"," "," ","16.640095238094883","500","250","psychophysics","43","563412","0.0-43.0","55b249bdfdf99b28e3c14b05","6213c6d234b54da61b622fea","","","","","","",""
"13359","key"," "," ","16.787471698113254","500","250","psychophysics","44","576777","0.0-44.0","55b249bdfdf99b28e3c14b05","6213c6d234b54da61b622fea","2","0","54","60","","",""
"2890","key"," "," ","16.641034482758165","500","250","psychophysics","45","579687","0.0-45.0","55b249bdfdf99b28e3c14b05","6213c6d234b54da61b622fea","","","","","","",""
"12195","key"," "," ","16.66380300957591","500","250","psychophysics","46","591888","0.0-46.0","55b249bdfdf99b28e3c14b05","6213c6d234b54da61b622fea","2","0","52","70","","",""
"2848","key"," "," ","16.640584795321857","500","250","psychophysics","47","594754","0.0-47.0","55b249bdfdf99b28e3c14b05","6213c6d234b54da61b622fea","","","","","","",""
"10047","key"," "," ","16.64086092715225","500","250","psychophysics","48","604815","0.0-48.0","55b249bdfdf99b28e3c14b05","6213c6d234b54da61b622fea","2","0","44","59","","",""
"2890","key"," "," ","16.64080924855483","500","250","psychophysics","49","607709","0.0-49.0","55b249bdfdf99b28e3c14b05","6213c6d234b54da61b622fea","","","","","","",""
"7981","key"," "," ","16.852372881355823","500","250","psychophysics","50","615697","0.0-50.0","55b249bdfdf99b28e3c14b05","6213c6d234b54da61b622fea","2","0","32","40","","",""
"2229","key"," "," ","16.640902255639027","500","250","psychophysics","51","617927","0.0-51.0","55b249bdfdf99b28e3c14b05","6213c6d234b54da61b622fea","","","","","","",""
"10182","key"," "," ","16.69546798029563","500","250","psychophysics","52","628111","0.0-52.0","55b249bdfdf99b28e3c14b05","6213c6d234b54da61b622fea","2","0","24","33","","",""
"1816","key"," "," ","16.64074074074031","500","250","psychophysics","53","629934","0.0-53.0","55b249bdfdf99b28e3c14b05","6213c6d234b54da61b622fea","","","","","","",""
"15541","key"," "," ","20.499868247694366","500","250","psychophysics","54","645500","0.0-54.0","55b249bdfdf99b28e3c14b05","6213c6d234b54da61b622fea","2","0","40","55","","",""
"1726","key"," "," ","16.80392156862745","500","250","psychophysics","55","647231","0.0-55.0","55b249bdfdf99b28e3c14b05","6213c6d234b54da61b622fea","","","","","","",""
"12629","key"," "," ","16.729177718832798","500","250","psychophysics","56","659867","0.0-56.0","55b249bdfdf99b28e3c14b05","6213c6d234b54da61b622fea","2","0","25","40","","",""
"2658","key"," "," ","16.640374999999768","500","250","psychophysics","57","662539","0.0-57.0","55b249bdfdf99b28e3c14b05","6213c6d234b54da61b622fea","","","","","","",""
"9499","key"," "," ","16.7293121693122","500","250","psychophysics","58","672044","0.0-58.0","55b249bdfdf99b28e3c14b05","6213c6d234b54da61b622fea","2","0","48","65","","",""
"2277","key"," "," ","16.640441176470418","500","250","psychophysics","59","674327","0.0-59.0","55b249bdfdf99b28e3c14b05","6213c6d234b54da61b622fea","","","","","","",""
"10074","key"," "," ","16.920537815126004","500","250","psychophysics","60","684418","0.0-60.0","55b249bdfdf99b28e3c14b05","6213c6d234b54da61b622fea","2","0","47","55","","",""
"1196","key"," "," ","17.109577464789126","500","250","psychophysics","61","685644","0.0-61.0","55b249bdfdf99b28e3c14b05","6213c6d234b54da61b622fea","","","","","","",""
"5757","key"," "," ","16.78664723032055","500","250","psychophysics","62","691421","0.0-62.0","55b249bdfdf99b28e3c14b05","6213c6d234b54da61b622fea","2","0","35","45","","",""
"1677","key"," "," ","16.805346534653143","500","250","psychophysics","63","693128","0.0-63.0","55b249bdfdf99b28e3c14b05","6213c6d234b54da61b622fea","","","","","","",""
"8156","key"," "," ","16.6748770491805","500","250","psychophysics","64","701288","0.0-64.0","55b249bdfdf99b28e3c14b05","6213c6d234b54da61b622fea","2","0","48","64","","",""
"835","key"," "," ","16.640800000000745","500","250","psychophysics","65","702137","0.0-65.0","55b249bdfdf99b28e3c14b05","6213c6d234b54da61b622fea","","","","","","",""
"5297","key"," "," ","16.746119873817094","500","250","psychophysics","66","707460","0.0-66.0","55b249bdfdf99b28e3c14b05","6213c6d234b54da61b622fea","2","0","31","43","","",""
"1125","key"," "," ","16.88865671641673","500","250","psychophysics","67","708603","0.0-67.0","55b249bdfdf99b28e3c14b05","6213c6d234b54da61b622fea","","","","","","",""
"10999","key"," "," ","17.027844961240252","500","250","psychophysics","68","719607","0.0-68.0","55b249bdfdf99b28e3c14b05","6213c6d234b54da61b622fea","2","0","56","72","","",""
"693","key"," "," ","18.830526315790944","500","250","psychophysics","69","720336","0.0-69.0","55b249bdfdf99b28e3c14b05","6213c6d234b54da61b622fea","","","","","","",""
"5164","key"," "," ","16.74854368932016","500","250","psychophysics","70","725534","0.0-70.0","55b249bdfdf99b28e3c14b05","6213c6d234b54da61b622fea","","","","","","",""
"3799","key"," "," ","16.71418502202641","500","250","psychophysics","71","729349","0.0-71.0","55b249bdfdf99b28e3c14b05","6213c6d234b54da61b622fea","","","","","","",""
"6814","key"," "," ","16.84571428571425","500","250","psychophysics","72","736197","0.0-72.0","55b249bdfdf99b28e3c14b05","6213c6d234b54da61b622fea","3","5","40","40","","",""
"8330","key"," "," ","16.70803212851401","500","250","psychophysics","73","744530","0.0-73.0","55b249bdfdf99b28e3c14b05","6213c6d234b54da61b622fea","3","0","25","42","","",""
"7305","key"," "," ","16.91122969837585","500","250","psychophysics","74","751842","0.0-74.0","55b249bdfdf99b28e3c14b05","6213c6d234b54da61b622fea","3","5","32","35","","",""
"6502","key"," "," ","16.726153846154027","500","250","psychophysics","75","758376","0.0-75.0","55b249bdfdf99b28e3c14b05","6213c6d234b54da61b622fea","3","0","31","46","","",""
"8147","key"," "," ","16.64085889570553","500","250","psychophysics","76","766528","0.0-76.0","55b249bdfdf99b28e3c14b05","6213c6d234b54da61b622fea","3","5","20","26","","",""
"11647","key"," "," ","16.78493506493518","500","250","psychophysics","77","778182","0.0-77.0","55b249bdfdf99b28e3c14b05","6213c6d234b54da61b622fea","3","0","55","73","","",""
"10581","key"," "," ","16.74597156398097","500","250","psychophysics","78","788797","0.0-78.0","55b249bdfdf99b28e3c14b05","6213c6d234b54da61b622fea","3","5","38","44","","",""
"8549","key"," "," ","16.705988258317042","500","250","psychophysics","79","797351","0.0-79.0","55b249bdfdf99b28e3c14b05","6213c6d234b54da61b622fea","3","0","41","69","","",""
"13001","key"," "," ","16.87849546044092","500","250","psychophysics","80","810384","0.0-80.0","55b249bdfdf99b28e3c14b05","6213c6d234b54da61b622fea","3","5","44","46","","",""
"10052","key"," "," ","16.696152570480976","500","250","psychophysics","81","820467","0.0-81.0","55b249bdfdf99b28e3c14b05","6213c6d234b54da61b622fea","3","0","30","54","","",""
"13088","key"," "," ","16.790230769230774","500","250","psychophysics","82","833582","0.0-82.0","55b249bdfdf99b28e3c14b05","6213c6d234b54da61b622fea","3","5","36","42","","",""
"14439","key"," "," ","16.67930715935338","500","250","psychophysics","83","848035","0.0-83.0","55b249bdfdf99b28e3c14b05","6213c6d234b54da61b622fea","3","0","53","71","","",""
"7018","key"," "," ","16.680619047619015","500","250","psychophysics","84","855061","0.0-84.0","55b249bdfdf99b28e3c14b05","6213c6d234b54da61b622fea","3","5","41","43","","",""
"15190","key"," "," ","16.71418502202641","500","250","psychophysics","85","870256","0.0-85.0","55b249bdfdf99b28e3c14b05","6213c6d234b54da61b622fea","3","0","44","69","","",""
"11213","key"," "," ","16.640980683506694","500","250","psychophysics","86","881472","0.0-86.0","55b249bdfdf99b28e3c14b05","6213c6d234b54da61b622fea","3","5","55","53","","",""
"11063","key"," "," ","16.716369137670224","500","250","psychophysics","87","892538","0.0-87.0","55b249bdfdf99b28e3c14b05","6213c6d234b54da61b622fea","3","0","28","54","","",""
"12239","key"," "," ","16.64092517006797","500","250","psychophysics","88","904779","0.0-88.0","55b249bdfdf99b28e3c14b05","6213c6d234b54da61b622fea","3","5","46","48","","",""
"36310","key"," "," ","16.64850458715596","500","250","psychophysics","89","941090","0.0-89.0","55b249bdfdf99b28e3c14b05","6213c6d234b54da61b622fea","3","0","25","43","","",""
"9474","key"," "," ","16.67044091710761","500","250","psychophysics","90","950567","0.0-90.0","55b249bdfdf99b28e3c14b05","6213c6d234b54da61b622fea","3","5","29","33","","",""
"14778","key"," "," ","16.640900900900895","500","250","psychophysics","91","965357","0.0-91.0","55b249bdfdf99b28e3c14b05","6213c6d234b54da61b622fea","3","0","51","66","","",""
"1702","key"," "," ","16.640792079207642","500","250","psychophysics","92","967062","0.0-92.0","55b249bdfdf99b28e3c14b05","6213c6d234b54da61b622fea","","","","","","",""
"53222","","","v","","","","html-keyboard-response","93","1020286","0.0-93.0","55b249bdfdf99b28e3c14b05","6213c6d234b54da61b622fea","","","","","<p> In this part of the experiment, we are going present digits 1, 2, 3, 4, 6, 7, 8, and 9.  Notice that 5 is missing.  Your job is to say whether the presented digit is less than or greater than 5.  For example, 3 is less than 5 and 7 is greater than 5.  If the digit is less than 5, press the v key; if it is greater than 5, press the n key. We are going to do 200 of these in total, but only 50 righ now. They go real fast.</p>  <br><br>  Ready? (press v or n)","",""
"2914","key","n","n","16.789195402299224","500","250","psychophysics","94","1023227","0.0-94.0","55b249bdfdf99b28e3c14b05","6213c6d234b54da61b622fea","4","","","","","1","9"
"null","","","null","","","","html-keyboard-response","95","1023733","0.0-95.0","55b249bdfdf99b28e3c14b05","6213c6d234b54da61b622fea","","","","","<p style=""color:darkgreen;font-size:24px;"">Correct :)</p>","",""
"2520","key","v","v","17.73440559440491","500","250","psychophysics","96","1026287","0.0-96.0","55b249bdfdf99b28e3c14b05","6213c6d234b54da61b622fea","4","","","","","1","4"
"null","","","null","","","","html-keyboard-response","97","1026802","0.0-97.0","55b249bdfdf99b28e3c14b05","6213c6d234b54da61b622fea","","","","","<p style=""color:darkgreen;font-size:24px;"">Correct :)</p>","",""
"2416","key","v","v","18.110222222222255","500","250","psychophysics","98","1029257","0.0-98.0","55b249bdfdf99b28e3c14b05","6213c6d234b54da61b622fea","4","","","","","1","3"
"null","","","null","","","","html-keyboard-response","99","1029772","0.0-99.0","55b249bdfdf99b28e3c14b05","6213c6d234b54da61b622fea","","","","","<p style=""color:darkgreen;font-size:24px;"">Correct :)</p>","",""
"2481","key","v","v","17.882999999999967","500","250","psychophysics","100","1032284","0.0-100.0","55b249bdfdf99b28e3c14b05","6213c6d234b54da61b622fea","4","","","","","1","2"
"null","","","null","","","","html-keyboard-response","101","1032794","0.0-101.0","55b249bdfdf99b28e3c14b05","6213c6d234b54da61b622fea","","","","","<p style=""color:darkgreen;font-size:24px;"">Correct :)</p>","",""
"2459","key","v","v","18.76954545454514","500","250","psychophysics","102","1035291","0.0-102.0","55b249bdfdf99b28e3c14b05","6213c6d234b54da61b622fea","4","","","","","1","3"
"null","","","null","","","","html-keyboard-response","103","1035793","0.0-103.0","55b249bdfdf99b28e3c14b05","6213c6d234b54da61b622fea","","","","","<p style=""color:darkgreen;font-size:24px;"">Correct :)</p>","",""
"2458","key","v","v","16.711756756756536","500","250","psychophysics","104","1038278","0.0-104.0","55b249bdfdf99b28e3c14b05","6213c6d234b54da61b622fea","4","","","","","1","2"
"null","","","null","","","","html-keyboard-response","105","1038793","0.0-105.0","55b249bdfdf99b28e3c14b05","6213c6d234b54da61b622fea","","","","","<p style=""color:darkgreen;font-size:24px;"">Correct :)</p>","",""
"2521","key","n","n","17.488413793103096","500","250","psychophysics","106","1041350","0.0-106.0","55b249bdfdf99b28e3c14b05","6213c6d234b54da61b622fea","4","","","","","1","7"
"null","","","null","","","","html-keyboard-response","107","1041856","0.0-107.0","55b249bdfdf99b28e3c14b05","6213c6d234b54da61b622fea","","","","","<p style=""color:darkgreen;font-size:24px;"">Correct :)</p>","",""
"2554","key","n","n","16.677272727273028","500","250","psychophysics","108","1044439","0.0-108.0","55b249bdfdf99b28e3c14b05","6213c6d234b54da61b622fea","4","","","","","1","7"
"null","","","null","","","","html-keyboard-response","109","1044953","0.0-109.0","55b249bdfdf99b28e3c14b05","6213c6d234b54da61b622fea","","","","","<p style=""color:darkgreen;font-size:24px;"">Correct :)</p>","",""
"2512","key","v","v","17.233061224489067","500","250","psychophysics","110","1047495","0.0-110.0","55b249bdfdf99b28e3c14b05","6213c6d234b54da61b622fea","4","","","","","1","2"
"null","","","null","","","","html-keyboard-response","111","1048002","0.0-111.0","55b249bdfdf99b28e3c14b05","6213c6d234b54da61b622fea","","","","","<p style=""color:darkgreen;font-size:24px;"">Correct :)</p>","",""
"2736","key","n","n","16.94564417177851","500","250","psychophysics","112","1050774","0.0-112.0","55b249bdfdf99b28e3c14b05","6213c6d234b54da61b622fea","4","","","","","1","7"
"null","","","null","","","","html-keyboard-response","113","1051277","0.0-113.0","55b249bdfdf99b28e3c14b05","6213c6d234b54da61b622fea","","","","","<p style=""color:darkgreen;font-size:24px;"">Correct :)</p>","",""
"2446","key","v","v","16.774557823128365","500","250","psychophysics","114","1053749","0.0-114.0","55b249bdfdf99b28e3c14b05","6213c6d234b54da61b622fea","4","","","","","1","4"
"null","","","null","","","","html-keyboard-response","115","1054262","0.0-115.0","55b249bdfdf99b28e3c14b05","6213c6d234b54da61b622fea","","","","","<p style=""color:darkgreen;font-size:24px;"">Correct :)</p>","",""
"2534","key","n","n","17.529589041096337","500","250","psychophysics","116","1056834","0.0-116.0","55b249bdfdf99b28e3c14b05","6213c6d234b54da61b622fea","4","","","","","1","7"
"null","","","null","","","","html-keyboard-response","117","1057337","0.0-117.0","55b249bdfdf99b28e3c14b05","6213c6d234b54da61b622fea","","","","","<p style=""color:darkgreen;font-size:24px;"">Correct :)</p>","",""
"2496","key","v","v","17.700000000000983","500","250","psychophysics","118","1059863","0.0-118.0","55b249bdfdf99b28e3c14b05","6213c6d234b54da61b622fea","4","","","","","1","1"
"null","","","null","","","","html-keyboard-response","119","1060373","0.0-119.0","55b249bdfdf99b28e3c14b05","6213c6d234b54da61b622fea","","","","","<p style=""color:darkgreen;font-size:24px;"">Correct :)</p>","",""
"2671","key","v","v","17.687631578947492","500","250","psychophysics","120","1063073","0.0-120.0","55b249bdfdf99b28e3c14b05","6213c6d234b54da61b622fea","4","","","","","1","4"
"null","","","null","","","","html-keyboard-response","121","1063577","0.0-121.0","55b249bdfdf99b28e3c14b05","6213c6d234b54da61b622fea","","","","","<p style=""color:darkgreen;font-size:24px;"">Correct :)</p>","",""
"2791","key","n","n","17.046666666666386","500","250","psychophysics","122","1066397","0.0-122.0","55b249bdfdf99b28e3c14b05","6213c6d234b54da61b622fea","4","","","","","1","8"
"null","","","null","","","","html-keyboard-response","123","1066912","0.0-123.0","55b249bdfdf99b28e3c14b05","6213c6d234b54da61b622fea","","","","","<p style=""color:darkgreen;font-size:24px;"">Correct :)</p>","",""
"2503","key","v","v","17.398896551724714","500","250","psychophysics","124","1069446","0.0-124.0","55b249bdfdf99b28e3c14b05","6213c6d234b54da61b622fea","4","","","","","1","3"
"null","","","null","","","","html-keyboard-response","125","1069959","0.0-125.0","55b249bdfdf99b28e3c14b05","6213c6d234b54da61b622fea","","","","","<p style=""color:darkgreen;font-size:24px;"">Correct :)</p>","",""
"2558","key","v","v","17.251866666666853","500","250","psychophysics","126","1072555","0.0-126.0","55b249bdfdf99b28e3c14b05","6213c6d234b54da61b622fea","4","","","","","1","1"
"null","","","null","","","","html-keyboard-response","127","1073059","0.0-127.0","55b249bdfdf99b28e3c14b05","6213c6d234b54da61b622fea","","","","","<p style=""color:darkgreen;font-size:24px;"">Correct :)</p>","",""
"2617","key","v","v","17.328366013071836","500","250","psychophysics","128","1075718","0.0-128.0","55b249bdfdf99b28e3c14b05","6213c6d234b54da61b622fea","4","","","","","1","3"
"null","","","null","","","","html-keyboard-response","129","1076225","0.0-129.0","55b249bdfdf99b28e3c14b05","6213c6d234b54da61b622fea","","","","","<p style=""color:darkgreen;font-size:24px;"">Correct :)</p>","",""
"3403","key","n","n","17.582974358975218","500","250","psychophysics","130","1079663","0.0-130.0","55b249bdfdf99b28e3c14b05","6213c6d234b54da61b622fea","4","","","","","1","6"
"null","","","null","","","","html-keyboard-response","131","1080173","0.0-131.0","55b249bdfdf99b28e3c14b05","6213c6d234b54da61b622fea","","","","","<p style=""color:darkgreen;font-size:24px;"">Correct :)</p>","",""
"2416","key","n","n","17.446571428571563","500","250","psychophysics","132","1082624","0.0-132.0","55b249bdfdf99b28e3c14b05","6213c6d234b54da61b622fea","4","","","","","1","8"
"null","","","null","","","","html-keyboard-response","133","1083127","0.0-133.0","55b249bdfdf99b28e3c14b05","6213c6d234b54da61b622fea","","","","","<p style=""color:darkgreen;font-size:24px;"">Correct :)</p>","",""
"2675","key","v","v","16.660000000000977","500","250","psychophysics","134","1085834","0.0-134.0","55b249bdfdf99b28e3c14b05","6213c6d234b54da61b622fea","4","","","","","1","3"
"null","","","null","","","","html-keyboard-response","135","1086345","0.0-135.0","55b249bdfdf99b28e3c14b05","6213c6d234b54da61b622fea","","","","","<p style=""color:darkgreen;font-size:24px;"">Correct :)</p>","",""
"2553","key","n","n","16.73189542483648","500","250","psychophysics","136","1088915","0.0-136.0","55b249bdfdf99b28e3c14b05","6213c6d234b54da61b622fea","4","","","","","1","9"
"null","","","null","","","","html-keyboard-response","137","1089418","0.0-137.0","55b249bdfdf99b28e3c14b05","6213c6d234b54da61b622fea","","","","","<p style=""color:darkgreen;font-size:24px;"">Correct :)</p>","",""
"2521","key","v","v","16.656052631578763","500","250","psychophysics","138","1091960","0.0-138.0","55b249bdfdf99b28e3c14b05","6213c6d234b54da61b622fea","4","","","","","1","3"
"null","","","null","","","","html-keyboard-response","139","1092467","0.0-139.0","55b249bdfdf99b28e3c14b05","6213c6d234b54da61b622fea","","","","","<p style=""color:darkgreen;font-size:24px;"">Correct :)</p>","",""
"2551","key","n","n","16.85437908496714","500","250","psychophysics","140","1095055","0.0-140.0","55b249bdfdf99b28e3c14b05","6213c6d234b54da61b622fea","4","","","","","1","8"
"null","","","null","","","","html-keyboard-response","141","1095561","0.0-141.0","55b249bdfdf99b28e3c14b05","6213c6d234b54da61b622fea","","","","","<p style=""color:darkgreen;font-size:24px;"">Correct :)</p>","",""
"2430","key","v","v","16.98916666666628","500","250","psychophysics","142","1098022","0.0-142.0","55b249bdfdf99b28e3c14b05","6213c6d234b54da61b622fea","4","","","","","1","2"
"null","","","null","","","","html-keyboard-response","143","1098534","0.0-143.0","55b249bdfdf99b28e3c14b05","6213c6d234b54da61b622fea","","","","","<p style=""color:darkgreen;font-size:24px;"">Correct :)</p>","",""
"2850","key","v","v","17.28048192771118","500","250","psychophysics","144","1101419","0.0-144.0","55b249bdfdf99b28e3c14b05","6213c6d234b54da61b622fea","4","","","","","1","3"
"null","","","null","","","","html-keyboard-response","145","1101929","0.0-145.0","55b249bdfdf99b28e3c14b05","6213c6d234b54da61b622fea","","","","","<p style=""color:darkgreen;font-size:24px;"">Correct :)</p>","",""
"2731","key","n","n","16.67733333333339","500","250","psychophysics","146","1104694","0.0-146.0","55b249bdfdf99b28e3c14b05","6213c6d234b54da61b622fea","4","","","","","1","8"
"null","","","null","","","","html-keyboard-response","147","1105197","0.0-147.0","55b249bdfdf99b28e3c14b05","6213c6d234b54da61b622fea","","","","","<p style=""color:darkgreen;font-size:24px;"">Correct :)</p>","",""
"3137","key","n","n","16.724893617021426","500","250","psychophysics","148","1108354","0.0-148.0","55b249bdfdf99b28e3c14b05","6213c6d234b54da61b622fea","4","","","","","1","6"
"null","","","null","","","","html-keyboard-response","149","1108863","0.0-149.0","55b249bdfdf99b28e3c14b05","6213c6d234b54da61b622fea","","","","","<p style=""color:darkgreen;font-size:24px;"">Correct :)</p>","",""
"2467","key","n","n","17.923021582734147","500","250","psychophysics","150","1111365","0.0-150.0","55b249bdfdf99b28e3c14b05","6213c6d234b54da61b622fea","4","","","","","1","7"
"null","","","null","","","","html-keyboard-response","151","1111873","0.0-151.0","55b249bdfdf99b28e3c14b05","6213c6d234b54da61b622fea","","","","","<p style=""color:darkgreen;font-size:24px;"">Correct :)</p>","",""
"2565","key","v","v","16.83220779220876","500","250","psychophysics","152","1114476","0.0-152.0","55b249bdfdf99b28e3c14b05","6213c6d234b54da61b622fea","4","","","","","1","2"
"null","","","null","","","","html-keyboard-response","153","1114988","0.0-153.0","55b249bdfdf99b28e3c14b05","6213c6d234b54da61b622fea","","","","","<p style=""color:darkgreen;font-size:24px;"">Correct :)</p>","",""
"2504","key","v","v","16.82","500","250","psychophysics","154","1117525","0.0-154.0","55b249bdfdf99b28e3c14b05","6213c6d234b54da61b622fea","4","","","","","1","1"
"null","","","null","","","","html-keyboard-response","155","1118034","0.0-155.0","55b249bdfdf99b28e3c14b05","6213c6d234b54da61b622fea","","","","","<p style=""color:darkgreen;font-size:24px;"">Correct :)</p>","",""
"2551","key","n","n","18.37485714285701","500","250","psychophysics","156","1120620","0.0-156.0","55b249bdfdf99b28e3c14b05","6213c6d234b54da61b622fea","4","","","","","1","7"
"null","","","null","","","","html-keyboard-response","157","1121132","0.0-157.0","55b249bdfdf99b28e3c14b05","6213c6d234b54da61b622fea","","","","","<p style=""color:darkgreen;font-size:24px;"">Correct :)</p>","",""
"2520","key","v","v","16.909733333333087","500","250","psychophysics","158","1123677","0.0-158.0","55b249bdfdf99b28e3c14b05","6213c6d234b54da61b622fea","4","","","","","1","3"
"null","","","null","","","","html-keyboard-response","159","1124187","0.0-159.0","55b249bdfdf99b28e3c14b05","6213c6d234b54da61b622fea","","","","","<p style=""color:darkgreen;font-size:24px;"">Correct :)</p>","",""
"2457","key","n","n","16.730675675674984","500","250","psychophysics","160","1126671","0.0-160.0","55b249bdfdf99b28e3c14b05","6213c6d234b54da61b622fea","4","","","","","1","8"
"null","","","null","","","","html-keyboard-response","161","1127177","0.0-161.0","55b249bdfdf99b28e3c14b05","6213c6d234b54da61b622fea","","","","","<p style=""color:darkgreen;font-size:24px;"">Correct :)</p>","",""
"2435","key","n","n","18.54893939393911","500","250","psychophysics","162","1129639","0.0-162.0","55b249bdfdf99b28e3c14b05","6213c6d234b54da61b622fea","4","","","","","1","6"
"null","","","null","","","","html-keyboard-response","163","1130153","0.0-163.0","55b249bdfdf99b28e3c14b05","6213c6d234b54da61b622fea","","","","","<p style=""color:darkgreen;font-size:24px;"">Correct :)</p>","",""
"2418","key","v","v","16.792328767124435","500","250","psychophysics","164","1132613","0.0-164.0","55b249bdfdf99b28e3c14b05","6213c6d234b54da61b622fea","4","","","","","1","1"
"null","","","null","","","","html-keyboard-response","165","1133129","0.0-165.0","55b249bdfdf99b28e3c14b05","6213c6d234b54da61b622fea","","","","","<p style=""color:darkgreen;font-size:24px;"">Correct :)</p>","",""
"2464","key","n","n","16.81261744966493","500","250","psychophysics","166","1135643","0.0-166.0","55b249bdfdf99b28e3c14b05","6213c6d234b54da61b622fea","4","","","","","1","9"
"null","","","null","","","","html-keyboard-response","167","1136154","0.0-167.0","55b249bdfdf99b28e3c14b05","6213c6d234b54da61b622fea","","","","","<p style=""color:darkgreen;font-size:24px;"">Correct :)</p>","",""
"2442","key","v","v","18.062919708028314","500","250","psychophysics","168","1138640","0.0-168.0","55b249bdfdf99b28e3c14b05","6213c6d234b54da61b622fea","4","","","","","1","2"
"null","","","null","","","","html-keyboard-response","169","1139143","0.0-169.0","55b249bdfdf99b28e3c14b05","6213c6d234b54da61b622fea","","","","","<p style=""color:darkgreen;font-size:24px;"">Correct :)</p>","",""
"2512","key","v","v","16.867814569535128","500","250","psychophysics","170","1141699","0.0-170.0","55b249bdfdf99b28e3c14b05","6213c6d234b54da61b622fea","4","","","","","1","1"
"null","","","null","","","","html-keyboard-response","171","1142203","0.0-171.0","55b249bdfdf99b28e3c14b05","6213c6d234b54da61b622fea","","","","","<p style=""color:darkgreen;font-size:24px;"">Correct :)</p>","",""
"2480","key","v","v","17.003537414966114","500","250","psychophysics","172","1144717","0.0-172.0","55b249bdfdf99b28e3c14b05","6213c6d234b54da61b622fea","4","","","","","1","2"
"null","","","null","","","","html-keyboard-response","173","1145233","0.0-173.0","55b249bdfdf99b28e3c14b05","6213c6d234b54da61b622fea","","","","","<p style=""color:darkgreen;font-size:24px;"">Correct :)</p>","",""
"2120","key","v","v","16.91889763779491","500","250","psychophysics","174","1147390","0.0-174.0","55b249bdfdf99b28e3c14b05","6213c6d234b54da61b622fea","4","","","","","1","7"
"null","","","null","","","","html-keyboard-response","175","1147896","0.0-175.0","55b249bdfdf99b28e3c14b05","6213c6d234b54da61b622fea","","","","","<p style=""color:red;font-size:24px;"">Error :(</p>","",""
"305","key","n","n","16.715789473689114","500","250","psychophysics","176","1148223","0.0-176.0","55b249bdfdf99b28e3c14b05","6213c6d234b54da61b622fea","4","","","","","1","1"
"null","","","null","","","","html-keyboard-response","177","1148731","0.0-177.0","55b249bdfdf99b28e3c14b05","6213c6d234b54da61b622fea","","","","","<p style=""color:red;font-size:24px;"">Error :(</p>","",""
"2548","key","v","v","17.18228187919407","500","250","psychophysics","178","1151306","0.0-178.0","55b249bdfdf99b28e3c14b05","6213c6d234b54da61b622fea","4","","","","","1","2"
"null","","","null","","","","html-keyboard-response","179","1151818","0.0-179.0","55b249bdfdf99b28e3c14b05","6213c6d234b54da61b622fea","","","","","<p style=""color:darkgreen;font-size:24px;"">Correct :)</p>","",""
"2591","key","n","n","18.708000000000798","500","250","psychophysics","180","1154447","0.0-180.0","55b249bdfdf99b28e3c14b05","6213c6d234b54da61b622fea","4","","","","","1","6"
"null","","","null","","","","html-keyboard-response","181","1154953","0.0-181.0","55b249bdfdf99b28e3c14b05","6213c6d234b54da61b622fea","","","","","<p style=""color:darkgreen;font-size:24px;"">Correct :)</p>","",""
"2555","key","n","n","18.03608391608496","500","250","psychophysics","182","1157540","0.0-182.0","55b249bdfdf99b28e3c14b05","6213c6d234b54da61b622fea","4","","","","","1","9"
"null","","","null","","","","html-keyboard-response","183","1158052","0.0-183.0","55b249bdfdf99b28e3c14b05","6213c6d234b54da61b622fea","","","","","<p style=""color:darkgreen;font-size:24px;"">Correct :)</p>","",""
"2765","key","n","n","17.555974842768173","500","250","psychophysics","184","1160852","0.0-184.0","55b249bdfdf99b28e3c14b05","6213c6d234b54da61b622fea","4","","","","","1","8"
"null","","","null","","","","html-keyboard-response","185","1161364","0.0-185.0","55b249bdfdf99b28e3c14b05","6213c6d234b54da61b622fea","","","","","<p style=""color:darkgreen;font-size:24px;"">Correct :)</p>","",""
"2401","key","v","v","17.20312056737516","500","250","psychophysics","186","1163798","0.0-186.0","55b249bdfdf99b28e3c14b05","6213c6d234b54da61b622fea","4","","","","","1","2"
"null","","","null","","","","html-keyboard-response","187","1164307","0.0-187.0","55b249bdfdf99b28e3c14b05","6213c6d234b54da61b622fea","","","","","<p style=""color:darkgreen;font-size:24px;"">Correct :)</p>","",""
"2654","key","v","v","19.122285714286512","500","250","psychophysics","188","1166997","0.0-188.0","55b249bdfdf99b28e3c14b05","6213c6d234b54da61b622fea","4","","","","","1","1"
"null","","","null","","","","html-keyboard-response","189","1167506","0.0-189.0","55b249bdfdf99b28e3c14b05","6213c6d234b54da61b622fea","","","","","<p style=""color:darkgreen;font-size:24px;"">Correct :)</p>","",""
"2767","key","v","v","17.221358024690552","500","250","psychophysics","190","1170308","0.0-190.0","55b249bdfdf99b28e3c14b05","6213c6d234b54da61b622fea","4","","","","","1","4"
"null","","","null","","","","html-keyboard-response","191","1170822","0.0-191.0","55b249bdfdf99b28e3c14b05","6213c6d234b54da61b622fea","","","","","<p style=""color:darkgreen;font-size:24px;"">Correct :)</p>","",""
"2595","key","v","v","17.341192052980254","500","250","psychophysics","192","1173449","0.0-192.0","55b249bdfdf99b28e3c14b05","6213c6d234b54da61b622fea","4","","","","","1","3"
"null","","","null","","","","html-keyboard-response","193","1173958","0.0-193.0","55b249bdfdf99b28e3c14b05","6213c6d234b54da61b622fea","","","","","<p style=""color:darkgreen;font-size:24px;"">Correct :)</p>","",""
"36163","","","v","","","","html-keyboard-response","194","1210124","0.0-194.0","55b249bdfdf99b28e3c14b05","6213c6d234b54da61b622fea","","","","","<p> Ok, now we are going present the same digits as before.  Your job is to say whether the digit is even or odd  If the digit is odd, press to v key; if it is even, press the n key. We are going to do 50 of these.  </p>  <br><br>  Ready? (press v or n)","",""
"2938","key","v","v","16.701581920904903","500","250","psychophysics","195","1213089","0.0-195.0","55b249bdfdf99b28e3c14b05","6213c6d234b54da61b622fea","5","","","","","0","3"
"null","","","null","","","","html-keyboard-response","196","1213593","0.0-196.0","55b249bdfdf99b28e3c14b05","6213c6d234b54da61b622fea","","","","","<p style=""color:darkgreen;font-size:24px;"">Correct :)</p>","",""
"2773","key","n","n","16.759640718562093","500","250","psychophysics","197","1216401","0.0-197.0","55b249bdfdf99b28e3c14b05","6213c6d234b54da61b622fea","5","","","","","0","2"
"null","","","null","","","","html-keyboard-response","198","1216906","0.0-198.0","55b249bdfdf99b28e3c14b05","6213c6d234b54da61b622fea","","","","","<p style=""color:darkgreen;font-size:24px;"">Correct :)</p>","",""
"2789","key","n","n","16.944337349396243","500","250","psychophysics","199","1219735","0.0-199.0","55b249bdfdf99b28e3c14b05","6213c6d234b54da61b622fea","5","","","","","0","2"
"null","","","null","","","","html-keyboard-response","200","1220237","0.0-200.0","55b249bdfdf99b28e3c14b05","6213c6d234b54da61b622fea","","","","","<p style=""color:darkgreen;font-size:24px;"">Correct :)</p>","",""
"2882","key","v","v","17.323571428570652","500","250","psychophysics","201","1223155","0.0-201.0","55b249bdfdf99b28e3c14b05","6213c6d234b54da61b622fea","5","","","","","0","9"
"null","","","null","","","","html-keyboard-response","202","1223671","0.0-202.0","55b249bdfdf99b28e3c14b05","6213c6d234b54da61b622fea","","","","","<p style=""color:darkgreen;font-size:24px;"">Correct :)</p>","",""
"2615","key","v","v","17.12974025974014","500","250","psychophysics","203","1226315","0.0-203.0","55b249bdfdf99b28e3c14b05","6213c6d234b54da61b622fea","5","","","","","0","1"
"null","","","null","","","","html-keyboard-response","204","1226821","0.0-204.0","55b249bdfdf99b28e3c14b05","6213c6d234b54da61b622fea","","","","","<p style=""color:darkgreen;font-size:24px;"">Correct :)</p>","",""
"2566","key","v","v","16.66090322580609","500","250","psychophysics","205","1229415","0.0-205.0","55b249bdfdf99b28e3c14b05","6213c6d234b54da61b622fea","5","","","","","0","3"
"null","","","null","","","","html-keyboard-response","206","1229926","0.0-206.0","55b249bdfdf99b28e3c14b05","6213c6d234b54da61b622fea","","","","","<p style=""color:darkgreen;font-size:24px;"">Correct :)</p>","",""
"2616","key","v","v","17.25908496731959","500","250","psychophysics","207","1232572","0.0-207.0","55b249bdfdf99b28e3c14b05","6213c6d234b54da61b622fea","5","","","","","0","7"
"null","","","null","","","","html-keyboard-response","208","1233074","0.0-208.0","55b249bdfdf99b28e3c14b05","6213c6d234b54da61b622fea","","","","","<p style=""color:darkgreen;font-size:24px;"">Correct :)</p>","",""
"2479","key","v","v","16.81020134228169","500","250","psychophysics","209","1235587","0.0-209.0","55b249bdfdf99b28e3c14b05","6213c6d234b54da61b622fea","5","","","","","0","7"
"null","","","null","","","","html-keyboard-response","210","1236094","0.0-210.0","55b249bdfdf99b28e3c14b05","6213c6d234b54da61b622fea","","","","","<p style=""color:darkgreen;font-size:24px;"">Correct :)</p>","",""
"2525","key","v","v","18.322158273381497","500","250","psychophysics","211","1238655","0.0-211.0","55b249bdfdf99b28e3c14b05","6213c6d234b54da61b622fea","5","","","","","0","9"
"null","","","null","","","","html-keyboard-response","212","1239158","0.0-212.0","55b249bdfdf99b28e3c14b05","6213c6d234b54da61b622fea","","","","","<p style=""color:darkgreen;font-size:24px;"">Correct :)</p>","",""
"2643","key","n","n","18.73338028168942","500","250","psychophysics","213","1241835","0.0-213.0","55b249bdfdf99b28e3c14b05","6213c6d234b54da61b622fea","5","","","","","0","6"
"null","","","null","","","","html-keyboard-response","214","1242343","0.0-214.0","55b249bdfdf99b28e3c14b05","6213c6d234b54da61b622fea","","","","","<p style=""color:darkgreen;font-size:24px;"">Correct :)</p>","",""
"2547","key","v","v","17.255570469797597","500","250","psychophysics","215","1244926","0.0-215.0","55b249bdfdf99b28e3c14b05","6213c6d234b54da61b622fea","5","","","","","0","7"
"null","","","null","","","","html-keyboard-response","216","1245432","0.0-216.0","55b249bdfdf99b28e3c14b05","6213c6d234b54da61b622fea","","","","","<p style=""color:darkgreen;font-size:24px;"">Correct :)</p>","",""
"2521","key","v","v","16.84900662251779","500","250","psychophysics","217","1247988","0.0-217.0","55b249bdfdf99b28e3c14b05","6213c6d234b54da61b622fea","5","","","","","0","3"
"null","","","null","","","","html-keyboard-response","218","1248502","0.0-218.0","55b249bdfdf99b28e3c14b05","6213c6d234b54da61b622fea","","","","","<p style=""color:darkgreen;font-size:24px;"">Correct :)</p>","",""
"2649","key","v","v","18.280136986300732","500","250","psychophysics","219","1251188","0.0-219.0","55b249bdfdf99b28e3c14b05","6213c6d234b54da61b622fea","5","","","","","0","7"
"null","","","null","","","","html-keyboard-response","220","1251702","0.0-220.0","55b249bdfdf99b28e3c14b05","6213c6d234b54da61b622fea","","","","","<p style=""color:darkgreen;font-size:24px;"">Correct :)</p>","",""
"2702","key","n","n","18.075496688741104","500","250","psychophysics","221","1254440","0.0-221.0","55b249bdfdf99b28e3c14b05","6213c6d234b54da61b622fea","5","","","","","0","6"
"null","","","null","","","","html-keyboard-response","222","1254944","0.0-222.0","55b249bdfdf99b28e3c14b05","6213c6d234b54da61b622fea","","","","","<p style=""color:darkgreen;font-size:24px;"">Correct :)</p>","",""
"2690","key","n","n","16.767530864198047","500","250","psychophysics","223","1257673","0.0-223.0","55b249bdfdf99b28e3c14b05","6213c6d234b54da61b622fea","5","","","","","0","4"
"null","","","null","","","","html-keyboard-response","224","1258176","0.0-224.0","55b249bdfdf99b28e3c14b05","6213c6d234b54da61b622fea","","","","","<p style=""color:darkgreen;font-size:24px;"">Correct :)</p>","",""
"2691","key","n","n","16.74459627329268","500","250","psychophysics","225","1260882","0.0-225.0","55b249bdfdf99b28e3c14b05","6213c6d234b54da61b622fea","5","","","","","0","6"
"null","","","null","","","","html-keyboard-response","226","1261394","0.0-226.0","55b249bdfdf99b28e3c14b05","6213c6d234b54da61b622fea","","","","","<p style=""color:darkgreen;font-size:24px;"">Correct :)</p>","",""
"2502","key","v","v","16.826800000000123","500","250","psychophysics","227","1263929","0.0-227.0","55b249bdfdf99b28e3c14b05","6213c6d234b54da61b622fea","5","","","","","0","3"
"null","","","null","","","","html-keyboard-response","228","1264436","0.0-228.0","55b249bdfdf99b28e3c14b05","6213c6d234b54da61b622fea","","","","","<p style=""color:darkgreen;font-size:24px;"">Correct :)</p>","",""
"2724","key","n","n","17.036894409937542","500","250","psychophysics","229","1267190","0.0-229.0","55b249bdfdf99b28e3c14b05","6213c6d234b54da61b622fea","5","","","","","0","2"
"null","","","null","","","","html-keyboard-response","230","1267695","0.0-230.0","55b249bdfdf99b28e3c14b05","6213c6d234b54da61b622fea","","","","","<p style=""color:darkgreen;font-size:24px;"">Correct :)</p>","",""
"2632","key","n","n","17.293986928104452","500","250","psychophysics","231","1270363","0.0-231.0","55b249bdfdf99b28e3c14b05","6213c6d234b54da61b622fea","5","","","","","0","2"
"null","","","null","","","","html-keyboard-response","232","1270873","0.0-232.0","55b249bdfdf99b28e3c14b05","6213c6d234b54da61b622fea","","","","","<p style=""color:darkgreen;font-size:24px;"">Correct :)</p>","",""
"2601","key","v","v","16.97207792207762","500","250","psychophysics","233","1273506","0.0-233.0","55b249bdfdf99b28e3c14b05","6213c6d234b54da61b622fea","5","","","","","0","7"
"null","","","null","","","","html-keyboard-response","234","1274024","0.0-234.0","55b249bdfdf99b28e3c14b05","6213c6d234b54da61b622fea","","","","","<p style=""color:darkgreen;font-size:24px;"">Correct :)</p>","",""
"2548","key","n","n","17.634520547944504","500","250","psychophysics","235","1276610","0.0-235.0","55b249bdfdf99b28e3c14b05","6213c6d234b54da61b622fea","5","","","","","0","8"
"null","","","null","","","","html-keyboard-response","236","1277123","0.0-236.0","55b249bdfdf99b28e3c14b05","6213c6d234b54da61b622fea","","","","","<p style=""color:darkgreen;font-size:24px;"">Correct :)</p>","",""
"2634","key","v","v","16.794430379746952","500","250","psychophysics","237","1279789","0.0-237.0","55b249bdfdf99b28e3c14b05","6213c6d234b54da61b622fea","5","","","","","0","9"
"null","","","null","","","","html-keyboard-response","238","1280303","0.0-238.0","55b249bdfdf99b28e3c14b05","6213c6d234b54da61b622fea","","","","","<p style=""color:darkgreen;font-size:24px;"">Correct :)</p>","",""
"2604","key","n","n","17.10922077921969","500","250","psychophysics","239","1282945","0.0-239.0","55b249bdfdf99b28e3c14b05","6213c6d234b54da61b622fea","5","","","","","0","6"
"null","","","null","","","","html-keyboard-response","240","1283458","0.0-240.0","55b249bdfdf99b28e3c14b05","6213c6d234b54da61b622fea","","","","","<p style=""color:darkgreen;font-size:24px;"">Correct :)</p>","",""
"2668","key","n","n","17.143694267514796","500","250","psychophysics","241","1286156","0.0-241.0","55b249bdfdf99b28e3c14b05","6213c6d234b54da61b622fea","5","","","","","0","8"
"null","","","null","","","","html-keyboard-response","242","1286667","0.0-242.0","55b249bdfdf99b28e3c14b05","6213c6d234b54da61b622fea","","","","","<p style=""color:darkgreen;font-size:24px;"">Correct :)</p>","",""
"2638","key","v","v","17.169548387096956","500","250","psychophysics","243","1289340","0.0-243.0","55b249bdfdf99b28e3c14b05","6213c6d234b54da61b622fea","5","","","","","0","1"
"null","","","null","","","","html-keyboard-response","244","1289843","0.0-244.0","55b249bdfdf99b28e3c14b05","6213c6d234b54da61b622fea","","","","","<p style=""color:darkgreen;font-size:24px;"">Correct :)</p>","",""
"2659","key","v","v","16.96556962025352","500","250","psychophysics","245","1292539","0.0-245.0","55b249bdfdf99b28e3c14b05","6213c6d234b54da61b622fea","5","","","","","0","1"
"null","","","null","","","","html-keyboard-response","246","1293054","0.0-246.0","55b249bdfdf99b28e3c14b05","6213c6d234b54da61b622fea","","","","","<p style=""color:darkgreen;font-size:24px;"">Correct :)</p>","",""
"2725","key","n","n","17.070062111801416","500","250","psychophysics","247","1295807","0.0-247.0","55b249bdfdf99b28e3c14b05","6213c6d234b54da61b622fea","5","","","","","0","8"
"null","","","null","","","","html-keyboard-response","248","1296313","0.0-248.0","55b249bdfdf99b28e3c14b05","6213c6d234b54da61b622fea","","","","","<p style=""color:darkgreen;font-size:24px;"">Correct :)</p>","",""
"2712","key","n","n","16.98236024844813","500","250","psychophysics","249","1299055","0.0-249.0","55b249bdfdf99b28e3c14b05","6213c6d234b54da61b622fea","5","","","","","0","8"
"null","","","null","","","","html-keyboard-response","250","1299567","0.0-250.0","55b249bdfdf99b28e3c14b05","6213c6d234b54da61b622fea","","","","","<p style=""color:darkgreen;font-size:24px;"">Correct :)</p>","",""
"2635","key","n","n","17.037564102564758","500","250","psychophysics","251","1302237","0.0-251.0","55b249bdfdf99b28e3c14b05","6213c6d234b54da61b622fea","5","","","","","0","8"
"null","","","null","","","","html-keyboard-response","252","1302743","0.0-252.0","55b249bdfdf99b28e3c14b05","6213c6d234b54da61b622fea","","","","","<p style=""color:darkgreen;font-size:24px;"">Correct :)</p>","",""
"2734","key","n","n","17.040869565217854","500","250","psychophysics","253","1305506","0.0-253.0","55b249bdfdf99b28e3c14b05","6213c6d234b54da61b622fea","5","","","","","0","2"
"null","","","null","","","","html-keyboard-response","254","1306019","0.0-254.0","55b249bdfdf99b28e3c14b05","6213c6d234b54da61b622fea","","","","","<p style=""color:darkgreen;font-size:24px;"">Correct :)</p>","",""
"1782","key","v","v","16.806728971963228","500","250","psychophysics","255","1307826","0.0-255.0","55b249bdfdf99b28e3c14b05","6213c6d234b54da61b622fea","5","","","","","0","8"
"null","","","null","","","","html-keyboard-response","256","1308331","0.0-256.0","55b249bdfdf99b28e3c14b05","6213c6d234b54da61b622fea","","","","","<p style=""color:red;font-size:24px;"">Error :(</p>","",""
"2705","key","v","v","16.95552795031108","500","250","psychophysics","257","1311069","0.0-257.0","55b249bdfdf99b28e3c14b05","6213c6d234b54da61b622fea","5","","","","","0","3"
"null","","","null","","","","html-keyboard-response","258","1311577","0.0-258.0","55b249bdfdf99b28e3c14b05","6213c6d234b54da61b622fea","","","","","<p style=""color:darkgreen;font-size:24px;"">Correct :)</p>","",""
"2617","key","n","n","17.526800000000126","500","250","psychophysics","259","1314229","0.0-259.0","55b249bdfdf99b28e3c14b05","6213c6d234b54da61b622fea","5","","","","","0","2"
"null","","","null","","","","html-keyboard-response","260","1314743","0.0-260.0","55b249bdfdf99b28e3c14b05","6213c6d234b54da61b622fea","","","","","<p style=""color:darkgreen;font-size:24px;"">Correct :)</p>","",""
"2858","key","n","n","17.966624999999475","500","250","psychophysics","261","1317629","0.0-261.0","55b249bdfdf99b28e3c14b05","6213c6d234b54da61b622fea","5","","","","","0","8"
"null","","","null","","","","html-keyboard-response","262","1318143","0.0-262.0","55b249bdfdf99b28e3c14b05","6213c6d234b54da61b622fea","","","","","<p style=""color:darkgreen;font-size:24px;"">Correct :)</p>","",""
"2645","key","n","n","17.45285714285708","500","250","psychophysics","263","1320836","0.0-263.0","55b249bdfdf99b28e3c14b05","6213c6d234b54da61b622fea","5","","","","","0","4"
"null","","","null","","","","html-keyboard-response","264","1321354","0.0-264.0","55b249bdfdf99b28e3c14b05","6213c6d234b54da61b622fea","","","","","<p style=""color:darkgreen;font-size:24px;"">Correct :)</p>","",""
"2485","key","v","v","17.278219178082956","500","250","psychophysics","265","1323882","0.0-265.0","55b249bdfdf99b28e3c14b05","6213c6d234b54da61b622fea","5","","","","","0","3"
"null","","","null","","","","html-keyboard-response","266","1324392","0.0-266.0","55b249bdfdf99b28e3c14b05","6213c6d234b54da61b622fea","","","","","<p style=""color:darkgreen;font-size:24px;"">Correct :)</p>","",""
"2660","key","v","v","17.163846153846514","500","250","psychophysics","267","1327086","0.0-267.0","55b249bdfdf99b28e3c14b05","6213c6d234b54da61b622fea","5","","","","","0","7"
"null","","","null","","","","html-keyboard-response","268","1327593","0.0-268.0","55b249bdfdf99b28e3c14b05","6213c6d234b54da61b622fea","","","","","<p style=""color:darkgreen;font-size:24px;"">Correct :)</p>","",""
"2519","key","v","v","17.268979591836988","500","250","psychophysics","269","1330142","0.0-269.0","55b249bdfdf99b28e3c14b05","6213c6d234b54da61b622fea","5","","","","","0","1"
"null","","","null","","","","html-keyboard-response","270","1330648","0.0-270.0","55b249bdfdf99b28e3c14b05","6213c6d234b54da61b622fea","","","","","<p style=""color:darkgreen;font-size:24px;"">Correct :)</p>","",""
"2717","key","n","n","18.429395973154236","500","250","psychophysics","271","1333400","0.0-271.0","55b249bdfdf99b28e3c14b05","6213c6d234b54da61b622fea","5","","","","","0","2"
"null","","","null","","","","html-keyboard-response","272","1333913","0.0-272.0","55b249bdfdf99b28e3c14b05","6213c6d234b54da61b622fea","","","","","<p style=""color:darkgreen;font-size:24px;"">Correct :)</p>","",""
"2578","key","v","v","16.832597402597223","500","250","psychophysics","273","1336526","0.0-273.0","55b249bdfdf99b28e3c14b05","6213c6d234b54da61b622fea","5","","","","","0","3"
"null","","","null","","","","html-keyboard-response","274","1337036","0.0-274.0","55b249bdfdf99b28e3c14b05","6213c6d234b54da61b622fea","","","","","<p style=""color:darkgreen;font-size:24px;"">Correct :)</p>","",""
"2633","key","n","n","17.187662337661735","500","250","psychophysics","275","1339700","0.0-275.0","55b249bdfdf99b28e3c14b05","6213c6d234b54da61b622fea","5","","","","","0","8"
"null","","","null","","","","html-keyboard-response","276","1340205","0.0-276.0","55b249bdfdf99b28e3c14b05","6213c6d234b54da61b622fea","","","","","<p style=""color:darkgreen;font-size:24px;"">Correct :)</p>","",""
"2553","key","v","v","17.391216216215586","500","250","psychophysics","277","1342786","0.0-277.0","55b249bdfdf99b28e3c14b05","6213c6d234b54da61b622fea","5","","","","","0","9"
"null","","","null","","","","html-keyboard-response","278","1343290","0.0-278.0","55b249bdfdf99b28e3c14b05","6213c6d234b54da61b622fea","","","","","<p style=""color:darkgreen;font-size:24px;"">Correct :)</p>","",""
"2671","key","n","n","17.76565789473764","500","250","psychophysics","279","1345996","0.0-279.0","55b249bdfdf99b28e3c14b05","6213c6d234b54da61b622fea","5","","","","","0","2"
"null","","","null","","","","html-keyboard-response","280","1346509","0.0-280.0","55b249bdfdf99b28e3c14b05","6213c6d234b54da61b622fea","","","","","<p style=""color:darkgreen;font-size:24px;"">Correct :)</p>","",""
"2720","key","n","n","16.727560975608736","500","250","psychophysics","281","1349266","0.0-281.0","55b249bdfdf99b28e3c14b05","6213c6d234b54da61b622fea","5","","","","","0","6"
"null","","","null","","","","html-keyboard-response","282","1349784","0.0-282.0","55b249bdfdf99b28e3c14b05","6213c6d234b54da61b622fea","","","","","<p style=""color:darkgreen;font-size:24px;"">Correct :)</p>","",""
"2561","key","n","n","18.431999999999867","500","250","psychophysics","283","1352379","0.0-283.0","55b249bdfdf99b28e3c14b05","6213c6d234b54da61b622fea","5","","","","","0","8"
"null","","","null","","","","html-keyboard-response","284","1352893","0.0-284.0","55b249bdfdf99b28e3c14b05","6213c6d234b54da61b622fea","","","","","<p style=""color:darkgreen;font-size:24px;"">Correct :)</p>","",""
"2664","key","n","n","16.872075471697585","500","250","psychophysics","285","1355590","0.0-285.0","55b249bdfdf99b28e3c14b05","6213c6d234b54da61b622fea","5","","","","","0","4"
"null","","","null","","","","html-keyboard-response","286","1356106","0.0-286.0","55b249bdfdf99b28e3c14b05","6213c6d234b54da61b622fea","","","","","<p style=""color:darkgreen;font-size:24px;"">Correct :)</p>","",""
"2587","key","n","n","16.870967741935484","500","250","psychophysics","287","1358730","0.0-287.0","55b249bdfdf99b28e3c14b05","6213c6d234b54da61b622fea","5","","","","","0","8"
"null","","","null","","","","html-keyboard-response","288","1359237","0.0-288.0","55b249bdfdf99b28e3c14b05","6213c6d234b54da61b622fea","","","","","<p style=""color:darkgreen;font-size:24px;"">Correct :)</p>","",""
"2470","key","v","v","16.863648648647516","500","250","psychophysics","289","1361741","0.0-289.0","55b249bdfdf99b28e3c14b05","6213c6d234b54da61b622fea","5","","","","","0","2"
"null","","","null","","","","html-keyboard-response","290","1362243","0.0-290.0","55b249bdfdf99b28e3c14b05","6213c6d234b54da61b622fea","","","","","<p style=""color:red;font-size:24px;"">Error :(</p>","",""
"2574","key","v","v","18.189790209789493","500","250","psychophysics","291","1364854","0.0-291.0","55b249bdfdf99b28e3c14b05","6213c6d234b54da61b622fea","5","","","","","0","1"
"null","","","null","","","","html-keyboard-response","292","1365373","0.0-292.0","55b249bdfdf99b28e3c14b05","6213c6d234b54da61b622fea","","","","","<p style=""color:darkgreen;font-size:24px;"">Correct :)</p>","",""
"2730","key","v","v","17.08136645962791","500","250","psychophysics","293","1368138","0.0-293.0","55b249bdfdf99b28e3c14b05","6213c6d234b54da61b622fea","5","","","","","0","3"
"null","","","null","","","","html-keyboard-response","294","1368648","0.0-294.0","55b249bdfdf99b28e3c14b05","6213c6d234b54da61b622fea","","","","","<p style=""color:darkgreen;font-size:24px;"">Correct :)</p>","",""
"18781","","","v","","","","html-keyboard-response","295","1387433","0.0-295.0","55b249bdfdf99b28e3c14b05","6213c6d234b54da61b622fea","","","","","<p> Here, the tasks are going to switch.  For some trials, your job is to decide if the digit is less than or greater than 5.  For others, it is to decide if the digit is even or odd.  You will be told which type of trial the current one is.  But, pay attention, the type of trial changes too.  We are going to do 50 of these.  </p>  <br><br>  Ready? (press v or n)","",""
"3260","key","n","n","16.86855670103093","500","250","psychophysics","296","1390719","0.0-296.0","55b249bdfdf99b28e3c14b05","6213c6d234b54da61b622fea","6","","","","","0","6"
"null","","","null","","","","html-keyboard-response","297","1391233","0.0-297.0","55b249bdfdf99b28e3c14b05","6213c6d234b54da61b622fea","","","","","<p style=""color:darkgreen;font-size:24px;"">Correct :)</p>","",""
"2769","key","v","v","16.769277108433453","500","250","psychophysics","298","1394037","0.0-298.0","55b249bdfdf99b28e3c14b05","6213c6d234b54da61b622fea","6","","","","","0","1"
"null","","","null","","","","html-keyboard-response","299","1394550","0.0-299.0","55b249bdfdf99b28e3c14b05","6213c6d234b54da61b622fea","","","","","<p style=""color:darkgreen;font-size:24px;"">Correct :)</p>","",""
"2953","key","n","n","16.6340449438208","500","250","psychophysics","300","1397520","0.0-300.0","55b249bdfdf99b28e3c14b05","6213c6d234b54da61b622fea","6","","","","","1","4"
"null","","","null","","","","html-keyboard-response","301","1398034","0.0-301.0","55b249bdfdf99b28e3c14b05","6213c6d234b54da61b622fea","","","","","<p style=""color:red;font-size:24px;"">Error :(</p>","",""
"3619","key","v","v","16.84101851851813","500","250","psychophysics","302","1401685","0.0-302.0","55b249bdfdf99b28e3c14b05","6213c6d234b54da61b622fea","6","","","","","0","7"
"null","","","null","","","","html-keyboard-response","303","1402202","0.0-303.0","55b249bdfdf99b28e3c14b05","6213c6d234b54da61b622fea","","","","","<p style=""color:darkgreen;font-size:24px;"">Correct :)</p>","",""
"2680","key","v","v","16.7501863354039","500","250","psychophysics","304","1404918","0.0-304.0","55b249bdfdf99b28e3c14b05","6213c6d234b54da61b622fea","6","","","","","0","1"
"null","","","null","","","","html-keyboard-response","305","1405424","0.0-305.0","55b249bdfdf99b28e3c14b05","6213c6d234b54da61b622fea","","","","","<p style=""color:darkgreen;font-size:24px;"">Correct :)</p>","",""
"3026","key","n","n","17.247231638418132","500","250","psychophysics","306","1408487","0.0-306.0","55b249bdfdf99b28e3c14b05","6213c6d234b54da61b622fea","6","","","","","1","9"
"null","","","null","","","","html-keyboard-response","307","1408990","0.0-307.0","55b249bdfdf99b28e3c14b05","6213c6d234b54da61b622fea","","","","","<p style=""color:darkgreen;font-size:24px;"">Correct :)</p>","",""
"4435","key","v","v","16.778947368420877","500","250","psychophysics","308","1413472","0.0-308.0","55b249bdfdf99b28e3c14b05","6213c6d234b54da61b622fea","6","","","","","0","9"
"null","","","null","","","","html-keyboard-response","309","1413987","0.0-309.0","55b249bdfdf99b28e3c14b05","6213c6d234b54da61b622fea","","","","","<p style=""color:darkgreen;font-size:24px;"">Correct :)</p>","",""
"2939","key","n","n","17.012643678160654","500","250","psychophysics","310","1416962","0.0-310.0","55b249bdfdf99b28e3c14b05","6213c6d234b54da61b622fea","6","","","","","0","6"
"null","","","null","","","","html-keyboard-response","311","1417476","0.0-311.0","55b249bdfdf99b28e3c14b05","6213c6d234b54da61b622fea","","","","","<p style=""color:darkgreen;font-size:24px;"">Correct :)</p>","",""
"2755","key","n","n","16.864121212120253","500","250","psychophysics","312","1420269","0.0-312.0","55b249bdfdf99b28e3c14b05","6213c6d234b54da61b622fea","6","","","","","0","8"
"null","","","null","","","","html-keyboard-response","313","1420783","0.0-313.0","55b249bdfdf99b28e3c14b05","6213c6d234b54da61b622fea","","","","","<p style=""color:darkgreen;font-size:24px;"">Correct :)</p>","",""
"2505","key","n","n","18.81895522388053","500","250","psychophysics","314","1423321","0.0-314.0","55b249bdfdf99b28e3c14b05","6213c6d234b54da61b622fea","6","","","","","0","8"
"null","","","null","","","","html-keyboard-response","315","1423836","0.0-315.0","55b249bdfdf99b28e3c14b05","6213c6d234b54da61b622fea","","","","","<p style=""color:darkgreen;font-size:24px;"">Correct :)</p>","",""
"2678","key","n","n","16.643478260868697","500","250","psychophysics","316","1426529","0.0-316.0","55b249bdfdf99b28e3c14b05","6213c6d234b54da61b622fea","6","","","","","1","4"
"null","","","null","","","","html-keyboard-response","317","1427044","0.0-317.0","55b249bdfdf99b28e3c14b05","6213c6d234b54da61b622fea","","","","","<p style=""color:red;font-size:24px;"">Error :(</p>","",""
"3477","key","n","n","16.82615384615425","500","250","psychophysics","318","1430556","0.0-318.0","55b249bdfdf99b28e3c14b05","6213c6d234b54da61b622fea","6","","","","","1","8"
"null","","","null","","","","html-keyboard-response","319","1431068","0.0-319.0","55b249bdfdf99b28e3c14b05","6213c6d234b54da61b622fea","","","","","<p style=""color:darkgreen;font-size:24px;"">Correct :)</p>","",""
"2681","key","v","v","16.79130434782551","500","250","psychophysics","320","1433785","0.0-320.0","55b249bdfdf99b28e3c14b05","6213c6d234b54da61b622fea","6","","","","","0","3"
"null","","","null","","","","html-keyboard-response","321","1434303","0.0-321.0","55b249bdfdf99b28e3c14b05","6213c6d234b54da61b622fea","","","","","<p style=""color:darkgreen;font-size:24px;"">Correct :)</p>","",""
"3694","key","n","n","17.02703196346998","500","250","psychophysics","322","1438045","0.0-322.0","55b249bdfdf99b28e3c14b05","6213c6d234b54da61b622fea","6","","","","","0","2"
"null","","","null","","","","html-keyboard-response","323","1438557","0.0-323.0","55b249bdfdf99b28e3c14b05","6213c6d234b54da61b622fea","","","","","<p style=""color:darkgreen;font-size:24px;"">Correct :)</p>","",""
"2605","key","n","n","16.899230769230947","500","250","psychophysics","324","1441203","0.0-324.0","55b249bdfdf99b28e3c14b05","6213c6d234b54da61b622fea","6","","","","","0","4"
"null","","","null","","","","html-keyboard-response","325","1441718","0.0-325.0","55b249bdfdf99b28e3c14b05","6213c6d234b54da61b622fea","","","","","<p style=""color:darkgreen;font-size:24px;"">Correct :)</p>","",""
"2555","key","v","v","17.023026315789473","500","250","psychophysics","326","1444312","0.0-326.0","55b249bdfdf99b28e3c14b05","6213c6d234b54da61b622fea","6","","","","","1","4"
"null","","","null","","","","html-keyboard-response","327","1444827","0.0-327.0","55b249bdfdf99b28e3c14b05","6213c6d234b54da61b622fea","","","","","<p style=""color:darkgreen;font-size:24px;"">Correct :)</p>","",""
"3511","key","v","v","16.770142180094787","500","250","psychophysics","328","1448375","0.0-328.0","55b249bdfdf99b28e3c14b05","6213c6d234b54da61b622fea","6","","","","","0","9"
"null","","","null","","","","html-keyboard-response","329","1448888","0.0-329.0","55b249bdfdf99b28e3c14b05","6213c6d234b54da61b622fea","","","","","<p style=""color:darkgreen;font-size:24px;"">Correct :)</p>","",""
"2635","key","v","v","17.13367741935616","500","250","psychophysics","330","1451561","0.0-330.0","55b249bdfdf99b28e3c14b05","6213c6d234b54da61b622fea","6","","","","","1","3"
"null","","","null","","","","html-keyboard-response","331","1452067","0.0-331.0","55b249bdfdf99b28e3c14b05","6213c6d234b54da61b622fea","","","","","<p style=""color:darkgreen;font-size:24px;"">Correct :)</p>","",""
"2717","key","n","n","16.9045679012348","500","250","psychophysics","332","1454815","0.0-332.0","55b249bdfdf99b28e3c14b05","6213c6d234b54da61b622fea","6","","","","","1","8"
"null","","","null","","","","html-keyboard-response","333","1455316","0.0-333.0","55b249bdfdf99b28e3c14b05","6213c6d234b54da61b622fea","","","","","<p style=""color:darkgreen;font-size:24px;"">Correct :)</p>","",""
"2589","key","n","n","16.776923076922778","500","250","psychophysics","334","1457940","0.0-334.0","55b249bdfdf99b28e3c14b05","6213c6d234b54da61b622fea","6","","","","","1","6"
"null","","","null","","","","html-keyboard-response","335","1458454","0.0-335.0","55b249bdfdf99b28e3c14b05","6213c6d234b54da61b622fea","","","","","<p style=""color:darkgreen;font-size:24px;"">Correct :)</p>","",""
"2398","key","v","v","16.85202797202693","500","250","psychophysics","336","1460877","0.0-336.0","55b249bdfdf99b28e3c14b05","6213c6d234b54da61b622fea","6","","","","","1","4"
"null","","","null","","","","html-keyboard-response","337","1461384","0.0-337.0","55b249bdfdf99b28e3c14b05","6213c6d234b54da61b622fea","","","","","<p style=""color:darkgreen;font-size:24px;"">Correct :)</p>","",""
"3121","key","v","v","17.74090395480168","500","250","psychophysics","338","1464539","0.0-338.0","55b249bdfdf99b28e3c14b05","6213c6d234b54da61b622fea","6","","","","","0","9"
"null","","","null","","","","html-keyboard-response","339","1465061","0.0-339.0","55b249bdfdf99b28e3c14b05","6213c6d234b54da61b622fea","","","","","<p style=""color:darkgreen;font-size:24px;"">Correct :)</p>","",""
"3196","key","n","n","16.702708333332946","500","250","psychophysics","340","1468289","0.0-340.0","55b249bdfdf99b28e3c14b05","6213c6d234b54da61b622fea","6","","","","","1","8"
"null","","","null","","","","html-keyboard-response","341","1468803","0.0-341.0","55b249bdfdf99b28e3c14b05","6213c6d234b54da61b622fea","","","","","<p style=""color:darkgreen;font-size:24px;"">Correct :)</p>","",""
"2478","key","v","v","17.565915492958467","500","250","psychophysics","342","1471316","0.0-342.0","55b249bdfdf99b28e3c14b05","6213c6d234b54da61b622fea","6","","","","","1","2"
"null","","","null","","","","html-keyboard-response","343","1471829","0.0-343.0","55b249bdfdf99b28e3c14b05","6213c6d234b54da61b622fea","","","","","<p style=""color:darkgreen;font-size:24px;"">Correct :)</p>","",""
"3085","key","n","n","17.38882681564298","500","250","psychophysics","344","1474948","0.0-344.0","55b249bdfdf99b28e3c14b05","6213c6d234b54da61b622fea","6","","","","","0","6"
"null","","","null","","","","html-keyboard-response","345","1475463","0.0-345.0","55b249bdfdf99b28e3c14b05","6213c6d234b54da61b622fea","","","","","<p style=""color:darkgreen;font-size:24px;"">Correct :)</p>","",""
"2779","key","v","v","17.11573170731696","500","250","psychophysics","346","1478278","0.0-346.0","55b249bdfdf99b28e3c14b05","6213c6d234b54da61b622fea","6","","","","","1","1"
"null","","","null","","","","html-keyboard-response","347","1478792","0.0-347.0","55b249bdfdf99b28e3c14b05","6213c6d234b54da61b622fea","","","","","<p style=""color:darkgreen;font-size:24px;"">Correct :)</p>","",""
"2638","key","n","n","16.80329113924151","500","250","psychophysics","348","1481460","0.0-348.0","55b249bdfdf99b28e3c14b05","6213c6d234b54da61b622fea","6","","","","","1","6"
"null","","","null","","","","html-keyboard-response","349","1481972","0.0-349.0","55b249bdfdf99b28e3c14b05","6213c6d234b54da61b622fea","","","","","<p style=""color:darkgreen;font-size:24px;"">Correct :)</p>","",""
"3527","key","n","n","17.000095693779993","500","250","psychophysics","350","1485530","0.0-350.0","55b249bdfdf99b28e3c14b05","6213c6d234b54da61b622fea","6","","","","","0","6"
"null","","","null","","","","html-keyboard-response","351","1486038","0.0-351.0","55b249bdfdf99b28e3c14b05","6213c6d234b54da61b622fea","","","","","<p style=""color:darkgreen;font-size:24px;"">Correct :)</p>","",""
"3486","key","v","v","17.223627450979798","500","250","psychophysics","352","1489557","0.0-352.0","55b249bdfdf99b28e3c14b05","6213c6d234b54da61b622fea","6","","","","","0","9"
"null","","","null","","","","html-keyboard-response","353","1490068","0.0-353.0","55b249bdfdf99b28e3c14b05","6213c6d234b54da61b622fea","","","","","<p style=""color:darkgreen;font-size:24px;"">Correct :)</p>","",""
"2651","key","n","n","17.281548387096112","500","250","psychophysics","354","1492755","0.0-354.0","55b249bdfdf99b28e3c14b05","6213c6d234b54da61b622fea","6","","","","","1","9"
"null","","","null","","","","html-keyboard-response","355","1493260","0.0-355.0","55b249bdfdf99b28e3c14b05","6213c6d234b54da61b622fea","","","","","<p style=""color:darkgreen;font-size:24px;"">Correct :)</p>","",""
"3428","key","n","n","17.41457286432161","500","250","psychophysics","356","1496733","0.0-356.0","55b249bdfdf99b28e3c14b05","6213c6d234b54da61b622fea","6","","","","","0","4"
"null","","","null","","","","html-keyboard-response","357","1497255","0.0-357.0","55b249bdfdf99b28e3c14b05","6213c6d234b54da61b622fea","","","","","<p style=""color:darkgreen;font-size:24px;"">Correct :)</p>","",""
"3263","key","v","v","17.176458333333965","500","250","psychophysics","358","1500559","0.0-358.0","55b249bdfdf99b28e3c14b05","6213c6d234b54da61b622fea","6","","","","","1","4"
"null","","","null","","","","html-keyboard-response","359","1501065","0.0-359.0","55b249bdfdf99b28e3c14b05","6213c6d234b54da61b622fea","","","","","<p style=""color:darkgreen;font-size:24px;"">Correct :)</p>","",""
"3332","key","n","n","16.736815920398474","500","250","psychophysics","360","1504438","0.0-360.0","55b249bdfdf99b28e3c14b05","6213c6d234b54da61b622fea","6","","","","","1","8"
"null","","","null","","","","html-keyboard-response","361","1504947","0.0-361.0","55b249bdfdf99b28e3c14b05","6213c6d234b54da61b622fea","","","","","<p style=""color:darkgreen;font-size:24px;"">Correct :)</p>","",""
"2845","key","v","v","18.453806451613445","500","250","psychophysics","362","1507823","0.0-362.0","55b249bdfdf99b28e3c14b05","6213c6d234b54da61b622fea","6","","","","","0","7"
"null","","","null","","","","html-keyboard-response","363","1508333","0.0-363.0","55b249bdfdf99b28e3c14b05","6213c6d234b54da61b622fea","","","","","<p style=""color:darkgreen;font-size:24px;"">Correct :)</p>","",""
"2491","key","v","v","17.990285714286646","500","250","psychophysics","364","1510859","0.0-364.0","55b249bdfdf99b28e3c14b05","6213c6d234b54da61b622fea","6","","","","","1","4"
"null","","","null","","","","html-keyboard-response","365","1511369","0.0-365.0","55b249bdfdf99b28e3c14b05","6213c6d234b54da61b622fea","","","","","<p style=""color:darkgreen;font-size:24px;"">Correct :)</p>","",""
"2902","key","n","n","17.639638554216475","500","250","psychophysics","366","1514305","0.0-366.0","55b249bdfdf99b28e3c14b05","6213c6d234b54da61b622fea","6","","","","","0","6"
"null","","","null","","","","html-keyboard-response","367","1514838","0.0-367.0","55b249bdfdf99b28e3c14b05","6213c6d234b54da61b622fea","","","","","<p style=""color:darkgreen;font-size:24px;"">Correct :)</p>","",""
"3365","key","v","v","17.364205128205224","500","250","psychophysics","368","1518240","0.0-368.0","55b249bdfdf99b28e3c14b05","6213c6d234b54da61b622fea","6","","","","","1","4"
"null","","","null","","","","html-keyboard-response","369","1518750","0.0-369.0","55b249bdfdf99b28e3c14b05","6213c6d234b54da61b622fea","","","","","<p style=""color:darkgreen;font-size:24px;"">Correct :)</p>","",""
"3110","key","v","v","17.515083798882422","500","250","psychophysics","370","1521896","0.0-370.0","55b249bdfdf99b28e3c14b05","6213c6d234b54da61b622fea","6","","","","","1","1"
"null","","","null","","","","html-keyboard-response","371","1522413","0.0-371.0","55b249bdfdf99b28e3c14b05","6213c6d234b54da61b622fea","","","","","<p style=""color:darkgreen;font-size:24px;"">Correct :)</p>","",""
"3145","key","n","n","18.40988372093023","500","250","psychophysics","372","1525592","0.0-372.0","55b249bdfdf99b28e3c14b05","6213c6d234b54da61b622fea","6","","","","","1","8"
"null","","","null","","","","html-keyboard-response","373","1526107","0.0-373.0","55b249bdfdf99b28e3c14b05","6213c6d234b54da61b622fea","","","","","<p style=""color:darkgreen;font-size:24px;"">Correct :)</p>","",""
"3190","key","n","n","17.021587301587697","500","250","psychophysics","374","1529335","0.0-374.0","55b249bdfdf99b28e3c14b05","6213c6d234b54da61b622fea","6","","","","","1","9"
"null","","","null","","","","html-keyboard-response","375","1529847","0.0-375.0","55b249bdfdf99b28e3c14b05","6213c6d234b54da61b622fea","","","","","<p style=""color:darkgreen;font-size:24px;"">Correct :)</p>","",""
"2818","key","v","v","17.200848484847864","500","250","psychophysics","376","1532700","0.0-376.0","55b249bdfdf99b28e3c14b05","6213c6d234b54da61b622fea","6","","","","","1","4"
"null","","","null","","","","html-keyboard-response","377","1533208","0.0-377.0","55b249bdfdf99b28e3c14b05","6213c6d234b54da61b622fea","","","","","<p style=""color:darkgreen;font-size:24px;"">Correct :)</p>","",""
"2841","key","v","v","17.41036585365882","500","250","psychophysics","378","1536079","0.0-378.0","55b249bdfdf99b28e3c14b05","6213c6d234b54da61b622fea","6","","","","","1","4"
"null","","","null","","","","html-keyboard-response","379","1536592","0.0-379.0","55b249bdfdf99b28e3c14b05","6213c6d234b54da61b622fea","","","","","<p style=""color:darkgreen;font-size:24px;"">Correct :)</p>","",""
"2731","key","v","v","16.871042944785163","500","250","psychophysics","380","1539351","0.0-380.0","55b249bdfdf99b28e3c14b05","6213c6d234b54da61b622fea","6","","","","","1","1"
"null","","","null","","","","html-keyboard-response","381","1539858","0.0-381.0","55b249bdfdf99b28e3c14b05","6213c6d234b54da61b622fea","","","","","<p style=""color:darkgreen;font-size:24px;"">Correct :)</p>","",""
"3415","key","v","v","16.80536585365899","500","250","psychophysics","382","1543308","0.0-382.0","55b249bdfdf99b28e3c14b05","6213c6d234b54da61b622fea","6","","","","","0","7"
"null","","","null","","","","html-keyboard-response","383","1543812","0.0-383.0","55b249bdfdf99b28e3c14b05","6213c6d234b54da61b622fea","","","","","<p style=""color:darkgreen;font-size:24px;"">Correct :)</p>","",""
"2799","key","v","v","18.658278145694748","500","250","psychophysics","384","1546640","0.0-384.0","55b249bdfdf99b28e3c14b05","6213c6d234b54da61b622fea","6","","","","","0","1"
"null","","","null","","","","html-keyboard-response","385","1547141","0.0-385.0","55b249bdfdf99b28e3c14b05","6213c6d234b54da61b622fea","","","","","<p style=""color:darkgreen;font-size:24px;"">Correct :)</p>","",""
"2920","key","v","v","16.66511363636263","500","250","psychophysics","386","1550090","0.0-386.0","55b249bdfdf99b28e3c14b05","6213c6d234b54da61b622fea","6","","","","","0","1"
"null","","","null","","","","html-keyboard-response","387","1550610","0.0-387.0","55b249bdfdf99b28e3c14b05","6213c6d234b54da61b622fea","","","","","<p style=""color:darkgreen;font-size:24px;"">Correct :)</p>","",""
"2695","key","n","n","16.620987654321564","500","250","psychophysics","388","1553321","0.0-388.0","55b249bdfdf99b28e3c14b05","6213c6d234b54da61b622fea","6","","","","","0","4"
"null","","","null","","","","html-keyboard-response","389","1553837","0.0-389.0","55b249bdfdf99b28e3c14b05","6213c6d234b54da61b622fea","","","","","<p style=""color:darkgreen;font-size:24px;"">Correct :)</p>","",""
"3041","key","v","v","17.19359550561777","500","250","psychophysics","390","1556912","0.0-390.0","55b249bdfdf99b28e3c14b05","6213c6d234b54da61b622fea","6","","","","","0","1"
"null","","","null","","","","html-keyboard-response","391","1557426","0.0-391.0","55b249bdfdf99b28e3c14b05","6213c6d234b54da61b622fea","","","","","<p style=""color:darkgreen;font-size:24px;"">Correct :)</p>","",""
"2423","key","v","v","17.62402877697835","500","250","psychophysics","392","1559888","0.0-392.0","55b249bdfdf99b28e3c14b05","6213c6d234b54da61b622fea","6","","","","","1","4"
"null","","","null","","","","html-keyboard-response","393","1560392","0.0-393.0","55b249bdfdf99b28e3c14b05","6213c6d234b54da61b622fea","","","","","<p style=""color:darkgreen;font-size:24px;"">Correct :)</p>","",""
"2821","key","n","n","17.036047904190333","500","250","psychophysics","394","1563251","0.0-394.0","55b249bdfdf99b28e3c14b05","6213c6d234b54da61b622fea","6","","","","","0","2"
"null","","","null","","","","html-keyboard-response","395","1563753","0.0-395.0","55b249bdfdf99b28e3c14b05","6213c6d234b54da61b622fea","","","","","<p style=""color:darkgreen;font-size:24px;"">Correct :)</p>","",""
"14442","","","v","","","","html-keyboard-response","396","1578197","0.0-396.0","55b249bdfdf99b28e3c14b05","6213c6d234b54da61b622fea","","","","","<p> Last set of trials.  Here, the tasks are going to switch once again.  We are going to do 50 of these.  And then you are done with the experiment.  </p>  <br><br>  Ready? (press v or n)","",""
"2703","key","n","n","16.752962962962847","500","250","psychophysics","397","1580922","0.0-397.0","55b249bdfdf99b28e3c14b05","6213c6d234b54da61b622fea","7","","","","","0","6"
"null","","","null","","","","html-keyboard-response","398","1581426","0.0-398.0","55b249bdfdf99b28e3c14b05","6213c6d234b54da61b622fea","","","","","<p style=""color:darkgreen;font-size:24px;"">Correct :)</p>","",""
"2696","key","n","n","16.843975155280255","500","250","psychophysics","399","1584147","0.0-399.0","55b249bdfdf99b28e3c14b05","6213c6d234b54da61b622fea","7","","","","","0","4"
"null","","","null","","","","html-keyboard-response","400","1584656","0.0-400.0","55b249bdfdf99b28e3c14b05","6213c6d234b54da61b622fea","","","","","<p style=""color:darkgreen;font-size:24px;"">Correct :)</p>","",""
"2673","key","v","v","16.838375000000816","500","250","psychophysics","401","1587358","0.0-401.0","55b249bdfdf99b28e3c14b05","6213c6d234b54da61b622fea","7","","","","","1","3"
"null","","","null","","","","html-keyboard-response","402","1587873","0.0-402.0","55b249bdfdf99b28e3c14b05","6213c6d234b54da61b622fea","","","","","<p style=""color:darkgreen;font-size:24px;"">Correct :)</p>","",""
"2633","key","v","v","16.810126582278482","500","250","psychophysics","403","1590540","0.0-403.0","55b249bdfdf99b28e3c14b05","6213c6d234b54da61b622fea","7","","","","","1","3"
"null","","","null","","","","html-keyboard-response","404","1591056","0.0-404.0","55b249bdfdf99b28e3c14b05","6213c6d234b54da61b622fea","","","","","<p style=""color:darkgreen;font-size:24px;"">Correct :)</p>","",""
"2595","key","n","n","18.053241379311757","500","250","psychophysics","405","1593686","0.0-405.0","55b249bdfdf99b28e3c14b05","6213c6d234b54da61b622fea","7","","","","","0","2"
"null","","","null","","","","html-keyboard-response","406","1594196","0.0-406.0","55b249bdfdf99b28e3c14b05","6213c6d234b54da61b622fea","","","","","<p style=""color:darkgreen;font-size:24px;"">Correct :)</p>","",""
"2902","key","v","v","17.08842105263223","500","250","psychophysics","407","1597134","0.0-407.0","55b249bdfdf99b28e3c14b05","6213c6d234b54da61b622fea","7","","","","","1","3"
"null","","","null","","","","html-keyboard-response","408","1597635","0.0-408.0","55b249bdfdf99b28e3c14b05","6213c6d234b54da61b622fea","","","","","<p style=""color:darkgreen;font-size:24px;"">Correct :)</p>","",""
"2479","key","v","v","17.691690140844873","500","250","psychophysics","409","1600152","0.0-409.0","55b249bdfdf99b28e3c14b05","6213c6d234b54da61b622fea","7","","","","","0","3"
"null","","","null","","","","html-keyboard-response","410","1600661","0.0-410.0","55b249bdfdf99b28e3c14b05","6213c6d234b54da61b622fea","","","","","<p style=""color:darkgreen;font-size:24px;"">Correct :)</p>","",""
"2827","key","v","v","16.84781065088774","500","250","psychophysics","411","1603524","0.0-411.0","55b249bdfdf99b28e3c14b05","6213c6d234b54da61b622fea","7","","","","","1","7"
"null","","","null","","","","html-keyboard-response","412","1604032","0.0-412.0","55b249bdfdf99b28e3c14b05","6213c6d234b54da61b622fea","","","","","<p style=""color:red;font-size:24px;"">Error :(</p>","",""
"3170","key","v","v","17.13462365591418","500","250","psychophysics","413","1607241","0.0-413.0","55b249bdfdf99b28e3c14b05","6213c6d234b54da61b622fea","7","","","","","0","1"
"null","","","null","","","","html-keyboard-response","414","1607748","0.0-414.0","55b249bdfdf99b28e3c14b05","6213c6d234b54da61b622fea","","","","","<p style=""color:darkgreen;font-size:24px;"">Correct :)</p>","",""
"2770","key","v","v","17.61094339622577","500","250","psychophysics","415","1610563","0.0-415.0","55b249bdfdf99b28e3c14b05","6213c6d234b54da61b622fea","7","","","","","0","3"
"null","","","null","","","","html-keyboard-response","416","1611074","0.0-416.0","55b249bdfdf99b28e3c14b05","6213c6d234b54da61b622fea","","","","","<p style=""color:darkgreen;font-size:24px;"">Correct :)</p>","",""
"3079","key","v","v","17.835057471263298","500","250","psychophysics","417","1614189","0.0-417.0","55b249bdfdf99b28e3c14b05","6213c6d234b54da61b622fea","7","","","","","0","7"
"null","","","null","","","","html-keyboard-response","418","1614710","0.0-418.0","55b249bdfdf99b28e3c14b05","6213c6d234b54da61b622fea","","","","","<p style=""color:darkgreen;font-size:24px;"">Correct :)</p>","",""
"2800","key","n","n","16.828214285713678","500","250","psychophysics","419","1617547","0.0-419.0","55b249bdfdf99b28e3c14b05","6213c6d234b54da61b622fea","7","","","","","0","4"
"null","","","null","","","","html-keyboard-response","420","1618053","0.0-420.0","55b249bdfdf99b28e3c14b05","6213c6d234b54da61b622fea","","","","","<p style=""color:darkgreen;font-size:24px;"">Correct :)</p>","",""
"3038","key","v","v","16.92022099447416","500","250","psychophysics","421","1621126","0.0-421.0","55b249bdfdf99b28e3c14b05","6213c6d234b54da61b622fea","7","","","","","1","2"
"null","","","null","","","","html-keyboard-response","422","1621643","0.0-422.0","55b249bdfdf99b28e3c14b05","6213c6d234b54da61b622fea","","","","","<p style=""color:darkgreen;font-size:24px;"">Correct :)</p>","",""
"3129","key","n","n","17.304615384615076","500","250","psychophysics","423","1624807","0.0-423.0","55b249bdfdf99b28e3c14b05","6213c6d234b54da61b622fea","7","","","","","0","2"
"null","","","null","","","","html-keyboard-response","424","1625317","0.0-424.0","55b249bdfdf99b28e3c14b05","6213c6d234b54da61b622fea","","","","","<p style=""color:darkgreen;font-size:24px;"">Correct :)</p>","",""
"3831","key","v","v","17.04176991150418","500","250","psychophysics","425","1629178","0.0-425.0","55b249bdfdf99b28e3c14b05","6213c6d234b54da61b622fea","7","","","","","0","7"
"null","","","null","","","","html-keyboard-response","426","1629689","0.0-426.0","55b249bdfdf99b28e3c14b05","6213c6d234b54da61b622fea","","","","","<p style=""color:darkgreen;font-size:24px;"">Correct :)</p>","",""
"3049","key","n","n","17.18044692737456","500","250","psychophysics","427","1632775","0.0-427.0","55b249bdfdf99b28e3c14b05","6213c6d234b54da61b622fea","7","","","","","1","7"
"null","","","null","","","","html-keyboard-response","428","1633282","0.0-428.0","55b249bdfdf99b28e3c14b05","6213c6d234b54da61b622fea","","","","","<p style=""color:darkgreen;font-size:24px;"">Correct :)</p>","",""
"3963","key","n","n","16.911779661016674","500","250","psychophysics","429","1637282","0.0-429.0","55b249bdfdf99b28e3c14b05","6213c6d234b54da61b622fea","7","","","","","1","6"
"null","","","null","","","","html-keyboard-response","430","1637788","0.0-430.0","55b249bdfdf99b28e3c14b05","6213c6d234b54da61b622fea","","","","","<p style=""color:darkgreen;font-size:24px;"">Correct :)</p>","",""
"6464","key","n","n","16.77390180878553","500","250","psychophysics","431","1644286","0.0-431.0","55b249bdfdf99b28e3c14b05","6213c6d234b54da61b622fea","7","","","","","0","4"
"null","","","null","","","","html-keyboard-response","432","1644792","0.0-432.0","55b249bdfdf99b28e3c14b05","6213c6d234b54da61b622fea","","","","","<p style=""color:darkgreen;font-size:24px;"">Correct :)</p>","",""
"3287","key","n","n","16.824771573603968","500","250","psychophysics","433","1648113","0.0-433.0","55b249bdfdf99b28e3c14b05","6213c6d234b54da61b622fea","7","","","","","0","2"
"null","","","null","","","","html-keyboard-response","434","1648622","0.0-434.0","55b249bdfdf99b28e3c14b05","6213c6d234b54da61b622fea","","","","","<p style=""color:darkgreen;font-size:24px;"">Correct :)</p>","",""
"2848","key","v","v","17.662453987729947","500","250","psychophysics","435","1651509","0.0-435.0","55b249bdfdf99b28e3c14b05","6213c6d234b54da61b622fea","7","","","","","0","7"
"null","","","null","","","","html-keyboard-response","436","1652021","0.0-436.0","55b249bdfdf99b28e3c14b05","6213c6d234b54da61b622fea","","","","","<p style=""color:darkgreen;font-size:24px;"">Correct :)</p>","",""
"2649","key","v","v","17.034394904458004","500","250","psychophysics","437","1654707","0.0-437.0","55b249bdfdf99b28e3c14b05","6213c6d234b54da61b622fea","7","","","","","1","2"
"null","","","null","","","","html-keyboard-response","438","1655223","0.0-438.0","55b249bdfdf99b28e3c14b05","6213c6d234b54da61b622fea","","","","","<p style=""color:darkgreen;font-size:24px;"">Correct :)</p>","",""
"3729","key","v","v","16.818026905829264","500","250","psychophysics","439","1658988","0.0-439.0","55b249bdfdf99b28e3c14b05","6213c6d234b54da61b622fea","7","","","","","0","3"
"null","","","null","","","","html-keyboard-response","440","1659496","0.0-440.0","55b249bdfdf99b28e3c14b05","6213c6d234b54da61b622fea","","","","","<p style=""color:darkgreen;font-size:24px;"">Correct :)</p>","",""
"3826","key","n","n","16.900087719298124","500","250","psychophysics","441","1663358","0.0-441.0","55b249bdfdf99b28e3c14b05","6213c6d234b54da61b622fea","7","","","","","0","6"
"null","","","null","","","","html-keyboard-response","442","1663861","0.0-442.0","55b249bdfdf99b28e3c14b05","6213c6d234b54da61b622fea","","","","","<p style=""color:darkgreen;font-size:24px;"">Correct :)</p>","",""
"3012","key","v","v","17.03898876404463","500","250","psychophysics","443","1666902","0.0-443.0","55b249bdfdf99b28e3c14b05","6213c6d234b54da61b622fea","7","","","","","1","3"
"null","","","null","","","","html-keyboard-response","444","1667417","0.0-444.0","55b249bdfdf99b28e3c14b05","6213c6d234b54da61b622fea","","","","","<p style=""color:darkgreen;font-size:24px;"">Correct :)</p>","",""
"3076","key","v","v","16.970710382514373","500","250","psychophysics","445","1670531","0.0-445.0","55b249bdfdf99b28e3c14b05","6213c6d234b54da61b622fea","7","","","","","0","7"
"null","","","null","","","","html-keyboard-response","446","1671044","0.0-446.0","55b249bdfdf99b28e3c14b05","6213c6d234b54da61b622fea","","","","","<p style=""color:darkgreen;font-size:24px;"">Correct :)</p>","",""
"2691","key","n","n","17.016500000000814","500","250","psychophysics","447","1673779","0.0-447.0","55b249bdfdf99b28e3c14b05","6213c6d234b54da61b622fea","7","","","","","0","4"
"null","","","null","","","","html-keyboard-response","448","1674296","0.0-448.0","55b249bdfdf99b28e3c14b05","6213c6d234b54da61b622fea","","","","","<p style=""color:darkgreen;font-size:24px;"">Correct :)</p>","",""
"3184","key","v","v","16.744293193718057","500","250","psychophysics","449","1677504","0.0-449.0","55b249bdfdf99b28e3c14b05","6213c6d234b54da61b622fea","7","","","","","1","4"
"null","","","null","","","","html-keyboard-response","450","1678018","0.0-450.0","55b249bdfdf99b28e3c14b05","6213c6d234b54da61b622fea","","","","","<p style=""color:darkgreen;font-size:24px;"">Correct :)</p>","",""
"2822","key","v","v","17.619753086419177","500","250","psychophysics","451","1680882","0.0-451.0","55b249bdfdf99b28e3c14b05","6213c6d234b54da61b622fea","7","","","","","0","3"
"null","","","null","","","","html-keyboard-response","452","1681391","0.0-452.0","55b249bdfdf99b28e3c14b05","6213c6d234b54da61b622fea","","","","","<p style=""color:darkgreen;font-size:24px;"">Correct :)</p>","",""
"3369","key","v","v","16.871840796019853","500","250","psychophysics","453","1684791","0.0-453.0","55b249bdfdf99b28e3c14b05","6213c6d234b54da61b622fea","7","","","","","1","2"
"null","","","null","","","","html-keyboard-response","454","1685298","0.0-454.0","55b249bdfdf99b28e3c14b05","6213c6d234b54da61b622fea","","","","","<p style=""color:darkgreen;font-size:24px;"">Correct :)</p>","",""
"2733","key","v","v","17.053950617283892","500","250","psychophysics","455","1688068","0.0-455.0","55b249bdfdf99b28e3c14b05","6213c6d234b54da61b622fea","7","","","","","1","1"
"null","","","null","","","","html-keyboard-response","456","1688574","0.0-456.0","55b249bdfdf99b28e3c14b05","6213c6d234b54da61b622fea","","","","","<p style=""color:darkgreen;font-size:24px;"">Correct :)</p>","",""
"3030","key","v","v","16.940555555555814","500","250","psychophysics","457","1691631","0.0-457.0","55b249bdfdf99b28e3c14b05","6213c6d234b54da61b622fea","7","","","","","0","3"
"null","","","null","","","","html-keyboard-response","458","1692143","0.0-458.0","55b249bdfdf99b28e3c14b05","6213c6d234b54da61b622fea","","","","","<p style=""color:darkgreen;font-size:24px;"">Correct :)</p>","",""
"2913","key","v","v","16.99712643678161","500","250","psychophysics","459","1695108","0.0-459.0","55b249bdfdf99b28e3c14b05","6213c6d234b54da61b622fea","7","","","","","0","1"
"null","","","null","","","","html-keyboard-response","460","1695616","0.0-460.0","55b249bdfdf99b28e3c14b05","6213c6d234b54da61b622fea","","","","","<p style=""color:darkgreen;font-size:24px;"">Correct :)</p>","",""
"2902","key","n","n","16.93225433526028","500","250","psychophysics","461","1698555","0.0-461.0","55b249bdfdf99b28e3c14b05","6213c6d234b54da61b622fea","7","","","","","0","4"
"null","","","null","","","","html-keyboard-response","462","1699068","0.0-462.0","55b249bdfdf99b28e3c14b05","6213c6d234b54da61b622fea","","","","","<p style=""color:darkgreen;font-size:24px;"">Correct :)</p>","",""
"2877","key","n","n","17.502409638553655","500","250","psychophysics","463","1701980","0.0-463.0","55b249bdfdf99b28e3c14b05","6213c6d234b54da61b622fea","7","","","","","0","4"
"null","","","null","","","","html-keyboard-response","464","1702482","0.0-464.0","55b249bdfdf99b28e3c14b05","6213c6d234b54da61b622fea","","","","","<p style=""color:darkgreen;font-size:24px;"">Correct :)</p>","",""
"3605","key","v","v","17.14000000000079","500","250","psychophysics","465","1706124","0.0-465.0","55b249bdfdf99b28e3c14b05","6213c6d234b54da61b622fea","7","","","","","1","3"
"null","","","null","","","","html-keyboard-response","466","1706636","0.0-466.0","55b249bdfdf99b28e3c14b05","6213c6d234b54da61b622fea","","","","","<p style=""color:darkgreen;font-size:24px;"">Correct :)</p>","",""
"2613","key","v","v","17.043225806451314","500","250","psychophysics","467","1709287","0.0-467.0","55b249bdfdf99b28e3c14b05","6213c6d234b54da61b622fea","7","","","","","1","4"
"null","","","null","","","","html-keyboard-response","468","1709794","0.0-468.0","55b249bdfdf99b28e3c14b05","6213c6d234b54da61b622fea","","","","","<p style=""color:darkgreen;font-size:24px;"">Correct :)</p>","",""
"2694","key","v","v","16.957125000000815","500","250","psychophysics","469","1712523","0.0-469.0","55b249bdfdf99b28e3c14b05","6213c6d234b54da61b622fea","7","","","","","0","1"
"null","","","null","","","","html-keyboard-response","470","1713027","0.0-470.0","55b249bdfdf99b28e3c14b05","6213c6d234b54da61b622fea","","","","","<p style=""color:darkgreen;font-size:24px;"">Correct :)</p>","",""
"2715","key","v","v","16.711585365853374","500","250","psychophysics","471","1715779","0.0-471.0","55b249bdfdf99b28e3c14b05","6213c6d234b54da61b622fea","7","","","","","1","3"
"null","","","null","","","","html-keyboard-response","472","1716296","0.0-472.0","55b249bdfdf99b28e3c14b05","6213c6d234b54da61b622fea","","","","","<p style=""color:darkgreen;font-size:24px;"">Correct :)</p>","",""
"3244","key","v","v","16.663794871794586","500","250","psychophysics","473","1719557","0.0-473.0","55b249bdfdf99b28e3c14b05","6213c6d234b54da61b622fea","7","","","","","0","7"
"null","","","null","","","","html-keyboard-response","474","1720063","0.0-474.0","55b249bdfdf99b28e3c14b05","6213c6d234b54da61b622fea","","","","","<p style=""color:darkgreen;font-size:24px;"">Correct :)</p>","",""
"2752","key","v","v","16.834909090909147","500","250","psychophysics","475","1722848","0.0-475.0","55b249bdfdf99b28e3c14b05","6213c6d234b54da61b622fea","7","","","","","0","1"
"null","","","null","","","","html-keyboard-response","476","1723357","0.0-476.0","55b249bdfdf99b28e3c14b05","6213c6d234b54da61b622fea","","","","","<p style=""color:darkgreen;font-size:24px;"">Correct :)</p>","",""
"2534","key","v","v","16.856184210527175","500","250","psychophysics","477","1725926","0.0-477.0","55b249bdfdf99b28e3c14b05","6213c6d234b54da61b622fea","7","","","","","0","1"
"null","","","null","","","","html-keyboard-response","478","1726442","0.0-478.0","55b249bdfdf99b28e3c14b05","6213c6d234b54da61b622fea","","","","","<p style=""color:darkgreen;font-size:24px;"">Correct :)</p>","",""
"9206","key","v","v","16.873443223443054","500","250","psychophysics","479","1735666","0.0-479.0","55b249bdfdf99b28e3c14b05","6213c6d234b54da61b622fea","7","","","","","0","7"
"null","","","null","","","","html-keyboard-response","480","1736176","0.0-480.0","55b249bdfdf99b28e3c14b05","6213c6d234b54da61b622fea","","","","","<p style=""color:darkgreen;font-size:24px;"">Correct :)</p>","",""
"2748","key","v","v","16.80496969697009","500","250","psychophysics","481","1738957","0.0-481.0","55b249bdfdf99b28e3c14b05","6213c6d234b54da61b622fea","7","","","","","1","4"
"null","","","null","","","","html-keyboard-response","482","1739462","0.0-482.0","55b249bdfdf99b28e3c14b05","6213c6d234b54da61b622fea","","","","","<p style=""color:darkgreen;font-size:24px;"">Correct :)</p>","",""
"2783","key","v","v","17.061951219511684","500","250","psychophysics","483","1742275","0.0-483.0","55b249bdfdf99b28e3c14b05","6213c6d234b54da61b622fea","7","","","","","0","1"
"null","","","null","","","","html-keyboard-response","484","1742784","0.0-484.0","55b249bdfdf99b28e3c14b05","6213c6d234b54da61b622fea","","","","","<p style=""color:darkgreen;font-size:24px;"">Correct :)</p>","",""
"3137","key","n","n","16.690899470898632","500","250","psychophysics","485","1745946","0.0-485.0","55b249bdfdf99b28e3c14b05","6213c6d234b54da61b622fea","7","","","","","1","6"
"null","","","null","","","","html-keyboard-response","486","1746459","0.0-486.0","55b249bdfdf99b28e3c14b05","6213c6d234b54da61b622fea","","","","","<p style=""color:darkgreen;font-size:24px;"">Correct :)</p>","",""
"2534","key","v","v","16.82986842105196","500","250","psychophysics","487","1749028","0.0-487.0","55b249bdfdf99b28e3c14b05","6213c6d234b54da61b622fea","7","","","","","1","2"
"null","","","null","","","","html-keyboard-response","488","1749543","0.0-488.0","55b249bdfdf99b28e3c14b05","6213c6d234b54da61b622fea","","","","","<p style=""color:darkgreen;font-size:24px;"">Correct :)</p>","",""
"2500","key","v","v","16.908859060402186","500","250","psychophysics","489","1752081","0.0-489.0","55b249bdfdf99b28e3c14b05","6213c6d234b54da61b622fea","7","","","","","0","3"
"null","","","null","","","","html-keyboard-response","490","1752594","0.0-490.0","55b249bdfdf99b28e3c14b05","6213c6d234b54da61b622fea","","","","","<p style=""color:darkgreen;font-size:24px;"">Correct :)</p>","",""
"2689","key","v","v","17.063291139240505","500","250","psychophysics","491","1755300","0.0-491.0","55b249bdfdf99b28e3c14b05","6213c6d234b54da61b622fea","7","","","","","0","3"
"null","","","null","","","","html-keyboard-response","492","1755811","0.0-492.0","55b249bdfdf99b28e3c14b05","6213c6d234b54da61b622fea","","","","","<p style=""color:darkgreen;font-size:24px;"">Correct :)</p>","",""
"2507","key","v","v","17.055675675675612","500","250","psychophysics","493","1758347","0.0-493.0","55b249bdfdf99b28e3c14b05","6213c6d234b54da61b622fea","7","","","","","1","4"
"null","","","null","","","","html-keyboard-response","494","1758850","0.0-494.0","55b249bdfdf99b28e3c14b05","6213c6d234b54da61b622fea","","","","","<p style=""color:darkgreen;font-size:24px;"">Correct :)</p>","",""
"2958","key","v","v","17.125977011493823","500","250","psychophysics","495","1761838","0.0-495.0","55b249bdfdf99b28e3c14b05","6213c6d234b54da61b622fea","7","","","","","0","3"
"null","","","null","","","","html-keyboard-response","496","1762342","0.0-496.0","55b249bdfdf99b28e3c14b05","6213c6d234b54da61b622fea","","","","","<p style=""color:darkgreen;font-size:24px;"">Correct :)</p>","",""
