"rt","response_type","key_press","response","avg_frame_time","center_x","center_y","trial_type","trial_index","time_elapsed","internal_node_id","pid","sid","phase","guide","targ","resp","stimulus","is5","stim"
"2901","key"," "," ","16.774936046511627","500","250","psychophysics","0","2912","0.0-0.0","5dffc4b8f9e750be9cd65c07","6213c7613afc003cbd7bf088","","","","","","",""
"3435","key"," "," ","16.678252427184464","500","250","psychophysics","1","6357","0.0-1.0","5dffc4b8f9e750be9cd65c07","6213c7613afc003cbd7bf088","","","","","","",""
"2476","key"," "," ","16.67814189189189","500","250","psychophysics","2","8840","0.0-2.0","5dffc4b8f9e750be9cd65c07","6213c7613afc003cbd7bf088","","","","","","",""
"2183","key"," "," ","16.6783","500","250","psychophysics","3","11027","0.0-3.0","5dffc4b8f9e750be9cd65c07","6213c7613afc003cbd7bf088","","","","","","",""
"1903","key"," "," ","16.67810619469027","500","250","psychophysics","4","12937","0.0-4.0","5dffc4b8f9e750be9cd65c07","6213c7613afc003cbd7bf088","","","","","","",""
"4017","key"," "," ","16.678224066390047","500","250","psychophysics","5","16962","0.0-5.0","5dffc4b8f9e750be9cd65c07","6213c7613afc003cbd7bf088","","","","","","",""
"4690","key"," "," ","16.678139285714277","500","250","psychophysics","6","21658","0.0-6.0","5dffc4b8f9e750be9cd65c07","6213c7613afc003cbd7bf088","","","","","","",""
"3412","key"," "," ","16.678161764705887","500","250","psychophysics","7","25078","0.0-7.0","5dffc4b8f9e750be9cd65c07","6213c7613afc003cbd7bf088","","","","","","",""
"38732","key"," "," ","16.685299009047824","500","250","psychophysics","8","63818","0.0-8.0","5dffc4b8f9e750be9cd65c07","6213c7613afc003cbd7bf088","0","0","60","61","","",""
"2707","key"," "," ","16.6775987654321","500","250","psychophysics","9","66538","0.0-9.0","5dffc4b8f9e750be9cd65c07","6213c7613afc003cbd7bf088","","","","","","",""
"2803","key"," "," ","16.678190476190487","500","250","psychophysics","10","69357","0.0-10.0","5dffc4b8f9e750be9cd65c07","6213c7613afc003cbd7bf088","","","","","","",""
"4870","key"," "," ","16.678547945205473","500","250","psychophysics","11","74238","0.0-11.0","5dffc4b8f9e750be9cd65c07","6213c7613afc003cbd7bf088","","","","","","",""
"3078","key"," "," ","16.677125","500","250","psychophysics","12","77322","0.0-12.0","5dffc4b8f9e750be9cd65c07","6213c7613afc003cbd7bf088","","","","","","",""
"1868","key"," "," ","16.675765765765718","500","250","psychophysics","13","79197","0.0-13.0","5dffc4b8f9e750be9cd65c07","6213c7613afc003cbd7bf088","","","","","","",""
"2784","key"," "," ","16.677359281437163","500","250","psychophysics","14","81990","0.0-14.0","5dffc4b8f9e750be9cd65c07","6213c7613afc003cbd7bf088","","","","","","",""
"4402","key"," "," ","16.678030418250952","500","250","psychophysics","15","86398","0.0-15.0","5dffc4b8f9e750be9cd65c07","6213c7613afc003cbd7bf088","","","","","","",""
"1912","key"," "," ","16.676710526315826","500","250","psychophysics","16","88317","0.0-16.0","5dffc4b8f9e750be9cd65c07","6213c7613afc003cbd7bf088","","","","","","",""
"32323","key"," "," ","16.677988648090814","500","250","psychophysics","17","120653","0.0-17.0","5dffc4b8f9e750be9cd65c07","6213c7613afc003cbd7bf088","1","0","47","62","","",""
"15953","key"," "," ","16.678242677824276","500","250","psychophysics","18","136614","0.0-18.0","5dffc4b8f9e750be9cd65c07","6213c7613afc003cbd7bf088","1","5","38","46","","",""
"14302","key"," "," ","16.67813535589266","500","250","psychophysics","19","150924","0.0-19.0","5dffc4b8f9e750be9cd65c07","6213c7613afc003cbd7bf088","1","0","50","70","","",""
"21442","key"," "," ","16.730096799375477","500","250","psychophysics","20","172372","0.0-20.0","5dffc4b8f9e750be9cd65c07","6213c7613afc003cbd7bf088","1","5","56","65","","",""
"19211","key"," "," ","16.678375325803646","500","250","psychophysics","21","191590","0.0-21.0","5dffc4b8f9e750be9cd65c07","6213c7613afc003cbd7bf088","1","0","53","71","","",""
"13443","key"," "," ","16.67803970223325","500","250","psychophysics","22","205045","0.0-22.0","5dffc4b8f9e750be9cd65c07","6213c7613afc003cbd7bf088","1","5","24","30","","",""
"12088","key"," "," ","16.678151933701642","500","250","psychophysics","23","217139","0.0-23.0","5dffc4b8f9e750be9cd65c07","6213c7613afc003cbd7bf088","1","0","38","53","","",""
"7078","key"," "," ","16.677419811320743","500","250","psychophysics","24","224224","0.0-24.0","5dffc4b8f9e750be9cd65c07","6213c7613afc003cbd7bf088","1","5","47","54","","",""
"239374","key"," "," ","16.707225937041947","500","250","psychophysics","25","463605","0.0-25.0","5dffc4b8f9e750be9cd65c07","6213c7613afc003cbd7bf088","1","0","34","48","","",""
"11201","key"," "," ","16.67786885245898","500","250","psychophysics","26","474813","0.0-26.0","5dffc4b8f9e750be9cd65c07","6213c7613afc003cbd7bf088","1","5","58","71","","",""
"11423","key"," "," ","16.67830847953215","500","250","psychophysics","27","486243","0.0-27.0","5dffc4b8f9e750be9cd65c07","6213c7613afc003cbd7bf088","1","0","26","38","","",""
"14212","key"," "," ","16.678298122065698","500","250","psychophysics","28","500466","0.0-28.0","5dffc4b8f9e750be9cd65c07","6213c7613afc003cbd7bf088","1","5","54","65","","",""
"6862","key"," "," ","16.678776155717795","500","250","psychophysics","29","507343","0.0-29.0","5dffc4b8f9e750be9cd65c07","6213c7613afc003cbd7bf088","1","0","25","36","","",""
"7260","key"," "," ","16.677788505747234","500","250","psychophysics","30","514613","0.0-30.0","5dffc4b8f9e750be9cd65c07","6213c7613afc003cbd7bf088","1","5","46","51","","",""
"51253","key"," "," ","16.743484482195356","500","250","psychophysics","31","565875","0.0-31.0","5dffc4b8f9e750be9cd65c07","6213c7613afc003cbd7bf088","1","0","51","72","","",""
"4002","key"," "," ","16.678652719665653","500","250","psychophysics","32","569884","0.0-32.0","5dffc4b8f9e750be9cd65c07","6213c7613afc003cbd7bf088","1","5","21","29","","",""
"5890","key"," "," ","16.67865722379634","500","250","psychophysics","33","575784","0.0-33.0","5dffc4b8f9e750be9cd65c07","6213c7613afc003cbd7bf088","1","0","22","31","","",""
"5414","key"," "," ","16.677916666666725","500","250","psychophysics","34","581204","0.0-34.0","5dffc4b8f9e750be9cd65c07","6213c7613afc003cbd7bf088","1","5","54","66","","",""
"5374","key"," "," ","16.67844409937898","500","250","psychophysics","35","586594","0.0-35.0","5dffc4b8f9e750be9cd65c07","6213c7613afc003cbd7bf088","1","0","31","42","","",""
"5259","key"," "," ","16.67853650793633","500","250","psychophysics","36","591864","0.0-36.0","5dffc4b8f9e750be9cd65c07","6213c7613afc003cbd7bf088","1","5","40","46","","",""
"2790","key"," "," ","16.68035329341286","500","250","psychophysics","37","594664","0.0-37.0","5dffc4b8f9e750be9cd65c07","6213c7613afc003cbd7bf088","","","","","","",""
"7756","key"," "," ","16.677928879310365","500","250","psychophysics","38","602424","0.0-38.0","5dffc4b8f9e750be9cd65c07","6213c7613afc003cbd7bf088","","","","","","",""
"2416","key"," "," ","16.679682758620714","500","250","psychophysics","39","604851","0.0-39.0","5dffc4b8f9e750be9cd65c07","6213c7613afc003cbd7bf088","","","","","","",""
"10702","key"," "," ","16.67808736349451","500","250","psychophysics","40","615558","0.0-40.0","5dffc4b8f9e750be9cd65c07","6213c7613afc003cbd7bf088","2","0","56","86","","",""
"4034","key"," "," ","16.676609958506564","500","250","psychophysics","41","619599","0.0-41.0","5dffc4b8f9e750be9cd65c07","6213c7613afc003cbd7bf088","","","","","","",""
"5729","key"," "," ","16.924109144542903","500","250","psychophysics","42","625348","0.0-42.0","5dffc4b8f9e750be9cd65c07","6213c7613afc003cbd7bf088","2","0","43","57","","",""
"1871","key"," "," ","16.678621621622057","500","250","psychophysics","43","627225","0.0-43.0","5dffc4b8f9e750be9cd65c07","6213c7613afc003cbd7bf088","","","","","","",""
"7361","key"," "," ","16.678581447963975","500","250","psychophysics","44","634605","0.0-44.0","5dffc4b8f9e750be9cd65c07","6213c7613afc003cbd7bf088","2","0","54","65","","",""
"2965","key"," "," ","16.678389830508213","500","250","psychophysics","45","637576","0.0-45.0","5dffc4b8f9e750be9cd65c07","6213c7613afc003cbd7bf088","","","","","","",""
"5839","key"," "," ","16.67830285714274","500","250","psychophysics","46","643427","0.0-46.0","5dffc4b8f9e750be9cd65c07","6213c7613afc003cbd7bf088","2","0","52","60","","",""
"2431","key"," "," ","16.678434482758767","500","250","psychophysics","47","645864","0.0-47.0","5dffc4b8f9e750be9cd65c07","6213c7613afc003cbd7bf088","","","","","","",""
"5439","key"," "," ","16.677745398773204","500","250","psychophysics","48","651317","0.0-48.0","5dffc4b8f9e750be9cd65c07","6213c7613afc003cbd7bf088","2","0","36","44","","",""
"2454","key"," "," ","16.67451369863048","500","250","psychophysics","49","653776","0.0-49.0","5dffc4b8f9e750be9cd65c07","6213c7613afc003cbd7bf088","","","","","","",""
"5601","key"," "," ","16.72783880597015","500","250","psychophysics","50","659394","0.0-50.0","5dffc4b8f9e750be9cd65c07","6213c7613afc003cbd7bf088","2","0","49","56","","",""
"2192","key"," "," ","16.677343511450964","500","250","psychophysics","51","661594","0.0-51.0","5dffc4b8f9e750be9cd65c07","6213c7613afc003cbd7bf088","","","","","","",""
"3977","key"," "," ","16.67774789915968","500","250","psychophysics","52","665584","0.0-52.0","5dffc4b8f9e750be9cd65c07","6213c7613afc003cbd7bf088","2","0","30","36","","",""
"2204","key"," "," ","16.67911363636394","500","250","psychophysics","53","667794","0.0-53.0","5dffc4b8f9e750be9cd65c07","6213c7613afc003cbd7bf088","","","","","","",""
"7447","key"," "," ","16.67841255605391","500","250","psychophysics","54","675249","0.0-54.0","5dffc4b8f9e750be9cd65c07","6213c7613afc003cbd7bf088","2","0","55","64","","",""
"1720","key"," "," ","16.67765686274552","500","250","psychophysics","55","676974","0.0-55.0","5dffc4b8f9e750be9cd65c07","6213c7613afc003cbd7bf088","","","","","","",""
"4974","key"," "," ","16.677395973154173","500","250","psychophysics","56","681964","0.0-56.0","5dffc4b8f9e750be9cd65c07","6213c7613afc003cbd7bf088","2","0","58","65","","",""
"2122","key"," "," ","16.678866141731483","500","250","psychophysics","57","684094","0.0-57.0","5dffc4b8f9e750be9cd65c07","6213c7613afc003cbd7bf088","","","","","","",""
"2183","key"," "," ","16.67866412213762","500","250","psychophysics","58","686294","0.0-58.0","5dffc4b8f9e750be9cd65c07","6213c7613afc003cbd7bf088","2","0","23","24","","",""
"2116","key"," "," ","16.67661904761963","500","250","psychophysics","59","688415","0.0-59.0","5dffc4b8f9e750be9cd65c07","6213c7613afc003cbd7bf088","","","","","","",""
"3334","key"," "," ","16.677724999999626","500","250","psychophysics","60","691765","0.0-60.0","5dffc4b8f9e750be9cd65c07","6213c7613afc003cbd7bf088","2","0","28","28","","",""
"3707","key"," "," ","16.677752252252297","500","250","psychophysics","61","695477","0.0-61.0","5dffc4b8f9e750be9cd65c07","6213c7613afc003cbd7bf088","","","","","","",""
"2419","key"," "," ","16.67923611111069","500","250","psychophysics","62","697901","0.0-62.0","5dffc4b8f9e750be9cd65c07","6213c7613afc003cbd7bf088","2","0","26","28","","",""
"1448","key"," "," ","16.683000000000142","500","250","psychophysics","63","699355","0.0-63.0","5dffc4b8f9e750be9cd65c07","6213c7613afc003cbd7bf088","","","","","","",""
"4338","key"," "," ","16.67827307692272","500","250","psychophysics","64","703705","0.0-64.0","5dffc4b8f9e750be9cd65c07","6213c7613afc003cbd7bf088","2","0","45","46","","",""
"1429","key"," "," ","16.682411764705936","500","250","psychophysics","65","705138","0.0-65.0","5dffc4b8f9e750be9cd65c07","6213c7613afc003cbd7bf088","","","","","","",""
"4472","key"," "," ","16.67870522388031","500","250","psychophysics","66","709623","0.0-66.0","5dffc4b8f9e750be9cd65c07","6213c7613afc003cbd7bf088","2","0","42","44","","",""
"2164","key"," "," ","16.679170542635752","500","250","psychophysics","67","711793","0.0-67.0","5dffc4b8f9e750be9cd65c07","6213c7613afc003cbd7bf088","","","","","","",""
"5539","key"," "," ","16.67823192771105","500","250","psychophysics","68","717346","0.0-68.0","5dffc4b8f9e750be9cd65c07","6213c7613afc003cbd7bf088","2","0","57","63","","",""
"3332","key"," "," ","16.677226130652883","500","250","psychophysics","69","720684","0.0-69.0","5dffc4b8f9e750be9cd65c07","6213c7613afc003cbd7bf088","","","","","","",""
"2205","key"," "," ","16.68015909090878","500","250","psychophysics","70","722905","0.0-70.0","5dffc4b8f9e750be9cd65c07","6213c7613afc003cbd7bf088","","","","","","",""
"1684","key"," "," ","16.676683168316554","500","250","psychophysics","71","724601","0.0-71.0","5dffc4b8f9e750be9cd65c07","6213c7613afc003cbd7bf088","","","","","","",""
"9269","key"," "," ","16.678118918918972","500","250","psychophysics","72","733875","0.0-72.0","5dffc4b8f9e750be9cd65c07","6213c7613afc003cbd7bf088","3","5","39","38","","",""
"6797","key"," "," ","16.677302211302237","500","250","psychophysics","73","740678","0.0-73.0","5dffc4b8f9e750be9cd65c07","6213c7613afc003cbd7bf088","3","0","57","64","","",""
"8642","key"," "," ","16.677967117988548","500","250","psychophysics","74","749325","0.0-74.0","5dffc4b8f9e750be9cd65c07","6213c7613afc003cbd7bf088","3","5","43","46","","",""
"4084","key"," "," ","16.67735510204054","500","250","psychophysics","75","753419","0.0-75.0","5dffc4b8f9e750be9cd65c07","6213c7613afc003cbd7bf088","3","0","21","27","","",""
"8720","key"," "," ","16.677204980843","500","250","psychophysics","76","762145","0.0-76.0","5dffc4b8f9e750be9cd65c07","6213c7613afc003cbd7bf088","3","5","48","55","","",""
"4331","key"," "," ","16.676922779922684","500","250","psychophysics","77","766481","0.0-77.0","5dffc4b8f9e750be9cd65c07","6213c7613afc003cbd7bf088","3","0","42","53","","",""
"4378","key"," "," ","16.67974809160321","500","250","psychophysics","78","770865","0.0-78.0","5dffc4b8f9e750be9cd65c07","6213c7613afc003cbd7bf088","3","5","40","38","","",""
"3685","key"," "," ","16.67758181818221","500","250","psychophysics","79","774555","0.0-79.0","5dffc4b8f9e750be9cd65c07","6213c7613afc003cbd7bf088","3","0","29","43","","",""
"5908","key"," "," ","16.677629943502644","500","250","psychophysics","80","780475","0.0-80.0","5dffc4b8f9e750be9cd65c07","6213c7613afc003cbd7bf088","3","5","57","66","","",""
"3514","key"," "," ","16.679142857142836","500","250","psychophysics","81","783995","0.0-81.0","5dffc4b8f9e750be9cd65c07","6213c7613afc003cbd7bf088","3","0","39","49","","",""
"2610","key"," "," ","16.680057692307926","500","250","psychophysics","82","786610","0.0-82.0","5dffc4b8f9e750be9cd65c07","6213c7613afc003cbd7bf088","3","5","28","32","","",""
"3179","key"," "," ","16.678931578947232","500","250","psychophysics","83","789795","0.0-83.0","5dffc4b8f9e750be9cd65c07","6213c7613afc003cbd7bf088","3","0","49","59","","",""
"2065","key"," "," ","16.678504065040695","500","250","psychophysics","84","791865","0.0-84.0","5dffc4b8f9e750be9cd65c07","6213c7613afc003cbd7bf088","3","5","22","24","","",""
"4514","key"," "," ","16.677277777777743","500","250","psychophysics","85","796385","0.0-85.0","5dffc4b8f9e750be9cd65c07","6213c7613afc003cbd7bf088","3","0","27","39","","",""
"3228","key"," "," ","16.679248704663067","500","250","psychophysics","86","799618","0.0-86.0","5dffc4b8f9e750be9cd65c07","6213c7613afc003cbd7bf088","3","5","44","48","","",""
"4949","key"," "," ","16.67864189189198","500","250","psychophysics","87","804572","0.0-87.0","5dffc4b8f9e750be9cd65c07","6213c7613afc003cbd7bf088","3","0","46","53","","",""
"3666","key"," "," ","16.67660273972646","500","250","psychophysics","88","808245","0.0-88.0","5dffc4b8f9e750be9cd65c07","6213c7613afc003cbd7bf088","3","5","21","24","","",""
"3179","key"," "," ","16.679584210525928","500","250","psychophysics","89","811435","0.0-89.0","5dffc4b8f9e750be9cd65c07","6213c7613afc003cbd7bf088","3","0","39","55","","",""
"2533","key"," "," ","16.677618421052774","500","250","psychophysics","90","813978","0.0-90.0","5dffc4b8f9e750be9cd65c07","6213c7613afc003cbd7bf088","3","5","29","27","","",""
"4783","key"," "," ","16.67860139860166","500","250","psychophysics","91","818766","0.0-91.0","5dffc4b8f9e750be9cd65c07","6213c7613afc003cbd7bf088","3","0","55","68","","",""
"1515","key"," "," ","16.675455555556496","500","250","psychophysics","92","820286","0.0-92.0","5dffc4b8f9e750be9cd65c07","6213c7613afc003cbd7bf088","","","","","","",""
"18030","","","v","","","","html-keyboard-response","93","838318","0.0-93.0","5dffc4b8f9e750be9cd65c07","6213c7613afc003cbd7bf088","","","","","<p> In this part of the experiment, we are going present digits 1, 2, 3, 4, 6, 7, 8, and 9.  Notice that 5 is missing.  Your job is to say whether the presented digit is less than or greater than 5.  For example, 3 is less than 5 and 7 is greater than 5.  If the digit is less than 5, press the v key; if it is greater than 5, press the n key. We are going to do 200 of these in total, but only 50 righ now. They go real fast.</p>  <br><br>  Ready? (press v or n)","",""
"3204","key","v","v","16.76718229166666","500","250","psychophysics","94","841536","0.0-94.0","5dffc4b8f9e750be9cd65c07","6213c7613afc003cbd7bf088","4","","","","","1","2"
"null","","","null","","","","html-keyboard-response","95","842039","0.0-95.0","5dffc4b8f9e750be9cd65c07","6213c7613afc003cbd7bf088","","","","","<p style=""color:darkgreen;font-size:24px;"">Correct :)</p>","",""
"2512","key","n","n","16.67798675496643","500","250","psychophysics","96","844567","0.0-96.0","5dffc4b8f9e750be9cd65c07","6213c7613afc003cbd7bf088","4","","","","","1","9"
"null","","","null","","","","html-keyboard-response","97","845069","0.0-97.0","5dffc4b8f9e750be9cd65c07","6213c7613afc003cbd7bf088","","","","","<p style=""color:darkgreen;font-size:24px;"">Correct :)</p>","",""
"2500","key","v","v","16.67787333333399","500","250","psychophysics","98","847586","0.0-98.0","5dffc4b8f9e750be9cd65c07","6213c7613afc003cbd7bf088","4","","","","","1","3"
"null","","","null","","","","html-keyboard-response","99","848088","0.0-99.0","5dffc4b8f9e750be9cd65c07","6213c7613afc003cbd7bf088","","","","","<p style=""color:darkgreen;font-size:24px;"">Correct :)</p>","",""
"2502","key","n","n","16.678500000000156","500","250","psychophysics","100","850596","0.0-100.0","5dffc4b8f9e750be9cd65c07","6213c7613afc003cbd7bf088","4","","","","","1","9"
"null","","","null","","","","html-keyboard-response","101","851098","0.0-101.0","5dffc4b8f9e750be9cd65c07","6213c7613afc003cbd7bf088","","","","","<p style=""color:darkgreen;font-size:24px;"">Correct :)</p>","",""
"2492","key","v","v","16.67784666666606","500","250","psychophysics","102","853608","0.0-102.0","5dffc4b8f9e750be9cd65c07","6213c7613afc003cbd7bf088","4","","","","","1","1"
"null","","","null","","","","html-keyboard-response","103","854109","0.0-103.0","5dffc4b8f9e750be9cd65c07","6213c7613afc003cbd7bf088","","","","","<p style=""color:darkgreen;font-size:24px;"">Correct :)</p>","",""
"2489","key","v","v","16.67534228187873","500","250","psychophysics","104","856616","0.0-104.0","5dffc4b8f9e750be9cd65c07","6213c7613afc003cbd7bf088","4","","","","","1","1"
"null","","","null","","","","html-keyboard-response","105","857117","0.0-105.0","5dffc4b8f9e750be9cd65c07","6213c7613afc003cbd7bf088","","","","","<p style=""color:darkgreen;font-size:24px;"">Correct :)</p>","",""
"2491","key","n","n","16.79022147651018","500","250","psychophysics","106","859627","0.0-106.0","5dffc4b8f9e750be9cd65c07","6213c7613afc003cbd7bf088","4","","","","","1","8"
"null","","","null","","","","html-keyboard-response","107","860128","0.0-107.0","5dffc4b8f9e750be9cd65c07","6213c7613afc003cbd7bf088","","","","","<p style=""color:darkgreen;font-size:24px;"">Correct :)</p>","",""
"2450","key","v","v","16.679797297297203","500","250","psychophysics","108","862596","0.0-108.0","5dffc4b8f9e750be9cd65c07","6213c7613afc003cbd7bf088","4","","","","","1","2"
"null","","","null","","","","html-keyboard-response","109","863099","0.0-109.0","5dffc4b8f9e750be9cd65c07","6213c7613afc003cbd7bf088","","","","","<p style=""color:darkgreen;font-size:24px;"">Correct :)</p>","",""
"2482","key","v","v","16.676583892617362","500","250","psychophysics","110","865595","0.0-110.0","5dffc4b8f9e750be9cd65c07","6213c7613afc003cbd7bf088","4","","","","","1","2"
"null","","","null","","","","html-keyboard-response","111","866097","0.0-111.0","5dffc4b8f9e750be9cd65c07","6213c7613afc003cbd7bf088","","","","","<p style=""color:darkgreen;font-size:24px;"">Correct :)</p>","",""
"2532","key","n","n","16.677908496732606","500","250","psychophysics","112","868648","0.0-112.0","5dffc4b8f9e750be9cd65c07","6213c7613afc003cbd7bf088","4","","","","","1","9"
"null","","","null","","","","html-keyboard-response","113","869151","0.0-113.0","5dffc4b8f9e750be9cd65c07","6213c7613afc003cbd7bf088","","","","","<p style=""color:darkgreen;font-size:24px;"">Correct :)</p>","",""
"2530","key","v","v","16.677860927152054","500","250","psychophysics","114","871686","0.0-114.0","5dffc4b8f9e750be9cd65c07","6213c7613afc003cbd7bf088","4","","","","","1","3"
"null","","","null","","","","html-keyboard-response","115","872188","0.0-115.0","5dffc4b8f9e750be9cd65c07","6213c7613afc003cbd7bf088","","","","","<p style=""color:darkgreen;font-size:24px;"">Correct :)</p>","",""
"2479","key","v","v","16.790288590604202","500","250","psychophysics","116","874686","0.0-116.0","5dffc4b8f9e750be9cd65c07","6213c7613afc003cbd7bf088","4","","","","","1","2"
"null","","","null","","","","html-keyboard-response","117","875188","0.0-117.0","5dffc4b8f9e750be9cd65c07","6213c7613afc003cbd7bf088","","","","","<p style=""color:darkgreen;font-size:24px;"">Correct :)</p>","",""
"2380","key","v","v","16.678243055555665","500","250","psychophysics","118","877586","0.0-118.0","5dffc4b8f9e750be9cd65c07","6213c7613afc003cbd7bf088","4","","","","","1","1"
"null","","","null","","","","html-keyboard-response","119","878087","0.0-119.0","5dffc4b8f9e750be9cd65c07","6213c7613afc003cbd7bf088","","","","","<p style=""color:darkgreen;font-size:24px;"">Correct :)</p>","",""
"2478","key","n","n","16.679308724831852","500","250","psychophysics","120","880576","0.0-120.0","5dffc4b8f9e750be9cd65c07","6213c7613afc003cbd7bf088","4","","","","","1","7"
"null","","","null","","","","html-keyboard-response","121","881079","0.0-121.0","5dffc4b8f9e750be9cd65c07","6213c7613afc003cbd7bf088","","","","","<p style=""color:darkgreen;font-size:24px;"">Correct :)</p>","",""
"2471","key","n","n","16.677684563758234","500","250","psychophysics","122","883567","0.0-122.0","5dffc4b8f9e750be9cd65c07","6213c7613afc003cbd7bf088","4","","","","","1","9"
"null","","","null","","","","html-keyboard-response","123","884070","0.0-123.0","5dffc4b8f9e750be9cd65c07","6213c7613afc003cbd7bf088","","","","","<p style=""color:darkgreen;font-size:24px;"">Correct :)</p>","",""
"2557","key","v","v","16.67729220779268","500","250","psychophysics","124","886645","0.0-124.0","5dffc4b8f9e750be9cd65c07","6213c7613afc003cbd7bf088","4","","","","","1","3"
"null","","","null","","","","html-keyboard-response","125","887147","0.0-125.0","5dffc4b8f9e750be9cd65c07","6213c7613afc003cbd7bf088","","","","","<p style=""color:darkgreen;font-size:24px;"">Correct :)</p>","",""
"2500","key","n","n","16.678602649006894","500","250","psychophysics","126","889666","0.0-126.0","5dffc4b8f9e750be9cd65c07","6213c7613afc003cbd7bf088","4","","","","","1","9"
"null","","","null","","","","html-keyboard-response","127","890168","0.0-127.0","5dffc4b8f9e750be9cd65c07","6213c7613afc003cbd7bf088","","","","","<p style=""color:darkgreen;font-size:24px;"">Correct :)</p>","",""
"2468","key","n","n","16.789722972972683","500","250","psychophysics","128","892656","0.0-128.0","5dffc4b8f9e750be9cd65c07","6213c7613afc003cbd7bf088","4","","","","","1","9"
"null","","","null","","","","html-keyboard-response","129","893158","0.0-129.0","5dffc4b8f9e750be9cd65c07","6213c7613afc003cbd7bf088","","","","","<p style=""color:darkgreen;font-size:24px;"">Correct :)</p>","",""
"2506","key","n","n","16.678039735099084","500","250","psychophysics","130","895686","0.0-130.0","5dffc4b8f9e750be9cd65c07","6213c7613afc003cbd7bf088","4","","","","","1","9"
"null","","","null","","","","html-keyboard-response","131","896188","0.0-131.0","5dffc4b8f9e750be9cd65c07","6213c7613afc003cbd7bf088","","","","","<p style=""color:darkgreen;font-size:24px;"">Correct :)</p>","",""
"2544","key","n","n","16.786529411764942","500","250","psychophysics","132","898750","0.0-132.0","5dffc4b8f9e750be9cd65c07","6213c7613afc003cbd7bf088","4","","","","","1","7"
"null","","","null","","","","html-keyboard-response","133","899251","0.0-133.0","5dffc4b8f9e750be9cd65c07","6213c7613afc003cbd7bf088","","","","","<p style=""color:darkgreen;font-size:24px;"">Correct :)</p>","",""
"2501","key","v","v","16.67984768211925","500","250","psychophysics","134","901770","0.0-134.0","5dffc4b8f9e750be9cd65c07","6213c7613afc003cbd7bf088","4","","","","","1","2"
"null","","","null","","","","html-keyboard-response","135","902273","0.0-135.0","5dffc4b8f9e750be9cd65c07","6213c7613afc003cbd7bf088","","","","","<p style=""color:darkgreen;font-size:24px;"">Correct :)</p>","",""
"2559","key","v","v","16.78595454545462","500","250","psychophysics","136","904856","0.0-136.0","5dffc4b8f9e750be9cd65c07","6213c7613afc003cbd7bf088","4","","","","","1","2"
"null","","","null","","","","html-keyboard-response","137","905358","0.0-137.0","5dffc4b8f9e750be9cd65c07","6213c7613afc003cbd7bf088","","","","","<p style=""color:darkgreen;font-size:24px;"">Correct :)</p>","",""
"2543","key","n","n","16.676633986927495","500","250","psychophysics","138","907916","0.0-138.0","5dffc4b8f9e750be9cd65c07","6213c7613afc003cbd7bf088","4","","","","","1","7"
"null","","","null","","","","html-keyboard-response","139","908418","0.0-139.0","5dffc4b8f9e750be9cd65c07","6213c7613afc003cbd7bf088","","","","","<p style=""color:darkgreen;font-size:24px;"">Correct :)</p>","",""
"2532","key","v","v","16.67801973684216","500","250","psychophysics","140","910966","0.0-140.0","5dffc4b8f9e750be9cd65c07","6213c7613afc003cbd7bf088","4","","","","","1","3"
"null","","","null","","","","html-keyboard-response","141","911467","0.0-141.0","5dffc4b8f9e750be9cd65c07","6213c7613afc003cbd7bf088","","","","","<p style=""color:darkgreen;font-size:24px;"">Correct :)</p>","",""
"2540","key","v","v","16.787539473684248","500","250","psychophysics","142","914016","0.0-142.0","5dffc4b8f9e750be9cd65c07","6213c7613afc003cbd7bf088","4","","","","","1","4"
"null","","","null","","","","html-keyboard-response","143","914518","0.0-143.0","5dffc4b8f9e750be9cd65c07","6213c7613afc003cbd7bf088","","","","","<p style=""color:darkgreen;font-size:24px;"">Correct :)</p>","",""
"2419","key","v","v","16.79443448275922","500","250","psychophysics","144","916956","0.0-144.0","5dffc4b8f9e750be9cd65c07","6213c7613afc003cbd7bf088","4","","","","","1","3"
"null","","","null","","","","html-keyboard-response","145","917458","0.0-145.0","5dffc4b8f9e750be9cd65c07","6213c7613afc003cbd7bf088","","","","","<p style=""color:darkgreen;font-size:24px;"">Correct :)</p>","",""
"2463","key","v","v","16.67795270270309","500","250","psychophysics","146","919936","0.0-146.0","5dffc4b8f9e750be9cd65c07","6213c7613afc003cbd7bf088","4","","","","","1","3"
"null","","","null","","","","html-keyboard-response","147","920437","0.0-147.0","5dffc4b8f9e750be9cd65c07","6213c7613afc003cbd7bf088","","","","","<p style=""color:darkgreen;font-size:24px;"">Correct :)</p>","",""
"2464","key","v","v","16.678738255033444","500","250","psychophysics","148","922925","0.0-148.0","5dffc4b8f9e750be9cd65c07","6213c7613afc003cbd7bf088","4","","","","","1","3"
"null","","","null","","","","html-keyboard-response","149","923427","0.0-149.0","5dffc4b8f9e750be9cd65c07","6213c7613afc003cbd7bf088","","","","","<p style=""color:darkgreen;font-size:24px;"">Correct :)</p>","",""
"2443","key","n","n","16.678115646258238","500","250","psychophysics","150","925887","0.0-150.0","5dffc4b8f9e750be9cd65c07","6213c7613afc003cbd7bf088","4","","","","","1","6"
"null","","","null","","","","html-keyboard-response","151","926389","0.0-151.0","5dffc4b8f9e750be9cd65c07","6213c7613afc003cbd7bf088","","","","","<p style=""color:darkgreen;font-size:24px;"">Correct :)</p>","",""
"2509","key","n","n","16.677615894039395","500","250","psychophysics","152","928916","0.0-152.0","5dffc4b8f9e750be9cd65c07","6213c7613afc003cbd7bf088","4","","","","","1","7"
"null","","","null","","","","html-keyboard-response","153","929418","0.0-153.0","5dffc4b8f9e750be9cd65c07","6213c7613afc003cbd7bf088","","","","","<p style=""color:darkgreen;font-size:24px;"">Correct :)</p>","",""
"2461","key","v","v","16.67778378378323","500","250","psychophysics","154","931890","0.0-154.0","5dffc4b8f9e750be9cd65c07","6213c7613afc003cbd7bf088","4","","","","","1","4"
"null","","","null","","","","html-keyboard-response","155","932392","0.0-155.0","5dffc4b8f9e750be9cd65c07","6213c7613afc003cbd7bf088","","","","","<p style=""color:darkgreen;font-size:24px;"">Correct :)</p>","",""
"2437","key","v","v","16.67846938775501","500","250","psychophysics","156","934847","0.0-156.0","5dffc4b8f9e750be9cd65c07","6213c7613afc003cbd7bf088","4","","","","","1","4"
"null","","","null","","","","html-keyboard-response","157","935348","0.0-157.0","5dffc4b8f9e750be9cd65c07","6213c7613afc003cbd7bf088","","","","","<p style=""color:darkgreen;font-size:24px;"">Correct :)</p>","",""
"2458","key","n","n","16.676689189189347","500","250","psychophysics","158","937812","0.0-158.0","5dffc4b8f9e750be9cd65c07","6213c7613afc003cbd7bf088","4","","","","","1","9"
"null","","","null","","","","html-keyboard-response","159","938314","0.0-159.0","5dffc4b8f9e750be9cd65c07","6213c7613afc003cbd7bf088","","","","","<p style=""color:darkgreen;font-size:24px;"">Correct :)</p>","",""
"2540","key","n","n","16.677254901960755","500","250","psychophysics","160","940867","0.0-160.0","5dffc4b8f9e750be9cd65c07","6213c7613afc003cbd7bf088","4","","","","","1","7"
"null","","","null","","","","html-keyboard-response","161","941368","0.0-161.0","5dffc4b8f9e750be9cd65c07","6213c7613afc003cbd7bf088","","","","","<p style=""color:darkgreen;font-size:24px;"">Correct :)</p>","",""
"2598","key","v","v","16.678707006369617","500","250","psychophysics","162","943983","0.0-162.0","5dffc4b8f9e750be9cd65c07","6213c7613afc003cbd7bf088","4","","","","","1","4"
"null","","","null","","","","html-keyboard-response","163","944487","0.0-163.0","5dffc4b8f9e750be9cd65c07","6213c7613afc003cbd7bf088","","","","","<p style=""color:darkgreen;font-size:24px;"">Correct :)</p>","",""
"2484","key","v","v","16.677593333333885","500","250","psychophysics","164","946987","0.0-164.0","5dffc4b8f9e750be9cd65c07","6213c7613afc003cbd7bf088","4","","","","","1","1"
"null","","","null","","","","html-keyboard-response","165","947488","0.0-165.0","5dffc4b8f9e750be9cd65c07","6213c7613afc003cbd7bf088","","","","","<p style=""color:darkgreen;font-size:24px;"">Correct :)</p>","",""
"2442","key","v","v","16.680074829932106","500","250","psychophysics","166","949947","0.0-166.0","5dffc4b8f9e750be9cd65c07","6213c7613afc003cbd7bf088","4","","","","","1","1"
"null","","","null","","","","html-keyboard-response","167","950449","0.0-167.0","5dffc4b8f9e750be9cd65c07","6213c7613afc003cbd7bf088","","","","","<p style=""color:darkgreen;font-size:24px;"">Correct :)</p>","",""
"2507","key","n","n","16.677854304635954","500","250","psychophysics","168","952973","0.0-168.0","5dffc4b8f9e750be9cd65c07","6213c7613afc003cbd7bf088","4","","","","","1","8"
"null","","","null","","","","html-keyboard-response","169","953475","0.0-169.0","5dffc4b8f9e750be9cd65c07","6213c7613afc003cbd7bf088","","","","","<p style=""color:darkgreen;font-size:24px;"">Correct :)</p>","",""
"2593","key","n","n","16.677782051282403","500","250","psychophysics","170","956078","0.0-170.0","5dffc4b8f9e750be9cd65c07","6213c7613afc003cbd7bf088","4","","","","","1","6"
"null","","","null","","","","html-keyboard-response","171","956579","0.0-171.0","5dffc4b8f9e750be9cd65c07","6213c7613afc003cbd7bf088","","","","","<p style=""color:darkgreen;font-size:24px;"">Correct :)</p>","",""
"2431","key","n","n","16.79270547945196","500","250","psychophysics","172","959028","0.0-172.0","5dffc4b8f9e750be9cd65c07","6213c7613afc003cbd7bf088","4","","","","","1","9"
"null","","","null","","","","html-keyboard-response","173","959532","0.0-173.0","5dffc4b8f9e750be9cd65c07","6213c7613afc003cbd7bf088","","","","","<p style=""color:darkgreen;font-size:24px;"">Correct :)</p>","",""
"2379","key","n","n","16.794272727272766","500","250","psychophysics","174","961929","0.0-174.0","5dffc4b8f9e750be9cd65c07","6213c7613afc003cbd7bf088","4","","","","","1","7"
"null","","","null","","","","html-keyboard-response","175","962431","0.0-175.0","5dffc4b8f9e750be9cd65c07","6213c7613afc003cbd7bf088","","","","","<p style=""color:darkgreen;font-size:24px;"">Correct :)</p>","",""
"2390","key","n","n","16.678388888888648","500","250","psychophysics","176","964831","0.0-176.0","5dffc4b8f9e750be9cd65c07","6213c7613afc003cbd7bf088","4","","","","","1","8"
"null","","","null","","","","html-keyboard-response","177","965333","0.0-177.0","5dffc4b8f9e750be9cd65c07","6213c7613afc003cbd7bf088","","","","","<p style=""color:darkgreen;font-size:24px;"">Correct :)</p>","",""
"2417","key","n","n","16.677890410959364","500","250","psychophysics","178","967767","0.0-178.0","5dffc4b8f9e750be9cd65c07","6213c7613afc003cbd7bf088","4","","","","","1","6"
"null","","","null","","","","html-keyboard-response","179","968268","0.0-179.0","5dffc4b8f9e750be9cd65c07","6213c7613afc003cbd7bf088","","","","","<p style=""color:darkgreen;font-size:24px;"">Correct :)</p>","",""
"2416","key","n","n","16.678554794519872","500","250","psychophysics","180","970701","0.0-180.0","5dffc4b8f9e750be9cd65c07","6213c7613afc003cbd7bf088","4","","","","","1","9"
"null","","","null","","","","html-keyboard-response","181","971204","0.0-181.0","5dffc4b8f9e750be9cd65c07","6213c7613afc003cbd7bf088","","","","","<p style=""color:darkgreen;font-size:24px;"">Correct :)</p>","",""
"2398","key","n","n","16.67846896551742","500","250","psychophysics","182","973619","0.0-182.0","5dffc4b8f9e750be9cd65c07","6213c7613afc003cbd7bf088","4","","","","","1","6"
"null","","","null","","","","html-keyboard-response","183","974120","0.0-183.0","5dffc4b8f9e750be9cd65c07","6213c7613afc003cbd7bf088","","","","","<p style=""color:darkgreen;font-size:24px;"">Correct :)</p>","",""
"2472","key","v","v","16.677852348993287","500","250","psychophysics","184","976608","0.0-184.0","5dffc4b8f9e750be9cd65c07","6213c7613afc003cbd7bf088","4","","","","","1","1"
"null","","","null","","","","html-keyboard-response","185","977109","0.0-185.0","5dffc4b8f9e750be9cd65c07","6213c7613afc003cbd7bf088","","","","","<p style=""color:darkgreen;font-size:24px;"">Correct :)</p>","",""
"2483","key","v","v","16.790832214765313","500","250","psychophysics","186","979617","0.0-186.0","5dffc4b8f9e750be9cd65c07","6213c7613afc003cbd7bf088","4","","","","","1","2"
"null","","","null","","","","html-keyboard-response","187","980120","0.0-187.0","5dffc4b8f9e750be9cd65c07","6213c7613afc003cbd7bf088","","","","","<p style=""color:darkgreen;font-size:24px;"">Correct :)</p>","",""
"2651","key","v","v","16.677213836478145","500","250","psychophysics","188","982777","0.0-188.0","5dffc4b8f9e750be9cd65c07","6213c7613afc003cbd7bf088","4","","","","","1","4"
"null","","","null","","","","html-keyboard-response","189","983287","0.0-189.0","5dffc4b8f9e750be9cd65c07","6213c7613afc003cbd7bf088","","","","","<p style=""color:darkgreen;font-size:24px;"">Correct :)</p>","",""
"2492","key","n","n","16.676459999999498","500","250","psychophysics","190","985797","0.0-190.0","5dffc4b8f9e750be9cd65c07","6213c7613afc003cbd7bf088","4","","","","","1","6"
"null","","","null","","","","html-keyboard-response","191","986299","0.0-191.0","5dffc4b8f9e750be9cd65c07","6213c7613afc003cbd7bf088","","","","","<p style=""color:darkgreen;font-size:24px;"">Correct :)</p>","",""
"2497","key","v","v","16.679774834436753","500","250","psychophysics","192","988817","0.0-192.0","5dffc4b8f9e750be9cd65c07","6213c7613afc003cbd7bf088","4","","","","","1","2"
"null","","","null","","","","html-keyboard-response","193","989319","0.0-193.0","5dffc4b8f9e750be9cd65c07","6213c7613afc003cbd7bf088","","","","","<p style=""color:darkgreen;font-size:24px;"">Correct :)</p>","",""
"171869","","","v","","","","html-keyboard-response","194","1161189","0.0-194.0","5dffc4b8f9e750be9cd65c07","6213c7613afc003cbd7bf088","","","","","<p> Ok, now we are going present the same digits as before.  Your job is to say whether the digit is even or odd  If the digit is odd, press to v key; if it is even, press the n key. We are going to do 50 of these.  </p>  <br><br>  Ready? (press v or n)","",""
"2810","key","v","v","16.776946745562153","500","250","psychophysics","195","1164019","0.0-195.0","5dffc4b8f9e750be9cd65c07","6213c7613afc003cbd7bf088","5","","","","","0","9"
"null","","","null","","","","html-keyboard-response","196","1164522","0.0-196.0","5dffc4b8f9e750be9cd65c07","6213c7613afc003cbd7bf088","","","","","<p style=""color:darkgreen;font-size:24px;"">Correct :)</p>","",""
"2702","key","v","v","16.679061349694177","500","250","psychophysics","197","1167240","0.0-197.0","5dffc4b8f9e750be9cd65c07","6213c7613afc003cbd7bf088","5","","","","","0","1"
"null","","","null","","","","html-keyboard-response","198","1167741","0.0-198.0","5dffc4b8f9e750be9cd65c07","6213c7613afc003cbd7bf088","","","","","<p style=""color:darkgreen;font-size:24px;"">Correct :)</p>","",""
"2550","key","n","n","16.67870129870142","500","250","psychophysics","199","1170309","0.0-199.0","5dffc4b8f9e750be9cd65c07","6213c7613afc003cbd7bf088","5","","","","","0","8"
"null","","","null","","","","html-keyboard-response","200","1170811","0.0-200.0","5dffc4b8f9e750be9cd65c07","6213c7613afc003cbd7bf088","","","","","<p style=""color:darkgreen;font-size:24px;"">Correct :)</p>","",""
"2519","key","v","v","16.788470198676322","500","250","psychophysics","201","1173349","0.0-201.0","5dffc4b8f9e750be9cd65c07","6213c7613afc003cbd7bf088","5","","","","","0","7"
"null","","","null","","","","html-keyboard-response","202","1173853","0.0-202.0","5dffc4b8f9e750be9cd65c07","6213c7613afc003cbd7bf088","","","","","<p style=""color:darkgreen;font-size:24px;"">Correct :)</p>","",""
"2696","key","n","n","16.67630246913572","500","250","psychophysics","203","1176559","0.0-203.0","5dffc4b8f9e750be9cd65c07","6213c7613afc003cbd7bf088","5","","","","","0","2"
"null","","","null","","","","html-keyboard-response","204","1177061","0.0-204.0","5dffc4b8f9e750be9cd65c07","6213c7613afc003cbd7bf088","","","","","<p style=""color:darkgreen;font-size:24px;"">Correct :)</p>","",""
"2461","key","n","n","16.679027027025743","500","250","psychophysics","205","1179530","0.0-205.0","5dffc4b8f9e750be9cd65c07","6213c7613afc003cbd7bf088","5","","","","","0","2"
"null","","","null","","","","html-keyboard-response","206","1180033","0.0-206.0","5dffc4b8f9e750be9cd65c07","6213c7613afc003cbd7bf088","","","","","<p style=""color:darkgreen;font-size:24px;"">Correct :)</p>","",""
"2565","key","v","v","16.78577922077777","500","250","psychophysics","207","1182618","0.0-207.0","5dffc4b8f9e750be9cd65c07","6213c7613afc003cbd7bf088","5","","","","","0","1"
"null","","","null","","","","html-keyboard-response","208","1183120","0.0-208.0","5dffc4b8f9e750be9cd65c07","6213c7613afc003cbd7bf088","","","","","<p style=""color:darkgreen;font-size:24px;"">Correct :)</p>","",""
"2497","key","n","n","16.78852666666576","500","250","psychophysics","209","1185637","0.0-209.0","5dffc4b8f9e750be9cd65c07","6213c7613afc003cbd7bf088","5","","","","","0","8"
"null","","","null","","","","html-keyboard-response","210","1186140","0.0-210.0","5dffc4b8f9e750be9cd65c07","6213c7613afc003cbd7bf088","","","","","<p style=""color:darkgreen;font-size:24px;"">Correct :)</p>","",""
"2564","key","n","n","16.785227272727575","500","250","psychophysics","211","1188722","0.0-211.0","5dffc4b8f9e750be9cd65c07","6213c7613afc003cbd7bf088","5","","","","","0","6"
"null","","","null","","","","html-keyboard-response","212","1189223","0.0-212.0","5dffc4b8f9e750be9cd65c07","6213c7613afc003cbd7bf088","","","","","<p style=""color:darkgreen;font-size:24px;"">Correct :)</p>","",""
"2589","key","n","n","16.677557692307836","500","250","psychophysics","213","1191830","0.0-213.0","5dffc4b8f9e750be9cd65c07","6213c7613afc003cbd7bf088","5","","","","","0","2"
"null","","","null","","","","html-keyboard-response","214","1192332","0.0-214.0","5dffc4b8f9e750be9cd65c07","6213c7613afc003cbd7bf088","","","","","<p style=""color:darkgreen;font-size:24px;"">Correct :)</p>","",""
"2644","key","v","v","16.67835220125791","500","250","psychophysics","215","1194992","0.0-215.0","5dffc4b8f9e750be9cd65c07","6213c7613afc003cbd7bf088","5","","","","","0","9"
"null","","","null","","","","html-keyboard-response","216","1195500","0.0-216.0","5dffc4b8f9e750be9cd65c07","6213c7613afc003cbd7bf088","","","","","<p style=""color:darkgreen;font-size:24px;"">Correct :)</p>","",""
"2649","key","v","v","16.67777987421379","500","250","psychophysics","217","1198164","0.0-217.0","5dffc4b8f9e750be9cd65c07","6213c7613afc003cbd7bf088","5","","","","","0","7"
"null","","","null","","","","html-keyboard-response","218","1198666","0.0-218.0","5dffc4b8f9e750be9cd65c07","6213c7613afc003cbd7bf088","","","","","<p style=""color:darkgreen;font-size:24px;"">Correct :)</p>","",""
"2597","key","v","v","16.784967948718425","500","250","psychophysics","219","1201280","0.0-219.0","5dffc4b8f9e750be9cd65c07","6213c7613afc003cbd7bf088","5","","","","","0","3"
"null","","","null","","","","html-keyboard-response","220","1201781","0.0-220.0","5dffc4b8f9e750be9cd65c07","6213c7613afc003cbd7bf088","","","","","<p style=""color:darkgreen;font-size:24px;"">Correct :)</p>","",""
"2502","key","n","n","16.678205298013147","500","250","psychophysics","221","1204300","0.0-221.0","5dffc4b8f9e750be9cd65c07","6213c7613afc003cbd7bf088","5","","","","","0","6"
"null","","","null","","","","html-keyboard-response","222","1204801","0.0-222.0","5dffc4b8f9e750be9cd65c07","6213c7613afc003cbd7bf088","","","","","<p style=""color:darkgreen;font-size:24px;"">Correct :)</p>","",""
"2570","key","v","v","16.786448051947374","500","250","psychophysics","223","1207390","0.0-223.0","5dffc4b8f9e750be9cd65c07","6213c7613afc003cbd7bf088","5","","","","","0","3"
"null","","","null","","","","html-keyboard-response","224","1207892","0.0-224.0","5dffc4b8f9e750be9cd65c07","6213c7613afc003cbd7bf088","","","","","<p style=""color:darkgreen;font-size:24px;"">Correct :)</p>","",""
"2512","key","n","n","16.67824503311129","500","250","psychophysics","225","1210422","0.0-225.0","5dffc4b8f9e750be9cd65c07","6213c7613afc003cbd7bf088","5","","","","","0","4"
"null","","","null","","","","html-keyboard-response","226","1210924","0.0-226.0","5dffc4b8f9e750be9cd65c07","6213c7613afc003cbd7bf088","","","","","<p style=""color:darkgreen;font-size:24px;"">Correct :)</p>","",""
"2470","key","v","v","16.791040540540692","500","250","psychophysics","227","1213411","0.0-227.0","5dffc4b8f9e750be9cd65c07","6213c7613afc003cbd7bf088","5","","","","","0","9"
"null","","","null","","","","html-keyboard-response","228","1213915","0.0-228.0","5dffc4b8f9e750be9cd65c07","6213c7613afc003cbd7bf088","","","","","<p style=""color:darkgreen;font-size:24px;"">Correct :)</p>","",""
"2545","key","n","n","16.677183006535547","500","250","psychophysics","229","1216480","0.0-229.0","5dffc4b8f9e750be9cd65c07","6213c7613afc003cbd7bf088","5","","","","","0","8"
"null","","","null","","","","html-keyboard-response","230","1216983","0.0-230.0","5dffc4b8f9e750be9cd65c07","6213c7613afc003cbd7bf088","","","","","<p style=""color:darkgreen;font-size:24px;"">Correct :)</p>","",""
"2610","key","n","n","16.677592356687793","500","250","psychophysics","231","1219609","0.0-231.0","5dffc4b8f9e750be9cd65c07","6213c7613afc003cbd7bf088","5","","","","","0","6"
"null","","","null","","","","html-keyboard-response","232","1220115","0.0-232.0","5dffc4b8f9e750be9cd65c07","6213c7613afc003cbd7bf088","","","","","<p style=""color:darkgreen;font-size:24px;"">Correct :)</p>","",""
"2542","key","v","v","16.677424836600977","500","250","psychophysics","233","1222663","0.0-233.0","5dffc4b8f9e750be9cd65c07","6213c7613afc003cbd7bf088","5","","","","","0","3"
"null","","","null","","","","html-keyboard-response","234","1223165","0.0-234.0","5dffc4b8f9e750be9cd65c07","6213c7613afc003cbd7bf088","","","","","<p style=""color:darkgreen;font-size:24px;"">Correct :)</p>","",""
"2819","key","n","n","16.67847058823442","500","250","psychophysics","235","1225999","0.0-235.0","5dffc4b8f9e750be9cd65c07","6213c7613afc003cbd7bf088","5","","","","","0","2"
"null","","","null","","","","html-keyboard-response","236","1226500","0.0-236.0","5dffc4b8f9e750be9cd65c07","6213c7613afc003cbd7bf088","","","","","<p style=""color:darkgreen;font-size:24px;"">Correct :)</p>","",""
"2502","key","v","v","16.679666666666357","500","250","psychophysics","237","1229020","0.0-237.0","5dffc4b8f9e750be9cd65c07","6213c7613afc003cbd7bf088","5","","","","","0","9"
"null","","","null","","","","html-keyboard-response","238","1229522","0.0-238.0","5dffc4b8f9e750be9cd65c07","6213c7613afc003cbd7bf088","","","","","<p style=""color:darkgreen;font-size:24px;"">Correct :)</p>","",""
"2745","key","n","n","16.67847272727328","500","250","psychophysics","239","1232285","0.0-239.0","5dffc4b8f9e750be9cd65c07","6213c7613afc003cbd7bf088","5","","","","","0","8"
"null","","","null","","","","html-keyboard-response","240","1232787","0.0-240.0","5dffc4b8f9e750be9cd65c07","6213c7613afc003cbd7bf088","","","","","<p style=""color:darkgreen;font-size:24px;"">Correct :)</p>","",""
"2537","key","v","v","16.676503267973125","500","250","psychophysics","241","1235340","0.0-241.0","5dffc4b8f9e750be9cd65c07","6213c7613afc003cbd7bf088","5","","","","","0","1"
"null","","","null","","","","html-keyboard-response","242","1235855","0.0-242.0","5dffc4b8f9e750be9cd65c07","6213c7613afc003cbd7bf088","","","","","<p style=""color:darkgreen;font-size:24px;"">Correct :)</p>","",""
"2650","key","n","n","16.782679245282996","500","250","psychophysics","243","1238530","0.0-243.0","5dffc4b8f9e750be9cd65c07","6213c7613afc003cbd7bf088","5","","","","","0","2"
"null","","","null","","","","html-keyboard-response","244","1239036","0.0-244.0","5dffc4b8f9e750be9cd65c07","6213c7613afc003cbd7bf088","","","","","<p style=""color:darkgreen;font-size:24px;"">Correct :)</p>","",""
"2469","key","n","n","16.675040268456414","500","250","psychophysics","245","1241523","0.0-245.0","5dffc4b8f9e750be9cd65c07","6213c7613afc003cbd7bf088","5","","","","","0","4"
"null","","","null","","","","html-keyboard-response","246","1242025","0.0-246.0","5dffc4b8f9e750be9cd65c07","6213c7613afc003cbd7bf088","","","","","<p style=""color:darkgreen;font-size:24px;"">Correct :)</p>","",""
"2414","key","v","v","16.794000000000835","500","250","psychophysics","247","1244460","0.0-247.0","5dffc4b8f9e750be9cd65c07","6213c7613afc003cbd7bf088","5","","","","","0","2"
"null","","","null","","","","html-keyboard-response","248","1244962","0.0-248.0","5dffc4b8f9e750be9cd65c07","6213c7613afc003cbd7bf088","","","","","<p style=""color:red;font-size:24px;"">Error :(</p>","",""
"2691","key","n","n","16.67717901234555","500","250","psychophysics","249","1247670","0.0-249.0","5dffc4b8f9e750be9cd65c07","6213c7613afc003cbd7bf088","5","","","","","0","7"
"null","","","null","","","","html-keyboard-response","250","1248174","0.0-250.0","5dffc4b8f9e750be9cd65c07","6213c7613afc003cbd7bf088","","","","","<p style=""color:red;font-size:24px;"">Error :(</p>","",""
"2540","key","v","v","16.679157894737344","500","250","psychophysics","251","1250719","0.0-251.0","5dffc4b8f9e750be9cd65c07","6213c7613afc003cbd7bf088","5","","","","","0","1"
"null","","","null","","","","html-keyboard-response","252","1251221","0.0-252.0","5dffc4b8f9e750be9cd65c07","6213c7613afc003cbd7bf088","","","","","<p style=""color:darkgreen;font-size:24px;"">Correct :)</p>","",""
"2532","key","n","n","16.678256578947185","500","250","psychophysics","253","1253773","0.0-253.0","5dffc4b8f9e750be9cd65c07","6213c7613afc003cbd7bf088","5","","","","","0","4"
"null","","","null","","","","html-keyboard-response","254","1254276","0.0-254.0","5dffc4b8f9e750be9cd65c07","6213c7613afc003cbd7bf088","","","","","<p style=""color:darkgreen;font-size:24px;"">Correct :)</p>","",""
"2766","key","v","v","16.77995151515175","500","250","psychophysics","255","1257060","0.0-255.0","5dffc4b8f9e750be9cd65c07","6213c7613afc003cbd7bf088","5","","","","","0","7"
"null","","","null","","","","html-keyboard-response","256","1257563","0.0-256.0","5dffc4b8f9e750be9cd65c07","6213c7613afc003cbd7bf088","","","","","<p style=""color:darkgreen;font-size:24px;"">Correct :)</p>","",""
"2444","key","v","v","16.67819727891201","500","250","psychophysics","257","1260026","0.0-257.0","5dffc4b8f9e750be9cd65c07","6213c7613afc003cbd7bf088","5","","","","","0","1"
"null","","","null","","","","html-keyboard-response","258","1260528","0.0-258.0","5dffc4b8f9e750be9cd65c07","6213c7613afc003cbd7bf088","","","","","<p style=""color:darkgreen;font-size:24px;"">Correct :)</p>","",""
"2545","key","v","v","16.67773856209238","500","250","psychophysics","259","1263089","0.0-259.0","5dffc4b8f9e750be9cd65c07","6213c7613afc003cbd7bf088","5","","","","","0","7"
"null","","","null","","","","html-keyboard-response","260","1263593","0.0-260.0","5dffc4b8f9e750be9cd65c07","6213c7613afc003cbd7bf088","","","","","<p style=""color:darkgreen;font-size:24px;"">Correct :)</p>","",""
"2522","key","v","v","16.788609271523672","500","250","psychophysics","261","1266131","0.0-261.0","5dffc4b8f9e750be9cd65c07","6213c7613afc003cbd7bf088","5","","","","","0","1"
"null","","","null","","","","html-keyboard-response","262","1266633","0.0-262.0","5dffc4b8f9e750be9cd65c07","6213c7613afc003cbd7bf088","","","","","<p style=""color:darkgreen;font-size:24px;"">Correct :)</p>","",""
"2451","key","n","n","16.67816326530574","500","250","psychophysics","263","1269099","0.0-263.0","5dffc4b8f9e750be9cd65c07","6213c7613afc003cbd7bf088","5","","","","","0","2"
"null","","","null","","","","html-keyboard-response","264","1269603","0.0-264.0","5dffc4b8f9e750be9cd65c07","6213c7613afc003cbd7bf088","","","","","<p style=""color:darkgreen;font-size:24px;"">Correct :)</p>","",""
"2550","key","v","v","16.678359477123355","500","250","psychophysics","265","1272169","0.0-265.0","5dffc4b8f9e750be9cd65c07","6213c7613afc003cbd7bf088","5","","","","","0","1"
"null","","","null","","","","html-keyboard-response","266","1272671","0.0-266.0","5dffc4b8f9e750be9cd65c07","6213c7613afc003cbd7bf088","","","","","<p style=""color:darkgreen;font-size:24px;"">Correct :)</p>","",""
"2887","key","n","n","16.677815028902337","500","250","psychophysics","267","1275573","0.0-267.0","5dffc4b8f9e750be9cd65c07","6213c7613afc003cbd7bf088","5","","","","","0","6"
"null","","","null","","","","html-keyboard-response","268","1276078","0.0-268.0","5dffc4b8f9e750be9cd65c07","6213c7613afc003cbd7bf088","","","","","<p style=""color:darkgreen;font-size:24px;"">Correct :)</p>","",""
"2443","key","n","n","16.678102040817","500","250","psychophysics","269","1278537","0.0-269.0","5dffc4b8f9e750be9cd65c07","6213c7613afc003cbd7bf088","5","","","","","0","8"
"null","","","null","","","","html-keyboard-response","270","1279039","0.0-270.0","5dffc4b8f9e750be9cd65c07","6213c7613afc003cbd7bf088","","","","","<p style=""color:darkgreen;font-size:24px;"">Correct :)</p>","",""
"2677","key","v","v","16.678304347825694","500","250","psychophysics","271","1281736","0.0-271.0","5dffc4b8f9e750be9cd65c07","6213c7613afc003cbd7bf088","5","","","","","0","1"
"null","","","null","","","","html-keyboard-response","272","1282238","0.0-272.0","5dffc4b8f9e750be9cd65c07","6213c7613afc003cbd7bf088","","","","","<p style=""color:darkgreen;font-size:24px;"">Correct :)</p>","",""
"2507","key","n","n","16.67866225165642","500","250","psychophysics","273","1284761","0.0-273.0","5dffc4b8f9e750be9cd65c07","6213c7613afc003cbd7bf088","5","","","","","0","6"
"null","","","null","","","","html-keyboard-response","274","1285263","0.0-274.0","5dffc4b8f9e750be9cd65c07","6213c7613afc003cbd7bf088","","","","","<p style=""color:darkgreen;font-size:24px;"">Correct :)</p>","",""
"2576","key","n","n","16.67594193548505","500","250","psychophysics","275","1287858","0.0-275.0","5dffc4b8f9e750be9cd65c07","6213c7613afc003cbd7bf088","5","","","","","0","2"
"null","","","null","","","","html-keyboard-response","276","1288360","0.0-276.0","5dffc4b8f9e750be9cd65c07","6213c7613afc003cbd7bf088","","","","","<p style=""color:darkgreen;font-size:24px;"">Correct :)</p>","",""
"2488","key","n","n","16.676900000000995","500","250","psychophysics","277","1290861","0.0-277.0","5dffc4b8f9e750be9cd65c07","6213c7613afc003cbd7bf088","5","","","","","0","9"
"null","","","null","","","","html-keyboard-response","278","1291376","0.0-278.0","5dffc4b8f9e750be9cd65c07","6213c7613afc003cbd7bf088","","","","","<p style=""color:red;font-size:24px;"">Error :(</p>","",""
"2618","key","n","n","16.676044303798587","500","250","psychophysics","279","1294010","0.0-279.0","5dffc4b8f9e750be9cd65c07","6213c7613afc003cbd7bf088","5","","","","","0","6"
"null","","","null","","","","html-keyboard-response","280","1294512","0.0-280.0","5dffc4b8f9e750be9cd65c07","6213c7613afc003cbd7bf088","","","","","<p style=""color:darkgreen;font-size:24px;"">Correct :)</p>","",""
"2573","key","n","n","16.678051612903214","500","250","psychophysics","281","1297100","0.0-281.0","5dffc4b8f9e750be9cd65c07","6213c7613afc003cbd7bf088","5","","","","","0","8"
"null","","","null","","","","html-keyboard-response","282","1297602","0.0-282.0","5dffc4b8f9e750be9cd65c07","6213c7613afc003cbd7bf088","","","","","<p style=""color:darkgreen;font-size:24px;"">Correct :)</p>","",""
"2403","key","n","n","16.67740277777678","500","250","psychophysics","283","1300021","0.0-283.0","5dffc4b8f9e750be9cd65c07","6213c7613afc003cbd7bf088","5","","","","","0","8"
"null","","","null","","","","html-keyboard-response","284","1300538","0.0-284.0","5dffc4b8f9e750be9cd65c07","6213c7613afc003cbd7bf088","","","","","<p style=""color:darkgreen;font-size:24px;"">Correct :)</p>","",""
"2599","key","v","v","16.680512820512284","500","250","psychophysics","285","1303153","0.0-285.0","5dffc4b8f9e750be9cd65c07","6213c7613afc003cbd7bf088","5","","","","","0","9"
"null","","","null","","","","html-keyboard-response","286","1303668","0.0-286.0","5dffc4b8f9e750be9cd65c07","6213c7613afc003cbd7bf088","","","","","<p style=""color:darkgreen;font-size:24px;"">Correct :)</p>","",""
"2635","key","n","n","16.67926415094356","500","250","psychophysics","287","1306319","0.0-287.0","5dffc4b8f9e750be9cd65c07","6213c7613afc003cbd7bf088","5","","","","","0","6"
"null","","","null","","","","html-keyboard-response","288","1306822","0.0-288.0","5dffc4b8f9e750be9cd65c07","6213c7613afc003cbd7bf088","","","","","<p style=""color:darkgreen;font-size:24px;"">Correct :)</p>","",""
"2715","key","n","n","16.67835975609714","500","250","psychophysics","289","1309553","0.0-289.0","5dffc4b8f9e750be9cd65c07","6213c7613afc003cbd7bf088","5","","","","","0","2"
"null","","","null","","","","html-keyboard-response","290","1310056","0.0-290.0","5dffc4b8f9e750be9cd65c07","6213c7613afc003cbd7bf088","","","","","<p style=""color:darkgreen;font-size:24px;"">Correct :)</p>","",""
"2549","key","n","n","16.67836601307214","500","250","psychophysics","291","1312612","0.0-291.0","5dffc4b8f9e750be9cd65c07","6213c7613afc003cbd7bf088","5","","","","","0","8"
"null","","","null","","","","html-keyboard-response","292","1313115","0.0-292.0","5dffc4b8f9e750be9cd65c07","6213c7613afc003cbd7bf088","","","","","<p style=""color:darkgreen;font-size:24px;"">Correct :)</p>","",""
"2476","key","v","v","16.790722972972986","500","250","psychophysics","293","1315612","0.0-293.0","5dffc4b8f9e750be9cd65c07","6213c7613afc003cbd7bf088","5","","","","","0","1"
"null","","","null","","","","html-keyboard-response","294","1316115","0.0-294.0","5dffc4b8f9e750be9cd65c07","6213c7613afc003cbd7bf088","","","","","<p style=""color:darkgreen;font-size:24px;"">Correct :)</p>","",""
"112706","","","n","","","","html-keyboard-response","295","1428822","0.0-295.0","5dffc4b8f9e750be9cd65c07","6213c7613afc003cbd7bf088","","","","","<p> Here, the tasks are going to switch.  For some trials, your job is to decide if the digit is less than or greater than 5.  For others, it is to decide if the digit is even or odd.  You will be told which type of trial the current one is.  But, pay attention, the type of trial changes too.  We are going to do 50 of these.  </p>  <br><br>  Ready? (press v or n)","",""
"2540","key","v","v","16.67787581699249","500","250","psychophysics","296","1431372","0.0-296.0","5dffc4b8f9e750be9cd65c07","6213c7613afc003cbd7bf088","6","","","","","1","4"
"null","","","null","","","","html-keyboard-response","297","1431873","0.0-297.0","5dffc4b8f9e750be9cd65c07","6213c7613afc003cbd7bf088","","","","","<p style=""color:darkgreen;font-size:24px;"">Correct :)</p>","",""
"2659","key","n","n","16.678584905660493","500","250","psychophysics","298","1434542","0.0-298.0","5dffc4b8f9e750be9cd65c07","6213c7613afc003cbd7bf088","6","","","","","0","6"
"null","","","null","","","","html-keyboard-response","299","1435045","0.0-299.0","5dffc4b8f9e750be9cd65c07","6213c7613afc003cbd7bf088","","","","","<p style=""color:darkgreen;font-size:24px;"">Correct :)</p>","",""
"2770","key","v","v","16.77863253012064","500","250","psychophysics","300","1437831","0.0-300.0","5dffc4b8f9e750be9cd65c07","6213c7613afc003cbd7bf088","6","","","","","0","9"
"null","","","null","","","","html-keyboard-response","301","1438341","0.0-301.0","5dffc4b8f9e750be9cd65c07","6213c7613afc003cbd7bf088","","","","","<p style=""color:darkgreen;font-size:24px;"">Correct :)</p>","",""
"2494","key","v","v","16.677360000000334","500","250","psychophysics","302","1440852","0.0-302.0","5dffc4b8f9e750be9cd65c07","6213c7613afc003cbd7bf088","6","","","","","0","1"
"null","","","null","","","","html-keyboard-response","303","1441354","0.0-303.0","5dffc4b8f9e750be9cd65c07","6213c7613afc003cbd7bf088","","","","","<p style=""color:darkgreen;font-size:24px;"">Correct :)</p>","",""
"2640","key","n","n","16.678681250000956","500","250","psychophysics","304","1444027","0.0-304.0","5dffc4b8f9e750be9cd65c07","6213c7613afc003cbd7bf088","6","","","","","1","6"
"null","","","null","","","","html-keyboard-response","305","1444529","0.0-305.0","5dffc4b8f9e750be9cd65c07","6213c7613afc003cbd7bf088","","","","","<p style=""color:darkgreen;font-size:24px;"">Correct :)</p>","",""
"2856","key","v","v","16.678401162791022","500","250","psychophysics","306","1447403","0.0-306.0","5dffc4b8f9e750be9cd65c07","6213c7613afc003cbd7bf088","6","","","","","0","4"
"null","","","null","","","","html-keyboard-response","307","1447906","0.0-307.0","5dffc4b8f9e750be9cd65c07","6213c7613afc003cbd7bf088","","","","","<p style=""color:red;font-size:24px;"">Error :(</p>","",""
"2506","key","v","v","16.67831333333316","500","250","psychophysics","308","1450421","0.0-308.0","5dffc4b8f9e750be9cd65c07","6213c7613afc003cbd7bf088","6","","","","","1","3"
"null","","","null","","","","html-keyboard-response","309","1450925","0.0-309.0","5dffc4b8f9e750be9cd65c07","6213c7613afc003cbd7bf088","","","","","<p style=""color:darkgreen;font-size:24px;"">Correct :)</p>","",""
"2460","key","v","v","16.67860810810738","500","250","psychophysics","310","1453401","0.0-310.0","5dffc4b8f9e750be9cd65c07","6213c7613afc003cbd7bf088","6","","","","","1","1"
"null","","","null","","","","html-keyboard-response","311","1453902","0.0-311.0","5dffc4b8f9e750be9cd65c07","6213c7613afc003cbd7bf088","","","","","<p style=""color:darkgreen;font-size:24px;"">Correct :)</p>","",""
"2572","key","v","v","16.676967741935062","500","250","psychophysics","312","1456492","0.0-312.0","5dffc4b8f9e750be9cd65c07","6213c7613afc003cbd7bf088","6","","","","","1","4"
"null","","","null","","","","html-keyboard-response","313","1456993","0.0-313.0","5dffc4b8f9e750be9cd65c07","6213c7613afc003cbd7bf088","","","","","<p style=""color:darkgreen;font-size:24px;"">Correct :)</p>","",""
"2451","key","v","v","16.79300680272218","500","250","psychophysics","314","1459461","0.0-314.0","5dffc4b8f9e750be9cd65c07","6213c7613afc003cbd7bf088","6","","","","","1","2"
"null","","","null","","","","html-keyboard-response","315","1459962","0.0-315.0","5dffc4b8f9e750be9cd65c07","6213c7613afc003cbd7bf088","","","","","<p style=""color:darkgreen;font-size:24px;"">Correct :)</p>","",""
"2506","key","n","n","16.676377483444682","500","250","psychophysics","316","1462474","0.0-316.0","5dffc4b8f9e750be9cd65c07","6213c7613afc003cbd7bf088","6","","","","","0","8"
"null","","","null","","","","html-keyboard-response","317","1462976","0.0-317.0","5dffc4b8f9e750be9cd65c07","6213c7613afc003cbd7bf088","","","","","<p style=""color:darkgreen;font-size:24px;"">Correct :)</p>","",""
"2598","key","n","n","16.67663057324785","500","250","psychophysics","318","1465593","0.0-318.0","5dffc4b8f9e750be9cd65c07","6213c7613afc003cbd7bf088","6","","","","","0","6"
"null","","","null","","","","html-keyboard-response","319","1466095","0.0-319.0","5dffc4b8f9e750be9cd65c07","6213c7613afc003cbd7bf088","","","","","<p style=""color:darkgreen;font-size:24px;"">Correct :)</p>","",""
"2787","key","n","n","16.679244047618425","500","250","psychophysics","320","1468902","0.0-320.0","5dffc4b8f9e750be9cd65c07","6213c7613afc003cbd7bf088","6","","","","","0","4"
"null","","","null","","","","html-keyboard-response","321","1469404","0.0-321.0","5dffc4b8f9e750be9cd65c07","6213c7613afc003cbd7bf088","","","","","<p style=""color:darkgreen;font-size:24px;"">Correct :)</p>","",""
"2576","key","n","n","16.676535483870296","500","250","psychophysics","322","1471998","0.0-322.0","5dffc4b8f9e750be9cd65c07","6213c7613afc003cbd7bf088","6","","","","","0","6"
"null","","","null","","","","html-keyboard-response","323","1472500","0.0-323.0","5dffc4b8f9e750be9cd65c07","6213c7613afc003cbd7bf088","","","","","<p style=""color:darkgreen;font-size:24px;"">Correct :)</p>","",""
"2546","key","v","v","16.679292207790915","500","250","psychophysics","324","1475064","0.0-324.0","5dffc4b8f9e750be9cd65c07","6213c7613afc003cbd7bf088","6","","","","","0","9"
"null","","","null","","","","html-keyboard-response","325","1475566","0.0-325.0","5dffc4b8f9e750be9cd65c07","6213c7613afc003cbd7bf088","","","","","<p style=""color:darkgreen;font-size:24px;"">Correct :)</p>","",""
"2607","key","n","n","16.676509554140495","500","250","psychophysics","326","1478191","0.0-326.0","5dffc4b8f9e750be9cd65c07","6213c7613afc003cbd7bf088","6","","","","","0","4"
"null","","","null","","","","html-keyboard-response","327","1478692","0.0-327.0","5dffc4b8f9e750be9cd65c07","6213c7613afc003cbd7bf088","","","","","<p style=""color:darkgreen;font-size:24px;"">Correct :)</p>","",""
"2563","key","n","n","16.786902597402342","500","250","psychophysics","328","1481272","0.0-328.0","5dffc4b8f9e750be9cd65c07","6213c7613afc003cbd7bf088","6","","","","","1","6"
"null","","","null","","","","html-keyboard-response","329","1481773","0.0-329.0","5dffc4b8f9e750be9cd65c07","6213c7613afc003cbd7bf088","","","","","<p style=""color:darkgreen;font-size:24px;"">Correct :)</p>","",""
"3013","key","v","v","16.67649450549436","500","250","psychophysics","330","1484804","0.0-330.0","5dffc4b8f9e750be9cd65c07","6213c7613afc003cbd7bf088","6","","","","","0","1"
"null","","","null","","","","html-keyboard-response","331","1485305","0.0-331.0","5dffc4b8f9e750be9cd65c07","6213c7613afc003cbd7bf088","","","","","<p style=""color:darkgreen;font-size:24px;"">Correct :)</p>","",""
"2937","key","v","v","16.678864406779578","500","250","psychophysics","332","1488261","0.0-332.0","5dffc4b8f9e750be9cd65c07","6213c7613afc003cbd7bf088","6","","","","","1","4"
"null","","","null","","","","html-keyboard-response","333","1488763","0.0-333.0","5dffc4b8f9e750be9cd65c07","6213c7613afc003cbd7bf088","","","","","<p style=""color:darkgreen;font-size:24px;"">Correct :)</p>","",""
"3031","key","n","n","16.67743169398892","500","250","psychophysics","334","1491811","0.0-334.0","5dffc4b8f9e750be9cd65c07","6213c7613afc003cbd7bf088","6","","","","","0","2"
"null","","","null","","","","html-keyboard-response","335","1492314","0.0-335.0","5dffc4b8f9e750be9cd65c07","6213c7613afc003cbd7bf088","","","","","<p style=""color:darkgreen;font-size:24px;"">Correct :)</p>","",""
"2751","key","n","n","16.778624242424232","500","250","psychophysics","336","1495082","0.0-336.0","5dffc4b8f9e750be9cd65c07","6213c7613afc003cbd7bf088","6","","","","","0","4"
"null","","","null","","","","html-keyboard-response","337","1495585","0.0-337.0","5dffc4b8f9e750be9cd65c07","6213c7613afc003cbd7bf088","","","","","<p style=""color:darkgreen;font-size:24px;"">Correct :)</p>","",""
"2788","key","n","n","16.77591017964101","500","250","psychophysics","338","1498392","0.0-338.0","5dffc4b8f9e750be9cd65c07","6213c7613afc003cbd7bf088","6","","","","","1","8"
"null","","","null","","","","html-keyboard-response","339","1498894","0.0-339.0","5dffc4b8f9e750be9cd65c07","6213c7613afc003cbd7bf088","","","","","<p style=""color:darkgreen;font-size:24px;"">Correct :)</p>","",""
"2732","key","n","n","16.67809146341567","500","250","psychophysics","340","1501641","0.0-340.0","5dffc4b8f9e750be9cd65c07","6213c7613afc003cbd7bf088","6","","","","","0","6"
"null","","","null","","","","html-keyboard-response","341","1502144","0.0-341.0","5dffc4b8f9e750be9cd65c07","6213c7613afc003cbd7bf088","","","","","<p style=""color:darkgreen;font-size:24px;"">Correct :)</p>","",""
"2534","key","n","n","16.678065359476783","500","250","psychophysics","342","1504705","0.0-342.0","5dffc4b8f9e750be9cd65c07","6213c7613afc003cbd7bf088","6","","","","","1","8"
"null","","","null","","","","html-keyboard-response","343","1505206","0.0-343.0","5dffc4b8f9e750be9cd65c07","6213c7613afc003cbd7bf088","","","","","<p style=""color:darkgreen;font-size:24px;"">Correct :)</p>","",""
"2681","key","v","v","16.68017901234576","500","250","psychophysics","344","1507904","0.0-344.0","5dffc4b8f9e750be9cd65c07","6213c7613afc003cbd7bf088","6","","","","","0","3"
"null","","","null","","","","html-keyboard-response","345","1508406","0.0-345.0","5dffc4b8f9e750be9cd65c07","6213c7613afc003cbd7bf088","","","","","<p style=""color:darkgreen;font-size:24px;"">Correct :)</p>","",""
"2504","key","n","n","16.677907284768608","500","250","psychophysics","346","1510925","0.0-346.0","5dffc4b8f9e750be9cd65c07","6213c7613afc003cbd7bf088","6","","","","","1","6"
"null","","","null","","","","html-keyboard-response","347","1511427","0.0-347.0","5dffc4b8f9e750be9cd65c07","6213c7613afc003cbd7bf088","","","","","<p style=""color:darkgreen;font-size:24px;"">Correct :)</p>","",""
"2532","key","v","v","16.676993464052774","500","250","psychophysics","348","1513977","0.0-348.0","5dffc4b8f9e750be9cd65c07","6213c7613afc003cbd7bf088","6","","","","","0","1"
"null","","","null","","","","html-keyboard-response","349","1514479","0.0-349.0","5dffc4b8f9e750be9cd65c07","6213c7613afc003cbd7bf088","","","","","<p style=""color:darkgreen;font-size:24px;"">Correct :)</p>","",""
"2483","key","v","v","16.791617449663654","500","250","psychophysics","350","1516983","0.0-350.0","5dffc4b8f9e750be9cd65c07","6213c7613afc003cbd7bf088","6","","","","","1","4"
"null","","","null","","","","html-keyboard-response","351","1517485","0.0-351.0","5dffc4b8f9e750be9cd65c07","6213c7613afc003cbd7bf088","","","","","<p style=""color:darkgreen;font-size:24px;"">Correct :)</p>","",""
"2449","key","v","v","16.792401360544268","500","250","psychophysics","352","1519952","0.0-352.0","5dffc4b8f9e750be9cd65c07","6213c7613afc003cbd7bf088","6","","","","","1","2"
"null","","","null","","","","html-keyboard-response","353","1520453","0.0-353.0","5dffc4b8f9e750be9cd65c07","6213c7613afc003cbd7bf088","","","","","<p style=""color:darkgreen;font-size:24px;"">Correct :)</p>","",""
"2475","key","n","n","16.680845637583868","500","250","psychophysics","354","1522942","0.0-354.0","5dffc4b8f9e750be9cd65c07","6213c7613afc003cbd7bf088","6","","","","","1","8"
"null","","","null","","","","html-keyboard-response","355","1523443","0.0-355.0","5dffc4b8f9e750be9cd65c07","6213c7613afc003cbd7bf088","","","","","<p style=""color:darkgreen;font-size:24px;"">Correct :)</p>","",""
"2673","key","v","v","16.676254658385684","500","250","psychophysics","356","1526135","0.0-356.0","5dffc4b8f9e750be9cd65c07","6213c7613afc003cbd7bf088","6","","","","","0","7"
"null","","","null","","","","html-keyboard-response","357","1526637","0.0-357.0","5dffc4b8f9e750be9cd65c07","6213c7613afc003cbd7bf088","","","","","<p style=""color:darkgreen;font-size:24px;"">Correct :)</p>","",""
"3405","key","v","v","16.678434146342163","500","250","psychophysics","358","1530062","0.0-358.0","5dffc4b8f9e750be9cd65c07","6213c7613afc003cbd7bf088","6","","","","","1","1"
"null","","","null","","","","html-keyboard-response","359","1530563","0.0-359.0","5dffc4b8f9e750be9cd65c07","6213c7613afc003cbd7bf088","","","","","<p style=""color:darkgreen;font-size:24px;"">Correct :)</p>","",""
"2746","key","v","v","16.67556363636289","500","250","psychophysics","360","1533326","0.0-360.0","5dffc4b8f9e750be9cd65c07","6213c7613afc003cbd7bf088","6","","","","","1","3"
"null","","","null","","","","html-keyboard-response","361","1533828","0.0-361.0","5dffc4b8f9e750be9cd65c07","6213c7613afc003cbd7bf088","","","","","<p style=""color:darkgreen;font-size:24px;"">Correct :)</p>","",""
"2662","key","n","n","16.783062500000234","500","250","psychophysics","362","1536508","0.0-362.0","5dffc4b8f9e750be9cd65c07","6213c7613afc003cbd7bf088","6","","","","","0","4"
"null","","","null","","","","html-keyboard-response","363","1537011","0.0-363.0","5dffc4b8f9e750be9cd65c07","6213c7613afc003cbd7bf088","","","","","<p style=""color:darkgreen;font-size:24px;"">Correct :)</p>","",""
"2497","key","v","v","16.678523178807527","500","250","psychophysics","364","1539526","0.0-364.0","5dffc4b8f9e750be9cd65c07","6213c7613afc003cbd7bf088","6","","","","","0","1"
"null","","","null","","","","html-keyboard-response","365","1540027","0.0-365.0","5dffc4b8f9e750be9cd65c07","6213c7613afc003cbd7bf088","","","","","<p style=""color:darkgreen;font-size:24px;"">Correct :)</p>","",""
"2851","key","n","n","16.677744186047445","500","250","psychophysics","366","1542895","0.0-366.0","5dffc4b8f9e750be9cd65c07","6213c7613afc003cbd7bf088","6","","","","","0","6"
"null","","","null","","","","html-keyboard-response","367","1543408","0.0-367.0","5dffc4b8f9e750be9cd65c07","6213c7613afc003cbd7bf088","","","","","<p style=""color:darkgreen;font-size:24px;"">Correct :)</p>","",""
"2934","key","v","v","16.67745762711817","500","250","psychophysics","368","1546362","0.0-368.0","5dffc4b8f9e750be9cd65c07","6213c7613afc003cbd7bf088","6","","","","","1","3"
"null","","","null","","","","html-keyboard-response","369","1546873","0.0-369.0","5dffc4b8f9e750be9cd65c07","6213c7613afc003cbd7bf088","","","","","<p style=""color:darkgreen;font-size:24px;"">Correct :)</p>","",""
"2514","key","v","v","16.787403973508688","500","250","psychophysics","370","1549402","0.0-370.0","5dffc4b8f9e750be9cd65c07","6213c7613afc003cbd7bf088","6","","","","","1","4"
"null","","","null","","","","html-keyboard-response","371","1549904","0.0-371.0","5dffc4b8f9e750be9cd65c07","6213c7613afc003cbd7bf088","","","","","<p style=""color:darkgreen;font-size:24px;"">Correct :)</p>","",""
"2472","key","v","v","16.676791946308363","500","250","psychophysics","372","1552392","0.0-372.0","5dffc4b8f9e750be9cd65c07","6213c7613afc003cbd7bf088","6","","","","","1","1"
"null","","","null","","","","html-keyboard-response","373","1552894","0.0-373.0","5dffc4b8f9e750be9cd65c07","6213c7613afc003cbd7bf088","","","","","<p style=""color:darkgreen;font-size:24px;"">Correct :)</p>","",""
"2463","key","v","v","16.791114864864614","500","250","psychophysics","374","1555373","0.0-374.0","5dffc4b8f9e750be9cd65c07","6213c7613afc003cbd7bf088","6","","","","","0","3"
"null","","","null","","","","html-keyboard-response","375","1555874","0.0-375.0","5dffc4b8f9e750be9cd65c07","6213c7613afc003cbd7bf088","","","","","<p style=""color:darkgreen;font-size:24px;"">Correct :)</p>","",""
"2542","key","n","n","16.677810457515307","500","250","psychophysics","376","1558433","0.0-376.0","5dffc4b8f9e750be9cd65c07","6213c7613afc003cbd7bf088","6","","","","","0","6"
"null","","","null","","","","html-keyboard-response","377","1558935","0.0-377.0","5dffc4b8f9e750be9cd65c07","6213c7613afc003cbd7bf088","","","","","<p style=""color:darkgreen;font-size:24px;"">Correct :)</p>","",""
"2607","key","v","v","16.676598726113323","500","250","psychophysics","378","1561557","0.0-378.0","5dffc4b8f9e750be9cd65c07","6213c7613afc003cbd7bf088","6","","","","","1","1"
"null","","","null","","","","html-keyboard-response","379","1562059","0.0-379.0","5dffc4b8f9e750be9cd65c07","6213c7613afc003cbd7bf088","","","","","<p style=""color:darkgreen;font-size:24px;"">Correct :)</p>","",""
"2577","key","n","n","16.67799354838658","500","250","psychophysics","380","1564652","0.0-380.0","5dffc4b8f9e750be9cd65c07","6213c7613afc003cbd7bf088","6","","","","","1","9"
"null","","","null","","","","html-keyboard-response","381","1565154","0.0-381.0","5dffc4b8f9e750be9cd65c07","6213c7613afc003cbd7bf088","","","","","<p style=""color:darkgreen;font-size:24px;"">Correct :)</p>","",""
"2610","key","n","n","16.678528662420998","500","250","psychophysics","382","1567783","0.0-382.0","5dffc4b8f9e750be9cd65c07","6213c7613afc003cbd7bf088","6","","","","","1","6"
"null","","","null","","","","html-keyboard-response","383","1568286","0.0-383.0","5dffc4b8f9e750be9cd65c07","6213c7613afc003cbd7bf088","","","","","<p style=""color:darkgreen;font-size:24px;"">Correct :)</p>","",""
"2472","key","n","n","16.67908053691249","500","250","psychophysics","384","1570772","0.0-384.0","5dffc4b8f9e750be9cd65c07","6213c7613afc003cbd7bf088","6","","","","","1","8"
"null","","","null","","","","html-keyboard-response","385","1571273","0.0-385.0","5dffc4b8f9e750be9cd65c07","6213c7613afc003cbd7bf088","","","","","<p style=""color:darkgreen;font-size:24px;"">Correct :)</p>","",""
"2502","key","v","v","16.678546666665934","500","250","psychophysics","386","1573785","0.0-386.0","5dffc4b8f9e750be9cd65c07","6213c7613afc003cbd7bf088","6","","","","","1","4"
"null","","","null","","","","html-keyboard-response","387","1574287","0.0-387.0","5dffc4b8f9e750be9cd65c07","6213c7613afc003cbd7bf088","","","","","<p style=""color:darkgreen;font-size:24px;"">Correct :)</p>","",""
"2447","key","n","n","16.68024324324309","500","250","psychophysics","388","1576752","0.0-388.0","5dffc4b8f9e750be9cd65c07","6213c7613afc003cbd7bf088","6","","","","","1","7"
"null","","","null","","","","html-keyboard-response","389","1577253","0.0-389.0","5dffc4b8f9e750be9cd65c07","6213c7613afc003cbd7bf088","","","","","<p style=""color:darkgreen;font-size:24px;"">Correct :)</p>","",""
"2468","key","n","n","16.677577181208267","500","250","psychophysics","390","1579739","0.0-390.0","5dffc4b8f9e750be9cd65c07","6213c7613afc003cbd7bf088","6","","","","","0","7"
"null","","","null","","","","html-keyboard-response","391","1580241","0.0-391.0","5dffc4b8f9e750be9cd65c07","6213c7613afc003cbd7bf088","","","","","<p style=""color:red;font-size:24px;"">Error :(</p>","",""
"2782","key","n","n","16.67823353293491","500","250","psychophysics","392","1583042","0.0-392.0","5dffc4b8f9e750be9cd65c07","6213c7613afc003cbd7bf088","6","","","","","1","6"
"null","","","null","","","","html-keyboard-response","393","1583546","0.0-393.0","5dffc4b8f9e750be9cd65c07","6213c7613afc003cbd7bf088","","","","","<p style=""color:darkgreen;font-size:24px;"">Correct :)</p>","",""
"3414","key","n","n","16.760780487804695","500","250","psychophysics","394","1586977","0.0-394.0","5dffc4b8f9e750be9cd65c07","6213c7613afc003cbd7bf088","6","","","","","0","6"
"null","","","null","","","","html-keyboard-response","395","1587479","0.0-395.0","5dffc4b8f9e750be9cd65c07","6213c7613afc003cbd7bf088","","","","","<p style=""color:darkgreen;font-size:24px;"">Correct :)</p>","",""
"27734","","","n","","","","html-keyboard-response","396","1615214","0.0-396.0","5dffc4b8f9e750be9cd65c07","6213c7613afc003cbd7bf088","","","","","<p> Last set of trials.  Here, the tasks are going to switch once again.  We are going to do 50 of these.  And then you are done with the experiment.  </p>  <br><br>  Ready? (press v or n)","",""
"2653","key","v","v","16.784974842767213","500","250","psychophysics","397","1617883","0.0-397.0","5dffc4b8f9e750be9cd65c07","6213c7613afc003cbd7bf088","7","","","","","1","1"
"null","","","null","","","","html-keyboard-response","398","1618385","0.0-398.0","5dffc4b8f9e750be9cd65c07","6213c7613afc003cbd7bf088","","","","","<p style=""color:darkgreen;font-size:24px;"">Correct :)</p>","",""
"2664","key","v","v","16.677937499999825","500","250","psychophysics","399","1621066","0.0-399.0","5dffc4b8f9e750be9cd65c07","6213c7613afc003cbd7bf088","7","","","","","0","3"
"null","","","null","","","","html-keyboard-response","400","1621568","0.0-400.0","5dffc4b8f9e750be9cd65c07","6213c7613afc003cbd7bf088","","","","","<p style=""color:darkgreen;font-size:24px;"">Correct :)</p>","",""
"2648","key","n","n","16.677281249999943","500","250","psychophysics","401","1624233","0.0-401.0","5dffc4b8f9e750be9cd65c07","6213c7613afc003cbd7bf088","7","","","","","0","4"
"null","","","null","","","","html-keyboard-response","402","1624735","0.0-402.0","5dffc4b8f9e750be9cd65c07","6213c7613afc003cbd7bf088","","","","","<p style=""color:darkgreen;font-size:24px;"">Correct :)</p>","",""
"2634","key","v","v","16.67961635220058","500","250","psychophysics","403","1627387","0.0-403.0","5dffc4b8f9e750be9cd65c07","6213c7613afc003cbd7bf088","7","","","","","1","1"
"null","","","null","","","","html-keyboard-response","404","1627889","0.0-404.0","5dffc4b8f9e750be9cd65c07","6213c7613afc003cbd7bf088","","","","","<p style=""color:darkgreen;font-size:24px;"">Correct :)</p>","",""
"2799","key","n","n","16.679497041419896","500","250","psychophysics","405","1630706","0.0-405.0","5dffc4b8f9e750be9cd65c07","6213c7613afc003cbd7bf088","7","","","","","0","2"
"null","","","null","","","","html-keyboard-response","406","1631208","0.0-406.0","5dffc4b8f9e750be9cd65c07","6213c7613afc003cbd7bf088","","","","","<p style=""color:darkgreen;font-size:24px;"">Correct :)</p>","",""
"3000","key","v","v","16.77226666666619","500","250","psychophysics","407","1634226","0.0-407.0","5dffc4b8f9e750be9cd65c07","6213c7613afc003cbd7bf088","7","","","","","1","2"
"null","","","null","","","","html-keyboard-response","408","1634728","0.0-408.0","5dffc4b8f9e750be9cd65c07","6213c7613afc003cbd7bf088","","","","","<p style=""color:darkgreen;font-size:24px;"">Correct :)</p>","",""
"3108","key","v","v","16.678689839572392","500","250","psychophysics","409","1637853","0.0-409.0","5dffc4b8f9e750be9cd65c07","6213c7613afc003cbd7bf088","7","","","","","1","3"
"null","","","null","","","","html-keyboard-response","410","1638355","0.0-410.0","5dffc4b8f9e750be9cd65c07","6213c7613afc003cbd7bf088","","","","","<p style=""color:darkgreen;font-size:24px;"">Correct :)</p>","",""
"2605","key","v","v","16.678229299362062","500","250","psychophysics","411","1640979","0.0-411.0","5dffc4b8f9e750be9cd65c07","6213c7613afc003cbd7bf088","7","","","","","0","7"
"null","","","null","","","","html-keyboard-response","412","1641481","0.0-412.0","5dffc4b8f9e750be9cd65c07","6213c7613afc003cbd7bf088","","","","","<p style=""color:darkgreen;font-size:24px;"">Correct :)</p>","",""
"2465","key","v","v","16.67663087248302","500","250","psychophysics","413","1643964","0.0-413.0","5dffc4b8f9e750be9cd65c07","6213c7613afc003cbd7bf088","7","","","","","1","3"
"null","","","null","","","","html-keyboard-response","414","1644467","0.0-414.0","5dffc4b8f9e750be9cd65c07","6213c7613afc003cbd7bf088","","","","","<p style=""color:darkgreen;font-size:24px;"">Correct :)</p>","",""
"2489","key","v","v","16.67951999999893","500","250","psychophysics","415","1646972","0.0-415.0","5dffc4b8f9e750be9cd65c07","6213c7613afc003cbd7bf088","7","","","","","0","3"
"null","","","null","","","","html-keyboard-response","416","1647474","0.0-416.0","5dffc4b8f9e750be9cd65c07","6213c7613afc003cbd7bf088","","","","","<p style=""color:darkgreen;font-size:24px;"">Correct :)</p>","",""
"2575","key","v","v","16.67789032257973","500","250","psychophysics","417","1650066","0.0-417.0","5dffc4b8f9e750be9cd65c07","6213c7613afc003cbd7bf088","7","","","","","0","3"
"null","","","null","","","","html-keyboard-response","418","1650569","0.0-418.0","5dffc4b8f9e750be9cd65c07","6213c7613afc003cbd7bf088","","","","","<p style=""color:darkgreen;font-size:24px;"">Correct :)</p>","",""
"2503","key","v","v","16.67811920529768","500","250","psychophysics","419","1653088","0.0-419.0","5dffc4b8f9e750be9cd65c07","6213c7613afc003cbd7bf088","7","","","","","1","3"
"null","","","null","","","","html-keyboard-response","420","1653590","0.0-420.0","5dffc4b8f9e750be9cd65c07","6213c7613afc003cbd7bf088","","","","","<p style=""color:darkgreen;font-size:24px;"">Correct :)</p>","",""
"2664","key","n","n","16.677962732919266","500","250","psychophysics","421","1656273","0.0-421.0","5dffc4b8f9e750be9cd65c07","6213c7613afc003cbd7bf088","7","","","","","0","7"
"null","","","null","","","","html-keyboard-response","422","1656775","0.0-422.0","5dffc4b8f9e750be9cd65c07","6213c7613afc003cbd7bf088","","","","","<p style=""color:red;font-size:24px;"">Error :(</p>","",""
"2938","key","n","n","16.678632768361677","500","250","psychophysics","423","1659733","0.0-423.0","5dffc4b8f9e750be9cd65c07","6213c7613afc003cbd7bf088","7","","","","","0","6"
"null","","","null","","","","html-keyboard-response","424","1660234","0.0-424.0","5dffc4b8f9e750be9cd65c07","6213c7613afc003cbd7bf088","","","","","<p style=""color:darkgreen;font-size:24px;"">Correct :)</p>","",""
"3102","key","v","v","16.766913978495605","500","250","psychophysics","425","1663353","0.0-425.0","5dffc4b8f9e750be9cd65c07","6213c7613afc003cbd7bf088","7","","","","","0","7"
"null","","","null","","","","html-keyboard-response","426","1663855","0.0-426.0","5dffc4b8f9e750be9cd65c07","6213c7613afc003cbd7bf088","","","","","<p style=""color:darkgreen;font-size:24px;"">Correct :)</p>","",""
"2560","key","v","v","16.678045751634997","500","250","psychophysics","427","1666428","0.0-427.0","5dffc4b8f9e750be9cd65c07","6213c7613afc003cbd7bf088","7","","","","","1","2"
"null","","","null","","","","html-keyboard-response","428","1666931","0.0-428.0","5dffc4b8f9e750be9cd65c07","6213c7613afc003cbd7bf088","","","","","<p style=""color:darkgreen;font-size:24px;"">Correct :)</p>","",""
"2467","key","v","v","16.676563758388998","500","250","psychophysics","429","1669416","0.0-429.0","5dffc4b8f9e750be9cd65c07","6213c7613afc003cbd7bf088","7","","","","","0","1"
"null","","","null","","","","html-keyboard-response","430","1669918","0.0-430.0","5dffc4b8f9e750be9cd65c07","6213c7613afc003cbd7bf088","","","","","<p style=""color:darkgreen;font-size:24px;"">Correct :)</p>","",""
"2597","key","n","n","16.67792356687829","500","250","psychophysics","431","1672534","0.0-431.0","5dffc4b8f9e750be9cd65c07","6213c7613afc003cbd7bf088","7","","","","","0","6"
"null","","","null","","","","html-keyboard-response","432","1673037","0.0-432.0","5dffc4b8f9e750be9cd65c07","6213c7613afc003cbd7bf088","","","","","<p style=""color:darkgreen;font-size:24px;"">Correct :)</p>","",""
"2480","key","n","n","16.679610738254173","500","250","psychophysics","433","1675536","0.0-433.0","5dffc4b8f9e750be9cd65c07","6213c7613afc003cbd7bf088","7","","","","","0","6"
"null","","","null","","","","html-keyboard-response","434","1676038","0.0-434.0","5dffc4b8f9e750be9cd65c07","6213c7613afc003cbd7bf088","","","","","<p style=""color:darkgreen;font-size:24px;"">Correct :)</p>","",""
"2459","key","v","v","16.679513513513314","500","250","psychophysics","435","1678512","0.0-435.0","5dffc4b8f9e750be9cd65c07","6213c7613afc003cbd7bf088","7","","","","","0","1"
"null","","","null","","","","html-keyboard-response","436","1679014","0.0-436.0","5dffc4b8f9e750be9cd65c07","6213c7613afc003cbd7bf088","","","","","<p style=""color:darkgreen;font-size:24px;"">Correct :)</p>","",""
"3103","key","v","v","16.677870967742106","500","250","psychophysics","437","1682133","0.0-437.0","5dffc4b8f9e750be9cd65c07","6213c7613afc003cbd7bf088","7","","","","","1","3"
"null","","","null","","","","html-keyboard-response","438","1682634","0.0-438.0","5dffc4b8f9e750be9cd65c07","6213c7613afc003cbd7bf088","","","","","<p style=""color:darkgreen;font-size:24px;"">Correct :)</p>","",""
"2424","key","v","v","16.67620547945222","500","250","psychophysics","439","1685075","0.0-439.0","5dffc4b8f9e750be9cd65c07","6213c7613afc003cbd7bf088","7","","","","","1","3"
"null","","","null","","","","html-keyboard-response","440","1685577","0.0-440.0","5dffc4b8f9e750be9cd65c07","6213c7613afc003cbd7bf088","","","","","<p style=""color:darkgreen;font-size:24px;"">Correct :)</p>","",""
"2438","key","v","v","16.678246575343895","500","250","psychophysics","441","1688033","0.0-441.0","5dffc4b8f9e750be9cd65c07","6213c7613afc003cbd7bf088","7","","","","","1","3"
"null","","","null","","","","html-keyboard-response","442","1688534","0.0-442.0","5dffc4b8f9e750be9cd65c07","6213c7613afc003cbd7bf088","","","","","<p style=""color:darkgreen;font-size:24px;"">Correct :)</p>","",""
"2582","key","n","n","16.677557692307836","500","250","psychophysics","443","1691133","0.0-443.0","5dffc4b8f9e750be9cd65c07","6213c7613afc003cbd7bf088","7","","","","","1","6"
"null","","","null","","","","html-keyboard-response","444","1691635","0.0-444.0","5dffc4b8f9e750be9cd65c07","6213c7613afc003cbd7bf088","","","","","<p style=""color:darkgreen;font-size:24px;"">Correct :)</p>","",""
"2480","key","n","n","16.789281879195432","500","250","psychophysics","445","1694134","0.0-445.0","5dffc4b8f9e750be9cd65c07","6213c7613afc003cbd7bf088","7","","","","","1","6"
"null","","","null","","","","html-keyboard-response","446","1694639","0.0-446.0","5dffc4b8f9e750be9cd65c07","6213c7613afc003cbd7bf088","","","","","<p style=""color:darkgreen;font-size:24px;"">Correct :)</p>","",""
"2738","key","v","v","16.778048780488373","500","250","psychophysics","447","1697394","0.0-447.0","5dffc4b8f9e750be9cd65c07","6213c7613afc003cbd7bf088","7","","","","","1","2"
"null","","","null","","","","html-keyboard-response","448","1697895","0.0-448.0","5dffc4b8f9e750be9cd65c07","6213c7613afc003cbd7bf088","","","","","<p style=""color:darkgreen;font-size:24px;"">Correct :)</p>","",""
"2594","key","n","n","16.678461538460585","500","250","psychophysics","449","1700508","0.0-449.0","5dffc4b8f9e750be9cd65c07","6213c7613afc003cbd7bf088","7","","","","","1","6"
"null","","","null","","","","html-keyboard-response","450","1701012","0.0-450.0","5dffc4b8f9e750be9cd65c07","6213c7613afc003cbd7bf088","","","","","<p style=""color:darkgreen;font-size:24px;"">Correct :)</p>","",""
"2525","key","v","v","16.678582781457052","500","250","psychophysics","451","1703543","0.0-451.0","5dffc4b8f9e750be9cd65c07","6213c7613afc003cbd7bf088","7","","","","","0","3"
"null","","","null","","","","html-keyboard-response","452","1704045","0.0-452.0","5dffc4b8f9e750be9cd65c07","6213c7613afc003cbd7bf088","","","","","<p style=""color:darkgreen;font-size:24px;"">Correct :)</p>","",""
"2879","key","v","v","16.77491329479801","500","250","psychophysics","453","1706943","0.0-453.0","5dffc4b8f9e750be9cd65c07","6213c7613afc003cbd7bf088","7","","","","","1","3"
"null","","","null","","","","html-keyboard-response","454","1707445","0.0-454.0","5dffc4b8f9e750be9cd65c07","6213c7613afc003cbd7bf088","","","","","<p style=""color:darkgreen;font-size:24px;"">Correct :)</p>","",""
"2734","key","v","v","16.677957575756942","500","250","psychophysics","455","1710195","0.0-455.0","5dffc4b8f9e750be9cd65c07","6213c7613afc003cbd7bf088","7","","","","","1","3"
"null","","","null","","","","html-keyboard-response","456","1710697","0.0-456.0","5dffc4b8f9e750be9cd65c07","6213c7613afc003cbd7bf088","","","","","<p style=""color:darkgreen;font-size:24px;"">Correct :)</p>","",""
"2598","key","v","v","16.677717948717493","500","250","psychophysics","457","1713303","0.0-457.0","5dffc4b8f9e750be9cd65c07","6213c7613afc003cbd7bf088","7","","","","","0","3"
"null","","","null","","","","html-keyboard-response","458","1713804","0.0-458.0","5dffc4b8f9e750be9cd65c07","6213c7613afc003cbd7bf088","","","","","<p style=""color:darkgreen;font-size:24px;"">Correct :)</p>","",""
"2489","key","v","v","16.679566666665487","500","250","psychophysics","459","1716303","0.0-459.0","5dffc4b8f9e750be9cd65c07","6213c7613afc003cbd7bf088","7","","","","","1","3"
"null","","","null","","","","html-keyboard-response","460","1716804","0.0-460.0","5dffc4b8f9e750be9cd65c07","6213c7613afc003cbd7bf088","","","","","<p style=""color:darkgreen;font-size:24px;"">Correct :)</p>","",""
"2412","key","v","v","16.790848275861734","500","250","psychophysics","461","1719232","0.0-461.0","5dffc4b8f9e750be9cd65c07","6213c7613afc003cbd7bf088","7","","","","","0","1"
"null","","","null","","","","html-keyboard-response","462","1719734","0.0-462.0","5dffc4b8f9e750be9cd65c07","6213c7613afc003cbd7bf088","","","","","<p style=""color:darkgreen;font-size:24px;"">Correct :)</p>","",""
"2519","key","n","n","16.680940789473855","500","250","psychophysics","463","1722273","0.0-463.0","5dffc4b8f9e750be9cd65c07","6213c7613afc003cbd7bf088","7","","","","","1","6"
"null","","","null","","","","html-keyboard-response","464","1722774","0.0-464.0","5dffc4b8f9e750be9cd65c07","6213c7613afc003cbd7bf088","","","","","<p style=""color:darkgreen;font-size:24px;"">Correct :)</p>","",""
"2646","key","v","v","16.67735624999914","500","250","psychophysics","465","1725437","0.0-465.0","5dffc4b8f9e750be9cd65c07","6213c7613afc003cbd7bf088","7","","","","","1","4"
"null","","","null","","","","html-keyboard-response","466","1725939","0.0-466.0","5dffc4b8f9e750be9cd65c07","6213c7613afc003cbd7bf088","","","","","<p style=""color:darkgreen;font-size:24px;"">Correct :)</p>","",""
"2550","key","v","v","16.67892857142815","500","250","psychophysics","467","1728506","0.0-467.0","5dffc4b8f9e750be9cd65c07","6213c7613afc003cbd7bf088","7","","","","","1","3"
"null","","","null","","","","html-keyboard-response","468","1729007","0.0-468.0","5dffc4b8f9e750be9cd65c07","6213c7613afc003cbd7bf088","","","","","<p style=""color:darkgreen;font-size:24px;"">Correct :)</p>","",""
"2522","key","n","n","16.680092715232675","500","250","psychophysics","469","1731534","0.0-469.0","5dffc4b8f9e750be9cd65c07","6213c7613afc003cbd7bf088","7","","","","","1","7"
"null","","","null","","","","html-keyboard-response","470","1732037","0.0-470.0","5dffc4b8f9e750be9cd65c07","6213c7613afc003cbd7bf088","","","","","<p style=""color:darkgreen;font-size:24px;"">Correct :)</p>","",""
"2716","key","v","v","16.6791901840497","500","250","psychophysics","471","1734759","0.0-471.0","5dffc4b8f9e750be9cd65c07","6213c7613afc003cbd7bf088","7","","","","","0","3"
"null","","","null","","","","html-keyboard-response","472","1735261","0.0-472.0","5dffc4b8f9e750be9cd65c07","6213c7613afc003cbd7bf088","","","","","<p style=""color:darkgreen;font-size:24px;"">Correct :)</p>","",""
"2675","key","n","n","16.678534161490358","500","250","psychophysics","473","1737954","0.0-473.0","5dffc4b8f9e750be9cd65c07","6213c7613afc003cbd7bf088","7","","","","","1","4"
"null","","","null","","","","html-keyboard-response","474","1738456","0.0-474.0","5dffc4b8f9e750be9cd65c07","6213c7613afc003cbd7bf088","","","","","<p style=""color:red;font-size:24px;"">Error :(</p>","",""
"2601","key","v","v","16.676711538461788","500","250","psychophysics","475","1741073","0.0-475.0","5dffc4b8f9e750be9cd65c07","6213c7613afc003cbd7bf088","7","","","","","0","1"
"null","","","null","","","","html-keyboard-response","476","1741575","0.0-476.0","5dffc4b8f9e750be9cd65c07","6213c7613afc003cbd7bf088","","","","","<p style=""color:darkgreen;font-size:24px;"">Correct :)</p>","",""
"2457","key","v","v","16.678267123287682","500","250","psychophysics","477","1744045","0.0-477.0","5dffc4b8f9e750be9cd65c07","6213c7613afc003cbd7bf088","7","","","","","1","1"
"null","","","null","","","","html-keyboard-response","478","1744548","0.0-478.0","5dffc4b8f9e750be9cd65c07","6213c7613afc003cbd7bf088","","","","","<p style=""color:darkgreen;font-size:24px;"">Correct :)</p>","",""
"2469","key","v","v","16.679621621621834","500","250","psychophysics","479","1747034","0.0-479.0","5dffc4b8f9e750be9cd65c07","6213c7613afc003cbd7bf088","7","","","","","1","1"
"null","","","null","","","","html-keyboard-response","480","1747537","0.0-480.0","5dffc4b8f9e750be9cd65c07","6213c7613afc003cbd7bf088","","","","","<p style=""color:darkgreen;font-size:24px;"">Correct :)</p>","",""
"2658","key","v","v","16.67969374999957","500","250","psychophysics","481","1750214","0.0-481.0","5dffc4b8f9e750be9cd65c07","6213c7613afc003cbd7bf088","7","","","","","1","3"
"null","","","null","","","","html-keyboard-response","482","1750716","0.0-482.0","5dffc4b8f9e750be9cd65c07","6213c7613afc003cbd7bf088","","","","","<p style=""color:darkgreen;font-size:24px;"">Correct :)</p>","",""
"2691","key","v","v","16.67762962962863","500","250","psychophysics","483","1753424","0.0-483.0","5dffc4b8f9e750be9cd65c07","6213c7613afc003cbd7bf088","7","","","","","1","4"
"null","","","null","","","","html-keyboard-response","484","1753926","0.0-484.0","5dffc4b8f9e750be9cd65c07","6213c7613afc003cbd7bf088","","","","","<p style=""color:darkgreen;font-size:24px;"">Correct :)</p>","",""
"2467","key","v","v","16.675765100671228","500","250","psychophysics","485","1756409","0.0-485.0","5dffc4b8f9e750be9cd65c07","6213c7613afc003cbd7bf088","7","","","","","1","4"
"null","","","null","","","","html-keyboard-response","486","1756912","0.0-486.0","5dffc4b8f9e750be9cd65c07","6213c7613afc003cbd7bf088","","","","","<p style=""color:darkgreen;font-size:24px;"">Correct :)</p>","",""
"2485","key","v","v","16.677693333332428","500","250","psychophysics","487","1759414","0.0-487.0","5dffc4b8f9e750be9cd65c07","6213c7613afc003cbd7bf088","7","","","","","0","1"
"null","","","null","","","","html-keyboard-response","488","1759916","0.0-488.0","5dffc4b8f9e750be9cd65c07","6213c7613afc003cbd7bf088","","","","","<p style=""color:darkgreen;font-size:24px;"">Correct :)</p>","",""
"2416","key","v","v","16.791599999999242","500","250","psychophysics","489","1762354","0.0-489.0","5dffc4b8f9e750be9cd65c07","6213c7613afc003cbd7bf088","7","","","","","0","1"
"null","","","null","","","","html-keyboard-response","490","1762856","0.0-490.0","5dffc4b8f9e750be9cd65c07","6213c7613afc003cbd7bf088","","","","","<p style=""color:darkgreen;font-size:24px;"">Correct :)</p>","",""
"2475","key","v","v","16.678597315436466","500","250","psychophysics","491","1765347","0.0-491.0","5dffc4b8f9e750be9cd65c07","6213c7613afc003cbd7bf088","7","","","","","0","3"
"null","","","null","","","","html-keyboard-response","492","1765849","0.0-492.0","5dffc4b8f9e750be9cd65c07","6213c7613afc003cbd7bf088","","","","","<p style=""color:darkgreen;font-size:24px;"">Correct :)</p>","",""
"2416","key","v","v","16.679958620689938","500","250","psychophysics","493","1768274","0.0-493.0","5dffc4b8f9e750be9cd65c07","6213c7613afc003cbd7bf088","7","","","","","0","3"
"null","","","null","","","","html-keyboard-response","494","1768775","0.0-494.0","5dffc4b8f9e750be9cd65c07","6213c7613afc003cbd7bf088","","","","","<p style=""color:darkgreen;font-size:24px;"">Correct :)</p>","",""
"2424","key","v","v","16.679308219178107","500","250","psychophysics","495","1771216","0.0-495.0","5dffc4b8f9e750be9cd65c07","6213c7613afc003cbd7bf088","7","","","","","0","4"
"null","","","null","","","","html-keyboard-response","496","1771718","0.0-496.0","5dffc4b8f9e750be9cd65c07","6213c7613afc003cbd7bf088","","","","","<p style=""color:red;font-size:24px;"">Error :(</p>","",""
