"success","trial_type","trial_index","time_elapsed","internal_node_id","pid","sid","timeout","failed_images","failed_audio","failed_video","rt","stimulus","response","response_type","key_press","avg_frame_time","center_x","center_y","task","resp","jitterX","jitterY","start","version","parA"
"true","fullscreen","0","4487","0.0-0.0","5da4152a3ab39a0011295a3e","64dbc31b0d3fae870b1270b3","","","","","","","","","","","","","","","","","","",""
"true","preload","1","4717","0.0-1.0","5da4152a3ab39a0011295a3e","64dbc31b0d3fae870b1270b3","false","[]","[]","[]","","","","","","","","","","","","","","",""
"","html-button-response","2","7527","0.0-2.0","5da4152a3ab39a0011295a3e","64dbc31b0d3fae870b1270b3","","","","","2809","Please Make Sure Your Audio Is On.","0","","","","","","","","","","","",""
"","psychophysics","3","44479","0.0-3.0","5da4152a3ab39a0011295a3e","64dbc31b0d3fae870b1270b3","","","","","36946",""," ","key"," ","16.66766666666667","960","250","","","","","","",""
"","psychophysics","4","48630","0.0-4.0","5da4152a3ab39a0011295a3e","64dbc31b0d3fae870b1270b3","","","","","4150",""," ","key"," ","16.66769354838708","500","250","inst","","","","","",""
"","psychophysics","5","54794","0.0-5.0","5da4152a3ab39a0011295a3e","64dbc31b0d3fae870b1270b3","","","","","6161",""," ","key"," ","16.667783197831987","500","250","sample0","","","","","",""
"","psychophysics","6","58094","0.0-6.0","5da4152a3ab39a0011295a3e","64dbc31b0d3fae870b1270b3","","","","","3298",""," ","key"," ","16.667736040609146","500","250","sample1","","","","","",""
"","psychophysics","7","80032","0.0-7.0","5da4152a3ab39a0011295a3e","64dbc31b0d3fae870b1270b3","","","","","21936",""," ","key"," ","16.667603041825096","500","250","sample2","102","","","","",""
"","psychophysics","8","90778","0.0-8.0","5da4152a3ab39a0011295a3e","64dbc31b0d3fae870b1270b3","","","","","10743",""," ","key"," ","16.6678740279938","500","250","sample3","100","","","","",""
"","psychophysics","9","110161","0.0-9.0","5da4152a3ab39a0011295a3e","64dbc31b0d3fae870b1270b3","","","","","19373",""," ","key"," ","16.667674698795185","500","250","sample4","102","","","","",""
"","psychophysics","10","117025","0.0-10.0","5da4152a3ab39a0011295a3e","64dbc31b0d3fae870b1270b3","","","","","6854",""," ","key"," ","16.668102189781013","500","250","sample5","","","","","",""
"","psychophysics","11","130976","0.0-11.0","5da4152a3ab39a0011295a3e","64dbc31b0d3fae870b1270b3","","","","","13942",""," ","key"," ","16.667854066985647","500","250","sample6","506","","","","",""
"","psychophysics","12","140039","0.0-12.0","5da4152a3ab39a0011295a3e","64dbc31b0d3fae870b1270b3","","","","","9054",""," ","key"," ","16.6674585635359","500","250","inst","","","","","",""
"","psychophysics","13","149992","0.0-13.0","5da4152a3ab39a0011295a3e","64dbc31b0d3fae870b1270b3","","","","","9951",""," ","key"," ","16.6677919463087","500","250","inst","","","","","",""
"","psychophysics","14","159151","0.0-14.0","5da4152a3ab39a0011295a3e","64dbc31b0d3fae870b1270b3","","","","","9155",""," ","key"," ","16.6674480874317","500","250","inst","","","","","",""
"","psychophysics","15","162392","0.0-15.0","5da4152a3ab39a0011295a3e","64dbc31b0d3fae870b1270b3","","","","","3240",""," ","key"," ","16.66793264248716","500","250","inst","","","","","",""
"","psychophysics","16","166223","0.0-16.0","5da4152a3ab39a0011295a3e","64dbc31b0d3fae870b1270b3","","","","","3829",""," ","key"," ","16.66776855895194","500","250","inst","","","","","",""
"","psychophysics","17","171592","0.0-17.0","5da4152a3ab39a0011295a3e","64dbc31b0d3fae870b1270b3","","","","","5364",""," ","key"," ","16.667785046728962","500","250","instZol0","0","0","0","0","",""
"","psychophysics","18","185775","0.0-18.0","5da4152a3ab39a0011295a3e","64dbc31b0d3fae870b1270b3","","","","","14179",""," ","key"," ","16.667461176470592","500","250","instZol1","0.3999999999999998","0","0","-1.3","",""
"","psychophysics","19","207687","0.0-19.0","5da4152a3ab39a0011295a3e","64dbc31b0d3fae870b1270b3","","","","","21884",""," ","key"," ","16.66768417047184","500","250","instZol2","-1.5999999999999996","0","0","2","2",""
"","psychophysics","20","211569","0.0-20.0","5da4152a3ab39a0011295a3e","64dbc31b0d3fae870b1270b3","","","","","3879",""," ","key"," ","16.667655172413827","500","250","inst","","","","","",""
"","psychophysics","21","219589","0.0-21.0","5da4152a3ab39a0011295a3e","64dbc31b0d3fae870b1270b3","","","","","null","","null","key","null","16.667766666666648","500","250","zol","-1.26","-1","8","0.16","2",""
"","psychophysics","22","224032","0.0-22.0","5da4152a3ab39a0011295a3e","64dbc31b0d3fae870b1270b3","","","","","4440",""," ","key"," ","16.668098113207556","500","250","zol","-2.0400000000000005","11","11","0.44","2",""
"","psychophysics","23","232041","0.0-23.0","5da4152a3ab39a0011295a3e","64dbc31b0d3fae870b1270b3","","","","","null","","null","key","null","16.667808333333355","500","250","zol","-3.5200000000000022","-23","16","0.12","2",""
"","psychophysics","24","236433","0.0-24.0","5da4152a3ab39a0011295a3e","64dbc31b0d3fae870b1270b3","","","","","4386",""," ","key"," ","16.66795038167949","500","250","zol","-1.6800000000000004","17","15","0.08","2",""
"","psychophysics","25","243840","0.0-25.0","5da4152a3ab39a0011295a3e","64dbc31b0d3fae870b1270b3","","","","","7399",""," ","key"," ","16.667867117117108","500","250","zol","-1.01","19","10","-0.29","2",""
"","psychophysics","26","251847","0.0-26.0","5da4152a3ab39a0011295a3e","64dbc31b0d3fae870b1270b3","","","","","null","","null","key","null","16.668054279749462","500","250","zol","-1.26","-4","17","-0.14","2",""
"","psychophysics","27","257339","0.0-27.0","5da4152a3ab39a0011295a3e","64dbc31b0d3fae870b1270b3","","","","","5481",""," ","key"," ","16.667683890577525","500","250","zol","-1.5900000000000005","17","26","-0.61","2",""
"","psychophysics","28","264040","0.0-28.0","5da4152a3ab39a0011295a3e","64dbc31b0d3fae870b1270b3","","","","","6693",""," ","key"," ","16.667386533665844","500","250","zol","-2.170000000000001","-7","-12","0.47","2",""
"","psychophysics","29","272055","0.0-29.0","5da4152a3ab39a0011295a3e","64dbc31b0d3fae870b1270b3","","","","","null","","null","key","null","16.667779166666637","500","250","zol","-0.6900000000000001","-19","1","-0.51","2",""
"","psychophysics","30","279079","0.0-30.0","5da4152a3ab39a0011295a3e","64dbc31b0d3fae870b1270b3","","","","","7021",""," ","key"," ","16.707317422434457","500","250","zol","-1.17","30","15","0.17","2",""
"","psychophysics","31","287085","0.0-31.0","5da4152a3ab39a0011295a3e","64dbc31b0d3fae870b1270b3","","","","","null","","null","key","null","16.667663883089745","500","250","zol","-0.30999999999999994","-8","10","0.31","2",""
"","psychophysics","32","294782","0.0-32.0","5da4152a3ab39a0011295a3e","64dbc31b0d3fae870b1270b3","","","","","7689",""," ","key"," ","16.66797396963121","500","250","zol","-1.7700000000000005","-4","21","0.37","2",""
"","psychophysics","33","299927","0.0-33.0","5da4152a3ab39a0011295a3e","64dbc31b0d3fae870b1270b3","","","","","5142",""," ","key"," ","16.66751623376633","500","250","zol","-1.26","28","29","-0.74","2",""
"","psychophysics","34","305924","0.0-34.0","5da4152a3ab39a0011295a3e","64dbc31b0d3fae870b1270b3","","","","","5993",""," ","key"," ","16.66798328690803","500","250","zol","-1.4500000000000002","-14","18","-0.35","2",""
"","psychophysics","35","313931","0.0-35.0","5da4152a3ab39a0011295a3e","64dbc31b0d3fae870b1270b3","","","","","null","","null","key","null","16.667691022964554","500","250","zol","0.5100000000000001","-16","27","-0.51","2",""
"","psychophysics","36","316607","0.0-36.0","5da4152a3ab39a0011295a3e","64dbc31b0d3fae870b1270b3","","","","","2674",""," ","key"," ","16.668274999999994","500","250","inst","","","","","",""
"","psychophysics","37","320631","0.0-37.0","5da4152a3ab39a0011295a3e","64dbc31b0d3fae870b1270b3","","","","","4023",""," ","key"," ","16.66667083333329","500","250","instEB0","40","0","0","40","","40"
"","psychophysics","38","334223","0.0-38.0","5da4152a3ab39a0011295a3e","64dbc31b0d3fae870b1270b3","","","","","13588",""," ","key"," ","16.66793734643735","500","250","instEB1","74","0","0","30","2","70"
"","psychophysics","39","344553","0.0-39.0","5da4152a3ab39a0011295a3e","64dbc31b0d3fae870b1270b3","","","","","10327",""," ","key"," ","16.667432956381266","500","250","instEB2","46","0","0","60","2","40"
"","psychophysics","40","359594","0.0-40.0","5da4152a3ab39a0011295a3e","64dbc31b0d3fae870b1270b3","","","","","15012",""," ","key"," ","16.667698447893596","500","250","instEB3","67","0","0","45","2","65"
"","psychophysics","41","371240","0.0-41.0","5da4152a3ab39a0011295a3e","64dbc31b0d3fae870b1270b3","","","","","11639",""," ","key"," ","16.667767575322824","500","250","instEB4","46","0","0","40","2","40"
"","psychophysics","42","374087","0.0-42.0","5da4152a3ab39a0011295a3e","64dbc31b0d3fae870b1270b3","","","","","2834",""," ","key"," ","16.667700000000117","500","250","inst","","","","","",""
"","psychophysics","43","382070","0.0-43.0","5da4152a3ab39a0011295a3e","64dbc31b0d3fae870b1270b3","","","","","7968",""," ","key"," ","16.66755439330547","500","250","eb","58","0","0","38","2","53"
"","psychophysics","44","387047","0.0-44.0","5da4152a3ab39a0011295a3e","64dbc31b0d3fae870b1270b3","","","","","4974",""," ","key"," ","16.668499999999963","500","250","eb","60","0","0","49","2","51"
"","psychophysics","45","390583","0.0-45.0","5da4152a3ab39a0011295a3e","64dbc31b0d3fae870b1270b3","","","","","3531",""," ","key"," ","16.667289099526112","500","250","eb","51","0","0","31","2","40"
"","psychophysics","46","396064","0.0-46.0","5da4152a3ab39a0011295a3e","64dbc31b0d3fae870b1270b3","","","","","5479",""," ","key"," ","16.668402439024316","500","250","eb","52","0","0","24","2","52"
"","psychophysics","47","400745","0.0-47.0","5da4152a3ab39a0011295a3e","64dbc31b0d3fae870b1270b3","","","","","4669",""," ","key"," ","16.667157706093356","500","250","eb","60","0","0","49","2","46"
"","psychophysics","48","405775","0.0-48.0","5da4152a3ab39a0011295a3e","64dbc31b0d3fae870b1270b3","","","","","5022",""," ","key"," ","16.667790697674434","500","250","eb","31","0","0","40","2","29"
"","psychophysics","49","407888","0.0-49.0","5da4152a3ab39a0011295a3e","64dbc31b0d3fae870b1270b3","","","","","2110",""," ","key"," ","16.66871428571453","500","250","eb","53","0","0","53","2","47"
"","psychophysics","50","411887","0.0-50.0","5da4152a3ab39a0011295a3e","64dbc31b0d3fae870b1270b3","","","","","3996",""," ","key"," ","16.66703765690385","500","250","eb","54","0","0","41","2","47"
"","psychophysics","51","415520","0.0-51.0","5da4152a3ab39a0011295a3e","64dbc31b0d3fae870b1270b3","","","","","3631",""," ","key"," ","16.668087557603847","500","250","eb","60","0","0","44","2","54"
"","psychophysics","52","419248","0.0-52.0","5da4152a3ab39a0011295a3e","64dbc31b0d3fae870b1270b3","","","","","3723",""," ","key"," ","16.66786995515694","500","250","eb","30","0","0","41","2","27"
"","psychophysics","53","423441","0.0-53.0","5da4152a3ab39a0011295a3e","64dbc31b0d3fae870b1270b3","","","","","4190",""," ","key"," ","16.66684400000004","500","250","eb","60","0","0","47","2","53"
"","psychophysics","54","428576","0.0-54.0","5da4152a3ab39a0011295a3e","64dbc31b0d3fae870b1270b3","","","","","5126",""," ","key"," ","16.668276872964242","500","250","eb","55","0","0","35","2","43"
"","psychophysics","55","433265","0.0-55.0","5da4152a3ab39a0011295a3e","64dbc31b0d3fae870b1270b3","","","","","4677",""," ","key"," ","16.668003571428457","500","250","eb","43","0","0","54","2","40"
"","psychophysics","56","438024","0.0-56.0","5da4152a3ab39a0011295a3e","64dbc31b0d3fae870b1270b3","","","","","4750",""," ","key"," ","16.667543859649122","500","250","eb","49","0","0","32","2","40"
"","psychophysics","57","442136","0.0-57.0","5da4152a3ab39a0011295a3e","64dbc31b0d3fae870b1270b3","","","","","4099",""," ","key"," ","16.667060975609555","500","250","eb","53","0","0","30","2","48"
"","psychophysics","58","444552","0.0-58.0","5da4152a3ab39a0011295a3e","64dbc31b0d3fae870b1270b3","","","","","2413",""," ","key"," ","16.668298611111013","500","250","inst","","","","","",""
"","psychophysics","59","448400","0.0-59.0","5da4152a3ab39a0011295a3e","64dbc31b0d3fae870b1270b3","","","","","3846",""," ","key"," ","16.66726956521743","500","250","instPzPre","50","","","50","0","50"
"","psychophysics","60","452857","0.0-60.0","5da4152a3ab39a0011295a3e","64dbc31b0d3fae870b1270b3","","","","","4455",""," ","key"," ","16.667898496240465","500","250","instPz0","50","","","50","1","50"
"","psychophysics","61","462929","0.0-61.0","5da4152a3ab39a0011295a3e","64dbc31b0d3fae870b1270b3","","","","","10068",""," ","key"," ","16.667723051409695","500","250","instPz1","49","","","25","1","50"
"","psychophysics","62","469402","0.0-62.0","5da4152a3ab39a0011295a3e","64dbc31b0d3fae870b1270b3","","","","","6464",""," ","key"," ","16.667311855670143","500","250","instPz2","21","","","35","1","20"
"","psychophysics","63","491688","0.0-63.0","5da4152a3ab39a0011295a3e","64dbc31b0d3fae870b1270b3","","","","","22278",""," ","key"," ","16.667666167664656","500","250","instPz3","153","","","100","1","30"
"","psychophysics","64","503065","0.0-64.0","5da4152a3ab39a0011295a3e","64dbc31b0d3fae870b1270b3","","","","","11373",""," ","key"," ","16.66788105726871","500","250","instPz4","45","","","100","1","30"
"","psychophysics","65","506914","0.0-65.0","5da4152a3ab39a0011295a3e","64dbc31b0d3fae870b1270b3","","","","","3841",""," ","key"," ","16.66805217391305","500","250","inst","","","","","",""
"","psychophysics","66","514575","0.0-66.0","5da4152a3ab39a0011295a3e","64dbc31b0d3fae870b1270b3","","","","","7653",""," ","key"," ","16.667409586056678","500","250","pz","80","","","46","1","44"
"","psychophysics","67","521440","0.0-67.0","5da4152a3ab39a0011295a3e","64dbc31b0d3fae870b1270b3","","","","","6862",""," ","key"," ","16.668082725060813","500","250","pz","120","","","50","1","59"
"","psychophysics","68","526176","0.0-68.0","5da4152a3ab39a0011295a3e","64dbc31b0d3fae870b1270b3","","","","","4732",""," ","key"," ","16.667876325088205","500","250","pz","60","","","22","1","37"
"","psychophysics","69","530831","0.0-69.0","5da4152a3ab39a0011295a3e","64dbc31b0d3fae870b1270b3","","","","","4651",""," ","key"," ","16.66757194244591","500","250","pz","38","","","43","1","22"
"","psychophysics","70","536096","0.0-70.0","5da4152a3ab39a0011295a3e","64dbc31b0d3fae870b1270b3","","","","","5263",""," ","key"," ","16.667971428571313","500","250","pz","54","","","36","1","37"
"","psychophysics","71","541528","0.0-71.0","5da4152a3ab39a0011295a3e","64dbc31b0d3fae870b1270b3","","","","","5425",""," ","key"," ","16.66776615384608","500","250","pz","81","","","43","1","44"
"","psychophysics","72","545905","0.0-72.0","5da4152a3ab39a0011295a3e","64dbc31b0d3fae870b1270b3","","","","","4373",""," ","key"," ","16.668072519084095","500","250","pz","72","","","41","1","45"
"","psychophysics","73","550706","0.0-73.0","5da4152a3ab39a0011295a3e","64dbc31b0d3fae870b1270b3","","","","","4798",""," ","key"," ","16.66748083623707","500","250","pz","83","","","50","1","59"
"","psychophysics","74","555448","0.0-74.0","5da4152a3ab39a0011295a3e","64dbc31b0d3fae870b1270b3","","","","","4736",""," ","key"," ","16.667098939929293","500","250","pz","79","","","28","1","46"
"","psychophysics","75","561135","0.0-75.0","5da4152a3ab39a0011295a3e","64dbc31b0d3fae870b1270b3","","","","","5683",""," ","key"," ","16.667800000000074","500","250","pz","77","","","22","1","40"
"","psychophysics","76","568280","0.0-76.0","5da4152a3ab39a0011295a3e","64dbc31b0d3fae870b1270b3","","","","","7140",""," ","key"," ","16.667411214953276","500","250","pz","31","","","31","1","23"
"","psychophysics","77","573208","0.0-77.0","5da4152a3ab39a0011295a3e","64dbc31b0d3fae870b1270b3","","","","","4924",""," ","key"," ","16.667752542373155","500","250","pz","80","","","48","1","47"
"","psychophysics","78","580272","0.0-78.0","5da4152a3ab39a0011295a3e","64dbc31b0d3fae870b1270b3","","","","","7059",""," ","key"," ","16.667153664302614","500","250","pz","37","","","32","1","24"
"","psychophysics","79","585736","0.0-79.0","5da4152a3ab39a0011295a3e","64dbc31b0d3fae870b1270b3","","","","","5461",""," ","key"," ","16.668082822086017","500","250","pz","27","","","42","1","22"
"","psychophysics","80","590456","0.0-80.0","5da4152a3ab39a0011295a3e","64dbc31b0d3fae870b1270b3","","","","","4711",""," ","key"," ","16.66764893617022","500","250","pz","25","","","60","1","21"
"","psychophysics","81","592454","0.0-81.0","5da4152a3ab39a0011295a3e","64dbc31b0d3fae870b1270b3","","","","","1994",""," ","key"," ","16.665798319327575","500","250","inst","","","","","",""
"","psychophysics","82","596784","0.0-82.0","5da4152a3ab39a0011295a3e","64dbc31b0d3fae870b1270b3","","","","","4326",""," ","key"," ","16.668135135134765","500","250","instBr0","0","0","0","0","","300"
"","psychophysics","83","607088","0.0-83.0","5da4152a3ab39a0011295a3e","64dbc31b0d3fae870b1270b3","","","","","10295",""," ","key"," ","16.667662884927026","500","250","instBr1","7","0","0","-40","","300"
"","psychophysics","84","618783","0.0-84.0","5da4152a3ab39a0011295a3e","64dbc31b0d3fae870b1270b3","","","","","11687",""," ","key"," ","16.667639087018564","500","250","instBr3","-22","0","0","40","1","300"
"","psychophysics","85","621358","0.0-85.0","5da4152a3ab39a0011295a3e","64dbc31b0d3fae870b1270b3","","","","","2574",""," ","key"," ","16.667642857142354","500","250","inst","","","","","",""
"","psychophysics","86","625479","0.0-86.0","5da4152a3ab39a0011295a3e","64dbc31b0d3fae870b1270b3","","","","","4119",""," ","key"," ","16.668130081300756","500","250","br","-12","0","27","-30","1","227"
"","psychophysics","87","628640","0.0-87.0","5da4152a3ab39a0011295a3e","64dbc31b0d3fae870b1270b3","","","","","3156",""," ","key"," ","16.66811702127675","500","250","br","-16","11","0","-16","1","247"
"","psychophysics","88","636646","0.0-88.0","5da4152a3ab39a0011295a3e","64dbc31b0d3fae870b1270b3","","","","","null","","null","key","null","16.667481249999884","500","250","br","-6","-19","-23","-9","1","234"
"","psychophysics","89","640583","0.0-89.0","5da4152a3ab39a0011295a3e","64dbc31b0d3fae870b1270b3","","","","","3932",""," ","key"," ","16.6679021276598","500","250","br","-18","-21","-6","-6","1","246"
"","psychophysics","90","644672","0.0-90.0","5da4152a3ab39a0011295a3e","64dbc31b0d3fae870b1270b3","","","","","4087",""," ","key"," ","16.667860655738117","500","250","br","-20","-3","19","-11","1","226"
"","psychophysics","91","650129","0.0-91.0","5da4152a3ab39a0011295a3e","64dbc31b0d3fae870b1270b3","","","","","5446",""," ","key"," ","16.667565749235457","500","250","br","-18","-16","-28","25","1","274"
"","psychophysics","92","653329","0.0-92.0","5da4152a3ab39a0011295a3e","64dbc31b0d3fae870b1270b3","","","","","3195",""," ","key"," ","16.667994764397598","500","250","br","-22","3","6","-10","1","250"
"","psychophysics","93","659400","0.0-93.0","5da4152a3ab39a0011295a3e","64dbc31b0d3fae870b1270b3","","","","","6067",""," ","key"," ","16.667542699724436","500","250","br","-11","-3","-12","28","1","218"
"","psychophysics","94","666147","0.0-94.0","5da4152a3ab39a0011295a3e","64dbc31b0d3fae870b1270b3","","","","","6741",""," ","key"," ","16.667628712871164","500","250","br","-17","-23","-10","-23","1","239"
"","psychophysics","95","671288","0.0-95.0","5da4152a3ab39a0011295a3e","64dbc31b0d3fae870b1270b3","","","","","5137",""," ","key"," ","16.667123778501725","500","250","br","-16","23","2","13","1","279"
"","psychophysics","96","677145","0.0-96.0","5da4152a3ab39a0011295a3e","64dbc31b0d3fae870b1270b3","","","","","5846",""," ","key"," ","16.66769142857154","500","250","br","-16","22","-11","-12","1","226"
"","psychophysics","97","681775","0.0-97.0","5da4152a3ab39a0011295a3e","64dbc31b0d3fae870b1270b3","","","","","4622",""," ","key"," ","16.667025270757925","500","250","br","-16","-9","1","22","1","282"
"","psychophysics","98","685648","0.0-98.0","5da4152a3ab39a0011295a3e","64dbc31b0d3fae870b1270b3","","","","","3872",""," ","key"," ","16.668297413792782","500","250","br","-11","5","-26","26","1","237"
"","psychophysics","99","690232","0.0-99.0","5da4152a3ab39a0011295a3e","64dbc31b0d3fae870b1270b3","","","","","4579",""," ","key"," ","16.6671423357665","500","250","br","-12","-24","23","8","1","288"
"","psychophysics","100","692072","0.0-100.0","5da4152a3ab39a0011295a3e","64dbc31b0d3fae870b1270b3","","","","","1836",""," ","key"," ","16.66943119266049","500","250","br","-19","-19","11","-19","1","226"
"","psychophysics","101","694207","0.0-101.0","5da4152a3ab39a0011295a3e","64dbc31b0d3fae870b1270b3","","","","","2131",""," ","key"," ","16.66769291338507","500","250","inst","","","","","",""
"","psychophysics","102","708800","0.0-102.0","5da4152a3ab39a0011295a3e","64dbc31b0d3fae870b1270b3","","","","","14591",""," ","key"," ","16.667658285714285","500","250","instPog0","340","0","0","370","2","340"
"","psychophysics","103","713043","0.0-103.0","5da4152a3ab39a0011295a3e","64dbc31b0d3fae870b1270b3","","","","","4240",""," ","key"," ","16.667628458498154","500","250","instPog1","340","0","0","370","2","340"
"","psychophysics","104","718888","0.0-104.0","5da4152a3ab39a0011295a3e","64dbc31b0d3fae870b1270b3","","","","","5835",""," ","key"," ","16.667217142857346","500","250","instPog2","318","0","0","340","2","340"
"","psychophysics","105","720433","0.0-105.0","5da4152a3ab39a0011295a3e","64dbc31b0d3fae870b1270b3","","","","","1541",""," ","key"," ","16.66711956521739","500","250","inst","","","","","",""
"","psychophysics","106","724943","0.0-106.0","5da4152a3ab39a0011295a3e","64dbc31b0d3fae870b1270b3","","","","","4503",""," ","key"," ","16.667914498141243","500","250","pog","290","0","0","398","2","314"
"","psychophysics","107","727288","0.0-107.0","5da4152a3ab39a0011295a3e","64dbc31b0d3fae870b1270b3","","","","","2344",""," ","key"," ","16.666292857143397","500","250","pog","307","0","0","311","2","319"
"","psychophysics","108","734904","0.0-108.0","5da4152a3ab39a0011295a3e","64dbc31b0d3fae870b1270b3","","","","","7613",""," ","key"," ","16.667800438596476","500","250","pog","326","0","0","294","2","355"
"","psychophysics","109","738583","0.0-109.0","5da4152a3ab39a0011295a3e","64dbc31b0d3fae870b1270b3","","","","","3674",""," ","key"," ","16.668518181817753","500","250","pog","312","0","0","370","2","343"
"","psychophysics","110","739911","0.0-110.0","5da4152a3ab39a0011295a3e","64dbc31b0d3fae870b1270b3","","","","","1327",""," ","key"," ","16.66729487179486","500","250","pog","318","0","0","318","2","333"
"","psychophysics","111","744047","0.0-111.0","5da4152a3ab39a0011295a3e","64dbc31b0d3fae870b1270b3","","","","","4134",""," ","key"," ","16.66836437246968","500","250","pog","317","0","0","295","2","341"
"","psychophysics","112","747352","0.0-112.0","5da4152a3ab39a0011295a3e","64dbc31b0d3fae870b1270b3","","","","","3302",""," ","key"," ","16.66776262626294","500","250","pog","302","0","0","352","2","320"
"","psychophysics","113","751040","0.0-113.0","5da4152a3ab39a0011295a3e","64dbc31b0d3fae870b1270b3","","","","","3684",""," ","key"," ","16.668331818182065","500","250","pog","354","0","0","392","2","369"
"","psychophysics","114","756224","0.0-114.0","5da4152a3ab39a0011295a3e","64dbc31b0d3fae870b1270b3","","","","","5180",""," ","key"," ","16.667648387096836","500","250","pog","321","0","0","385","2","339"
"","psychophysics","115","759986","0.0-115.0","5da4152a3ab39a0011295a3e","64dbc31b0d3fae870b1270b3","","","","","3759",""," ","key"," ","16.66770666666691","500","250","pog","300","0","0","386","2","325"
"","psychophysics","116","763424","0.0-116.0","5da4152a3ab39a0011295a3e","64dbc31b0d3fae870b1270b3","","","","","3434",""," ","key"," ","16.667360975609796","500","250","pog","344","0","0","322","2","366"
"","psychophysics","117","769376","0.0-117.0","5da4152a3ab39a0011295a3e","64dbc31b0d3fae870b1270b3","","","","","5948",""," ","key"," ","16.66774438202232","500","250","pog","344","0","0","306","2","361"
"","psychophysics","118","775288","0.0-118.0","5da4152a3ab39a0011295a3e","64dbc31b0d3fae870b1270b3","","","","","5909",""," ","key"," ","16.667624293785412","500","250","pog","342","0","0","376","2","361"
"","psychophysics","119","782343","0.0-119.0","5da4152a3ab39a0011295a3e","64dbc31b0d3fae870b1270b3","","","","","7052",""," ","key"," ","16.667727488151563","500","250","pog","288","0","0","366","2","311"
"","psychophysics","120","786404","0.0-120.0","5da4152a3ab39a0011295a3e","64dbc31b0d3fae870b1270b3","","","","","4057",""," ","key"," ","16.66757201646079","500","250","pog","288","0","0","340","2","306"
"","psychophysics","121","788224","0.0-121.0","5da4152a3ab39a0011295a3e","64dbc31b0d3fae870b1270b3","","","","","1817",""," ","key"," ","16.669629629630233","500","250","inst","","","","","",""
"","psychophysics","122","796791","0.0-122.0","5da4152a3ab39a0011295a3e","64dbc31b0d3fae870b1270b3","","","","","8562",""," ","key"," ","16.667286549707544","500","250","instBr3","24","0","0","40","2","300"
"","psychophysics","123","798355","0.0-123.0","5da4152a3ab39a0011295a3e","64dbc31b0d3fae870b1270b3","","","","","1561",""," ","key"," ","16.669602150536864","500","250","inst","","","","","",""
"","psychophysics","124","802138","0.0-124.0","5da4152a3ab39a0011295a3e","64dbc31b0d3fae870b1270b3","","","","","3778",""," ","key"," ","16.667715555555187","500","250","br","18","-6","18","26","2","297"
"","psychophysics","125","805841","0.0-125.0","5da4152a3ab39a0011295a3e","64dbc31b0d3fae870b1270b3","","","","","3697",""," ","key"," ","16.667747747747704","500","250","br","9","-3","9","22","2","208"
"","psychophysics","126","810375","0.0-126.0","5da4152a3ab39a0011295a3e","64dbc31b0d3fae870b1270b3","","","","","4530",""," ","key"," ","16.666870848708307","500","250","br","22","0","24","-22","2","258"
"","psychophysics","127","813231","0.0-127.0","5da4152a3ab39a0011295a3e","64dbc31b0d3fae870b1270b3","","","","","2855",""," ","key"," ","16.66745294117615","500","250","br","12","20","-10","-14","2","218"
"","psychophysics","128","818274","0.0-128.0","5da4152a3ab39a0011295a3e","64dbc31b0d3fae870b1270b3","","","","","5032",""," ","key"," ","16.667274834437062","500","250","br","14","-15","13","-30","2","249"
"","psychophysics","129","820839","0.0-129.0","5da4152a3ab39a0011295a3e","64dbc31b0d3fae870b1270b3","","","","","2562",""," ","key"," ","16.667745098038697","500","250","br","16","-14","-5","15","2","231"
"","psychophysics","130","823938","0.0-130.0","5da4152a3ab39a0011295a3e","64dbc31b0d3fae870b1270b3","","","","","3094",""," ","key"," ","16.66782608695655","500","250","br","18","-25","22","-1","2","202"
"","psychophysics","131","827847","0.0-131.0","5da4152a3ab39a0011295a3e","64dbc31b0d3fae870b1270b3","","","","","3903",""," ","key"," ","16.66735042735007","500","250","br","19","3","-6","-1","2","250"
"","psychophysics","132","832774","0.0-132.0","5da4152a3ab39a0011295a3e","64dbc31b0d3fae870b1270b3","","","","","4925",""," ","key"," ","16.66711186440701","500","250","br","17","18","30","-21","2","221"
"","psychophysics","133","837184","0.0-133.0","5da4152a3ab39a0011295a3e","64dbc31b0d3fae870b1270b3","","","","","4408",""," ","key"," ","16.66834600760465","500","250","br","17","1","24","-8","2","241"
"","psychophysics","134","840351","0.0-134.0","5da4152a3ab39a0011295a3e","64dbc31b0d3fae870b1270b3","","","","","3159",""," ","key"," ","16.667650793650726","500","250","br","32","14","-27","14","2","284"
"","psychophysics","135","846919","0.0-135.0","5da4152a3ab39a0011295a3e","64dbc31b0d3fae870b1270b3","","","","","6558",""," ","key"," ","16.66713740458","500","250","br","19","-4","25","-22","2","224"
"","psychophysics","136","849991","0.0-136.0","5da4152a3ab39a0011295a3e","64dbc31b0d3fae870b1270b3","","","","","3069",""," ","key"," ","16.66701630434798","500","250","br","21","-20","-10","5","2","219"
"","psychophysics","137","855199","0.0-137.0","5da4152a3ab39a0011295a3e","64dbc31b0d3fae870b1270b3","","","","","5203",""," ","key"," ","16.667771704180144","500","250","br","19","-12","17","-9","2","229"
"","psychophysics","138","861168","0.0-138.0","5da4152a3ab39a0011295a3e","64dbc31b0d3fae870b1270b3","","","","","5967",""," ","key"," ","16.667719887954988","500","250","br","31","-30","0","-28","2","271"
"","psychophysics","139","862974","0.0-139.0","5da4152a3ab39a0011295a3e","64dbc31b0d3fae870b1270b3","","","","","1803",""," ","key"," ","16.668398148148466","500","250","inst","","","","","",""
"","psychophysics","140","874535","0.0-140.0","5da4152a3ab39a0011295a3e","64dbc31b0d3fae870b1270b3","","","","","11559",""," ","key"," ","16.667666184971132","500","250","instPog0","160","0","0","190","1","160"
"","psychophysics","141","885944","0.0-141.0","5da4152a3ab39a0011295a3e","64dbc31b0d3fae870b1270b3","","","","","11408",""," ","key"," ","16.667815789473803","500","250","instPog1","164","0","0","190","1","160"
"","psychophysics","142","895944","0.0-142.0","5da4152a3ab39a0011295a3e","64dbc31b0d3fae870b1270b3","","","","","9997",""," ","key"," ","16.667894824707876","500","250","instPog2","186","0","0","160","1","160"
"","psychophysics","143","897655","0.0-143.0","5da4152a3ab39a0011295a3e","64dbc31b0d3fae870b1270b3","","","","","1708",""," ","key"," ","16.669663366336042","500","250","inst","","","","","",""
"","psychophysics","144","904568","0.0-144.0","5da4152a3ab39a0011295a3e","64dbc31b0d3fae870b1270b3","","","","","6902",""," ","key"," ","16.667801932367084","500","250","pog","210","0","0","104","1","195"
"","psychophysics","145","909704","0.0-145.0","5da4152a3ab39a0011295a3e","64dbc31b0d3fae870b1270b3","","","","","5132",""," ","key"," ","16.667677524429823","500","250","pog","159","0","0","197","1","127"
"","psychophysics","146","914545","0.0-146.0","5da4152a3ab39a0011295a3e","64dbc31b0d3fae870b1270b3","","","","","4838",""," ","key"," ","16.66791379310327","500","250","pog","177","0","0","149","1","146"
"","psychophysics","147","922455","0.0-147.0","5da4152a3ab39a0011295a3e","64dbc31b0d3fae870b1270b3","","","","","7906",""," ","key"," ","16.66720930232576","500","250","pog","159","0","0","217","1","124"
"","psychophysics","148","926487","0.0-148.0","5da4152a3ab39a0011295a3e","64dbc31b0d3fae870b1270b3","","","","","4029",""," ","key"," ","16.736695833333457","500","250","pog","184","0","0","154","1","146"
"","psychophysics","149","930999","0.0-149.0","5da4152a3ab39a0011295a3e","64dbc31b0d3fae870b1270b3","","","","","4509",""," ","key"," ","16.668070370370213","500","250","pog","204","0","0","170","1","171"
"","psychophysics","150","934490","0.0-150.0","5da4152a3ab39a0011295a3e","64dbc31b0d3fae870b1270b3","","","","","3489",""," ","key"," ","16.667072115384283","500","250","pog","202","0","0","220","1","183"
"","psychophysics","151","939000","0.0-151.0","5da4152a3ab39a0011295a3e","64dbc31b0d3fae870b1270b3","","","","","4506",""," ","key"," ","16.66772222222234","500","250","pog","159","0","0","193","1","129"
"","psychophysics","152","945199","0.0-152.0","5da4152a3ab39a0011295a3e","64dbc31b0d3fae870b1270b3","","","","","6195",""," ","key"," ","16.667355795148346","500","250","pog","168","0","0","120","1","146"
"","psychophysics","153","947448","0.0-153.0","5da4152a3ab39a0011295a3e","64dbc31b0d3fae870b1270b3","","","","","2248",""," ","key"," ","16.668708955223583","500","250","pog","181","0","0","185","1","165"
"","psychophysics","154","952113","0.0-154.0","5da4152a3ab39a0011295a3e","64dbc31b0d3fae870b1270b3","","","","","4662",""," ","key"," ","16.667630824372658","500","250","pog","151","0","0","203","1","128"
"","psychophysics","155","955751","0.0-155.0","5da4152a3ab39a0011295a3e","64dbc31b0d3fae870b1270b3","","","","","3634",""," ","key"," ","16.66713824884779","500","250","pog","165","0","0","205","1","140"
"","psychophysics","156","960975","0.0-156.0","5da4152a3ab39a0011295a3e","64dbc31b0d3fae870b1270b3","","","","","5207",""," ","key"," ","16.668070512820403","500","250","pog","169","0","0","103","1","141"
"","psychophysics","157","967153","0.0-157.0","5da4152a3ab39a0011295a3e","64dbc31b0d3fae870b1270b3","","","","","6171",""," ","key"," ","16.668062162162055","500","250","pog","156","0","0","100","1","128"
"","psychophysics","158","973456","0.0-158.0","5da4152a3ab39a0011295a3e","64dbc31b0d3fae870b1270b3","","","","","6298",""," ","key"," ","16.66767904509275","500","250","pog","225","0","0","175","1","195"
"","psychophysics","159","975135","0.0-159.0","5da4152a3ab39a0011295a3e","64dbc31b0d3fae870b1270b3","","","","","1676",""," ","key"," ","16.66628000000026","500","250","inst","","","","","",""
"","psychophysics","160","981568","0.0-160.0","5da4152a3ab39a0011295a3e","64dbc31b0d3fae870b1270b3","","","","","6431",""," ","key"," ","16.668075324675407","500","250","instPz1","44","","","25","2","50"
"","psychophysics","161","987776","0.0-161.0","5da4152a3ab39a0011295a3e","64dbc31b0d3fae870b1270b3","","","","","6204",""," ","key"," ","16.667606469002777","500","250","instPz2","32","","","20","2","35"
"","psychophysics","162","1002993","0.0-162.0","5da4152a3ab39a0011295a3e","64dbc31b0d3fae870b1270b3","","","","","15207",""," ","key"," ","16.66755811403505","500","250","instPz3","-68","","","30","2","100"
"","psychophysics","163","1009192","0.0-163.0","5da4152a3ab39a0011295a3e","64dbc31b0d3fae870b1270b3","","","","","6190",""," ","key"," ","16.667512129380047","500","250","instPz4","60","","","30","2","100"
"","psychophysics","164","1012472","0.0-164.0","5da4152a3ab39a0011295a3e","64dbc31b0d3fae870b1270b3","","","","","3277",""," ","key"," ","16.66784183673468","500","250","inst","","","","","",""
"","psychophysics","165","1018136","0.0-165.0","5da4152a3ab39a0011295a3e","64dbc31b0d3fae870b1270b3","","","","","5659",""," ","key"," ","16.667646017698928","500","250","pz","30","","","48","2","52"
"","psychophysics","166","1021872","0.0-166.0","5da4152a3ab39a0011295a3e","64dbc31b0d3fae870b1270b3","","","","","3732",""," ","key"," ","16.66732735426015","500","250","pz","35","","","42","2","52"
"","psychophysics","167","1024993","0.0-167.0","5da4152a3ab39a0011295a3e","64dbc31b0d3fae870b1270b3","","","","","3116",""," ","key"," ","16.667521505376264","500","250","pz","29","","","35","2","53"
"","psychophysics","168","1029834","0.0-168.0","5da4152a3ab39a0011295a3e","64dbc31b0d3fae870b1270b3","","","","","4836",""," ","key"," ","16.66832179930802","500","250","pz","27","","","39","2","47"
"","psychophysics","169","1033504","0.0-169.0","5da4152a3ab39a0011295a3e","64dbc31b0d3fae870b1270b3","","","","","3663",""," ","key"," ","16.6666545454545","500","250","pz","23","","","36","2","35"
"","psychophysics","170","1038559","0.0-170.0","5da4152a3ab39a0011295a3e","64dbc31b0d3fae870b1270b3","","","","","5049",""," ","key"," ","16.66765231788058","500","250","pz","18","","","47","2","22"
"","psychophysics","171","1041264","0.0-171.0","5da4152a3ab39a0011295a3e","64dbc31b0d3fae870b1270b3","","","","","2701",""," ","key"," ","16.6687453416153","500","250","pz","38","","","38","2","58"
"","psychophysics","172","1046706","0.0-172.0","5da4152a3ab39a0011295a3e","64dbc31b0d3fae870b1270b3","","","","","5433",""," ","key"," ","16.66801533742345","500","250","pz","24","","","50","2","34"
"","psychophysics","173","1050137","0.0-173.0","5da4152a3ab39a0011295a3e","64dbc31b0d3fae870b1270b3","","","","","3426",""," ","key"," ","16.66694146341406","500","250","pz","24","","","23","2","39"
"","psychophysics","174","1054064","0.0-174.0","5da4152a3ab39a0011295a3e","64dbc31b0d3fae870b1270b3","","","","","3923",""," ","key"," ","16.667427350427662","500","250","pz","24","","","44","2","35"
"","psychophysics","175","1059344","0.0-175.0","5da4152a3ab39a0011295a3e","64dbc31b0d3fae870b1270b3","","","","","5271",""," ","key"," ","16.667332278481314","500","250","pz","20","","","55","2","20"
"","psychophysics","176","1063560","0.0-176.0","5da4152a3ab39a0011295a3e","64dbc31b0d3fae870b1270b3","","","","","4211",""," ","key"," ","16.667809523809293","500","250","pz","19","","","37","2","22"
"","psychophysics","177","1069584","0.0-177.0","5da4152a3ab39a0011295a3e","64dbc31b0d3fae870b1270b3","","","","","6020",""," ","key"," ","16.66750000000013","500","250","pz","33","","","52","2","52"
"","psychophysics","178","1072807","0.0-178.0","5da4152a3ab39a0011295a3e","64dbc31b0d3fae870b1270b3","","","","","3213",""," ","key"," ","16.667720207253257","500","250","pz","32","","","33","2","44"
"","psychophysics","179","1078496","0.0-179.0","5da4152a3ab39a0011295a3e","64dbc31b0d3fae870b1270b3","","","","","5686",""," ","key"," ","16.66821764705922","500","250","pz","32","","","23","2","47"
"","psychophysics","180","1080032","0.0-180.0","5da4152a3ab39a0011295a3e","64dbc31b0d3fae870b1270b3","","","","","1533",""," ","key"," ","16.667197802198725","500","250","inst","","","","","",""
"","psychophysics","181","1098911","0.0-181.0","5da4152a3ab39a0011295a3e","64dbc31b0d3fae870b1270b3","","","","","18849",""," ","key"," ","16.667840106007166","500","250","instZol1","0.3999999999999998","0","0","-1.3","",""
"","psychophysics","182","1105505","0.0-182.0","5da4152a3ab39a0011295a3e","64dbc31b0d3fae870b1270b3","","","","","6590",""," ","key"," ","16.667631979695482","500","250","instZol2","1.2000000000000008","0","0","2","1",""
"","psychophysics","183","1107640","0.0-183.0","5da4152a3ab39a0011295a3e","64dbc31b0d3fae870b1270b3","","","","","2131",""," ","key"," ","16.666546874999767","500","250","inst","","","","","",""
"","psychophysics","184","1113576","0.0-184.0","5da4152a3ab39a0011295a3e","64dbc31b0d3fae870b1270b3","","","","","5929",""," ","key"," ","16.668169014084377","500","250","zol","1.7900000000000005","16","-20","-0.49","1",""
"","psychophysics","185","1117928","0.0-185.0","5da4152a3ab39a0011295a3e","64dbc31b0d3fae870b1270b3","","","","","4333",""," ","key"," ","16.66688461538422","500","250","zol","1.3800000000000001","4","14","0.62","1",""
"","psychophysics","186","1122275","0.0-186.0","5da4152a3ab39a0011295a3e","64dbc31b0d3fae870b1270b3","","","","","4340",""," ","key"," ","16.667723076923107","500","250","zol","2.1100000000000008","26","-28","-0.71","1",""
"","psychophysics","187","1128648","0.0-187.0","5da4152a3ab39a0011295a3e","64dbc31b0d3fae870b1270b3","","","","","6366",""," ","key"," ","16.667338582677303","500","250","zol","2.460000000000001","-19","24","0.64","1",""
"","psychophysics","188","1133000","0.0-188.0","5da4152a3ab39a0011295a3e","64dbc31b0d3fae870b1270b3","","","","","4341",""," ","key"," ","16.66753076923062","500","250","zol","2.400000000000001","-4","7","0.4","1",""
"","psychophysics","189","1137825","0.0-189.0","5da4152a3ab39a0011295a3e","64dbc31b0d3fae870b1270b3","","","","","4810",""," ","key"," ","16.66804844290614","500","250","zol","2.840000000000001","-29","20","-0.24","1",""
"","psychophysics","190","1142672","0.0-190.0","5da4152a3ab39a0011295a3e","64dbc31b0d3fae870b1270b3","","","","","4843",""," ","key"," ","16.667719723183055","500","250","zol","2.8700000000000014","-16","6","0.63","1",""
"","psychophysics","191","1150681","0.0-191.0","5da4152a3ab39a0011295a3e","64dbc31b0d3fae870b1270b3","","","","","null","","null","key","null","16.66756458333354","500","250","zol","2.400000000000001","25","-15","0.3","1",""
"","psychophysics","192","1157888","0.0-192.0","5da4152a3ab39a0011295a3e","64dbc31b0d3fae870b1270b3","","","","","7204",""," ","key"," ","16.66812296983734","500","250","zol","1.5400000000000005","29","5","-0.54","1",""
"","psychophysics","193","1162091","0.0-193.0","5da4152a3ab39a0011295a3e","64dbc31b0d3fae870b1270b3","","","","","4190",""," ","key"," ","16.667637450199397","500","250","zol","2.310000000000001","6","15","0.09","1",""
"","psychophysics","194","1165447","0.0-194.0","5da4152a3ab39a0011295a3e","64dbc31b0d3fae870b1270b3","","","","","3347",""," ","key"," ","16.66760199005016","500","250","zol","2.060000000000001","11","8","-0.56","1",""
"","psychophysics","195","1170456","0.0-195.0","5da4152a3ab39a0011295a3e","64dbc31b0d3fae870b1270b3","","","","","5006",""," ","key"," ","16.668364548494253","500","250","zol","1.4300000000000004","-25","16","-0.03","1",""
"","psychophysics","196","1175615","0.0-196.0","5da4152a3ab39a0011295a3e","64dbc31b0d3fae870b1270b3","","","","","5148",""," ","key"," ","16.667598705502186","500","250","zol","2.310000000000001","1","22","0.19","1",""
"","psychophysics","197","1180634","0.0-197.0","5da4152a3ab39a0011295a3e","64dbc31b0d3fae870b1270b3","","","","","5016",""," ","key"," ","16.667150000000063","500","250","zol","2.140000000000001","-21","12","0.26","1",""
"","psychophysics","198","1186703","0.0-198.0","5da4152a3ab39a0011295a3e","64dbc31b0d3fae870b1270b3","","","","","6067",""," ","key"," ","16.667628099174","500","250","zol","2.450000000000001","0","23","-0.65","1",""
"","psychophysics","199","1188584","0.0-199.0","5da4152a3ab39a0011295a3e","64dbc31b0d3fae870b1270b3","","","","","1880",""," ","key"," ","16.668098214286147","500","250","inst","","","","","",""
"","psychophysics","200","1195680","0.0-200.0","5da4152a3ab39a0011295a3e","64dbc31b0d3fae870b1270b3","","","","","7091",""," ","key"," ","16.667397647058483","500","250","instEB4","45","0","0","40","1","40"
"","psychophysics","201","1196736","0.0-201.0","5da4152a3ab39a0011295a3e","64dbc31b0d3fae870b1270b3","","","","","1055",""," ","key"," ","16.669951612903407","500","250","inst","","","","","",""
"","psychophysics","202","1201488","0.0-202.0","5da4152a3ab39a0011295a3e","64dbc31b0d3fae870b1270b3","","","","","4748",""," ","key"," ","16.667295774648256","500","250","eb","52","0","0","34","1","50"
"","psychophysics","203","1207209","0.0-203.0","5da4152a3ab39a0011295a3e","64dbc31b0d3fae870b1270b3","","","","","5712",""," ","key"," ","16.667707602338925","500","250","eb","28","0","0","37","1","25"
"","psychophysics","204","1212720","0.0-204.0","5da4152a3ab39a0011295a3e","64dbc31b0d3fae870b1270b3","","","","","5501",""," ","key"," ","16.668242424242482","500","250","eb","57","0","0","28","1","54"
"","psychophysics","205","1215239","0.0-205.0","5da4152a3ab39a0011295a3e","64dbc31b0d3fae870b1270b3","","","","","2514",""," ","key"," ","16.667693333332426","500","250","eb","40","0","0","40","1","32"
"","psychophysics","206","1220704","0.0-206.0","5da4152a3ab39a0011295a3e","64dbc31b0d3fae870b1270b3","","","","","5463",""," ","key"," ","16.66749235474012","500","250","eb","37","0","0","47","1","30"
"","psychophysics","207","1223976","0.0-207.0","5da4152a3ab39a0011295a3e","64dbc31b0d3fae870b1270b3","","","","","3267",""," ","key"," ","16.667558974359565","500","250","eb","48","0","0","31","1","40"
"","psychophysics","208","1227642","0.0-208.0","5da4152a3ab39a0011295a3e","64dbc31b0d3fae870b1270b3","","","","","3655",""," ","key"," ","16.667200913241338","500","250","eb","38","0","0","44","1","37"
"","psychophysics","209","1229424","0.0-209.0","5da4152a3ab39a0011295a3e","64dbc31b0d3fae870b1270b3","","","","","1773",""," ","key"," ","16.667084905659376","500","250","eb","36","0","0","36","1","31"
"","psychophysics","210","1233160","0.0-210.0","5da4152a3ab39a0011295a3e","64dbc31b0d3fae870b1270b3","","","","","3730",""," ","key"," ","16.66771748878851","500","250","eb","31","0","0","27","1","27"
"","psychophysics","211","1236768","0.0-211.0","5da4152a3ab39a0011295a3e","64dbc31b0d3fae870b1270b3","","","","","3598",""," ","key"," ","16.666995370370355","500","250","eb","51","0","0","35","1","40"
"","psychophysics","212","1240760","0.0-212.0","5da4152a3ab39a0011295a3e","64dbc31b0d3fae870b1270b3","","","","","3986",""," ","key"," ","16.666894957982787","500","250","eb","28","0","0","39","1","26"
"","psychophysics","213","1246424","0.0-213.0","5da4152a3ab39a0011295a3e","64dbc31b0d3fae870b1270b3","","","","","5653",""," ","key"," ","16.667979351032642","500","250","eb","48","0","0","45","1","47"
"","psychophysics","214","1252136","0.0-214.0","5da4152a3ab39a0011295a3e","64dbc31b0d3fae870b1270b3","","","","","5709",""," ","key"," ","16.667783625730944","500","250","eb","34","0","0","45","1","31"
"","psychophysics","215","1260141","0.0-215.0","5da4152a3ab39a0011295a3e","64dbc31b0d3fae870b1270b3","","","","","null","","null","key","null","16.667755741127795","500","250","eb","37","0","0","48","1","35"
"","psychophysics","216","1260359","0.0-216.0","5da4152a3ab39a0011295a3e","64dbc31b0d3fae870b1270b3","","","","","199",""," ","key"," ","16.646666666667443","500","250","eb","30","0","0","30","1","36"
