"success","trial_type","trial_index","time_elapsed","internal_node_id","pid","sid","timeout","failed_images","failed_audio","failed_video","rt","stimulus","response","response_type","key_press","avg_frame_time","center_x","center_y","task","resp","version","jitterX","jitterY","start","parA"
"true","fullscreen","0","2423","0.0-0.0","559ef308fdf99b2616ff2a4f","64dbbfbd39c0fc92dcdd5e26","","","","","","","","","","","","","","","","","","",""
"true","preload","1","2522","0.0-1.0","559ef308fdf99b2616ff2a4f","64dbbfbd39c0fc92dcdd5e26","false","[]","[]","[]","","","","","","","","","","","","","","",""
"","html-button-response","2","4441","0.0-2.0","559ef308fdf99b2616ff2a4f","64dbbfbd39c0fc92dcdd5e26","","","","","1918","Please Make Sure Your Audio Is On.","0","","","","","","","","","","","",""
"","psychophysics","3","10759","0.0-3.0","559ef308fdf99b2616ff2a4f","64dbbfbd39c0fc92dcdd5e26","","","","","6311",""," ","key"," ","16.66632981530343","960","250","","","","","","",""
"","psychophysics","4","14497","0.0-4.0","559ef308fdf99b2616ff2a4f","64dbbfbd39c0fc92dcdd5e26","","","","","3730",""," ","key"," ","16.66858035714286","500","250","inst","","","","","",""
"","psychophysics","5","16953","0.0-5.0","559ef308fdf99b2616ff2a4f","64dbbfbd39c0fc92dcdd5e26","","","","","2454",""," ","key"," ","16.669787671232868","500","250","sample0","","","","","",""
"","psychophysics","6","19802","0.0-6.0","559ef308fdf99b2616ff2a4f","64dbbfbd39c0fc92dcdd5e26","","","","","2847",""," ","key"," ","16.667635294117666","500","250","sample1","","","","","",""
"","psychophysics","7","32132","0.0-7.0","559ef308fdf99b2616ff2a4f","64dbbfbd39c0fc92dcdd5e26","","","","","12328",""," ","key"," ","16.69053116531165","500","250","sample2","100","","","","",""
"","psychophysics","8","36106","0.0-8.0","559ef308fdf99b2616ff2a4f","64dbbfbd39c0fc92dcdd5e26","","","","","3971",""," ","key"," ","16.667586497890298","500","250","sample3","150","","","","",""
"","psychophysics","9","47714","0.0-9.0","559ef308fdf99b2616ff2a4f","64dbbfbd39c0fc92dcdd5e26","","","","","11606",""," ","key"," ","16.66763649425288","500","250","sample4","102","","","","",""
"","psychophysics","10","56598","0.0-10.0","559ef308fdf99b2616ff2a4f","64dbbfbd39c0fc92dcdd5e26","","","","","8881",""," ","key"," ","16.666731203007522","500","250","sample5","","","","","",""
"","psychophysics","11","65742","0.0-11.0","559ef308fdf99b2616ff2a4f","64dbbfbd39c0fc92dcdd5e26","","","","","9142",""," ","key"," ","16.668491773308947","500","250","sample6","500","","","","",""
"","psychophysics","12","71209","0.0-12.0","559ef308fdf99b2616ff2a4f","64dbbfbd39c0fc92dcdd5e26","","","","","5465",""," ","key"," ","16.667608562691147","500","250","inst","","","","","",""
"","psychophysics","13","73568","0.0-13.0","559ef308fdf99b2616ff2a4f","64dbbfbd39c0fc92dcdd5e26","","","","","2358",""," ","key"," ","16.789249999999967","500","250","inst","","","","","",""
"","psychophysics","14","77963","0.0-14.0","559ef308fdf99b2616ff2a4f","64dbbfbd39c0fc92dcdd5e26","","","","","4394",""," ","key"," ","16.6676030534351","500","250","inst","","","","","",""
"","psychophysics","15","80958","0.0-15.0","559ef308fdf99b2616ff2a4f","64dbbfbd39c0fc92dcdd5e26","","","","","2991",""," ","key"," ","16.66750279329605","500","250","inst","","","","","",""
"","psychophysics","16","82292","0.0-16.0","559ef308fdf99b2616ff2a4f","64dbbfbd39c0fc92dcdd5e26","","","","","1332",""," ","key"," ","16.671101265822692","500","250","inst","","","","","",""
"","psychophysics","17","84254","0.0-17.0","559ef308fdf99b2616ff2a4f","64dbbfbd39c0fc92dcdd5e26","","","","","1960",""," ","key"," ","16.67021367521362","500","250","instBr0","0","","0","0","0","300"
"","psychophysics","18","92541","0.0-18.0","559ef308fdf99b2616ff2a4f","64dbbfbd39c0fc92dcdd5e26","","","","","8284",""," ","key"," ","16.66713508064517","500","250","instBr1","-3","","0","0","-40","300"
"","psychophysics","19","101581","0.0-19.0","559ef308fdf99b2616ff2a4f","64dbbfbd39c0fc92dcdd5e26","","","","","9038",""," ","key"," ","16.667706099815142","500","250","instBr3","-14","1","0","0","40","300"
"","psychophysics","20","103195","0.0-20.0","559ef308fdf99b2616ff2a4f","64dbbfbd39c0fc92dcdd5e26","","","","","1613",""," ","key"," ","16.667500000000018","500","250","inst","","","","","",""
"","psychophysics","21","107260","0.0-21.0","559ef308fdf99b2616ff2a4f","64dbbfbd39c0fc92dcdd5e26","","","","","4061",""," ","key"," ","16.66764609053503","500","250","br","-8","1","-19","25","1","261"
"","psychophysics","22","111235","0.0-22.0","559ef308fdf99b2616ff2a4f","64dbbfbd39c0fc92dcdd5e26","","","","","3972",""," ","key"," ","16.669134453781457","500","250","br","-9","1","-2","-29","10","231"
"","psychophysics","23","113649","0.0-23.0","559ef308fdf99b2616ff2a4f","64dbbfbd39c0fc92dcdd5e26","","","","","2411",""," ","key"," ","16.670139860139873","500","250","br","-10","1","-12","-10","-8","265"
"","psychophysics","24","120807","0.0-24.0","559ef308fdf99b2616ff2a4f","64dbbfbd39c0fc92dcdd5e26","","","","","7155",""," ","key"," ","16.668573426573424","500","250","br","-8","1","-20","10","0","285"
"","psychophysics","25","126020","0.0-25.0","559ef308fdf99b2616ff2a4f","64dbbfbd39c0fc92dcdd5e26","","","","","5211",""," ","key"," ","16.668128205128223","500","250","br","-12","1","-8","15","-17","243"
"","psychophysics","26","130292","0.0-26.0","559ef308fdf99b2616ff2a4f","64dbbfbd39c0fc92dcdd5e26","","","","","4269",""," ","key"," ","16.732866141732345","500","250","br","-9","1","4","28","-26","206"
"","psychophysics","27","138029","0.0-27.0","559ef308fdf99b2616ff2a4f","64dbbfbd39c0fc92dcdd5e26","","","","","7735",""," ","key"," ","16.667241900647927","500","250","br","-10","1","17","2","17","217"
"","psychophysics","28","143371","0.0-28.0","559ef308fdf99b2616ff2a4f","64dbbfbd39c0fc92dcdd5e26","","","","","5339",""," ","key"," ","16.66881875000008","500","250","br","-14","1","10","-6","15","261"
"","psychophysics","29","147947","0.0-29.0","559ef308fdf99b2616ff2a4f","64dbbfbd39c0fc92dcdd5e26","","","","","4574",""," ","key"," ","16.66763003662995","500","250","br","-12","1","5","-14","30","261"
"","psychophysics","30","152141","0.0-30.0","559ef308fdf99b2616ff2a4f","64dbbfbd39c0fc92dcdd5e26","","","","","4191",""," ","key"," ","16.667685258964173","500","250","br","-15","1","26","25","-8","288"
"","psychophysics","31","154840","0.0-31.0","559ef308fdf99b2616ff2a4f","64dbbfbd39c0fc92dcdd5e26","","","","","2697",""," ","key"," ","16.667881987577697","500","250","br","-17","1","15","29","-28","242"
"","psychophysics","32","158607","0.0-32.0","559ef308fdf99b2616ff2a4f","64dbbfbd39c0fc92dcdd5e26","","","","","3764",""," ","key"," ","16.6687866666666","500","250","br","-6","1","12","17","29","300"
"","psychophysics","33","162577","0.0-33.0","559ef308fdf99b2616ff2a4f","64dbbfbd39c0fc92dcdd5e26","","","","","3968",""," ","key"," ","16.66957383966238","500","250","br","-7","1","-17","29","5","229"
"","psychophysics","34","169160","0.0-34.0","559ef308fdf99b2616ff2a4f","64dbbfbd39c0fc92dcdd5e26","","","","","6580",""," ","key"," ","16.66806091370562","500","250","br","-10","1","27","-6","15","236"
"","psychophysics","35","175132","0.0-35.0","559ef308fdf99b2616ff2a4f","64dbbfbd39c0fc92dcdd5e26","","","","","5969",""," ","key"," ","16.71533426966296","500","250","br","-15","1","-13","8","-14","248"
"","psychophysics","36","180222","0.0-36.0","559ef308fdf99b2616ff2a4f","64dbbfbd39c0fc92dcdd5e26","","","","","5089",""," ","key"," ","16.666786885245887","500","250","inst","","","","","",""
"","psychophysics","37","182488","0.0-37.0","559ef308fdf99b2616ff2a4f","64dbbfbd39c0fc92dcdd5e26","","","","","2264",""," ","key"," ","16.67089629629627","500","250","instPzPre","50","0","","","50","50"
"","psychophysics","38","185257","0.0-38.0","559ef308fdf99b2616ff2a4f","64dbbfbd39c0fc92dcdd5e26","","","","","2767",""," ","key"," ","16.666721212121335","500","250","instPz0","50","1","","","50","50"
"","psychophysics","39","194330","0.0-39.0","559ef308fdf99b2616ff2a4f","64dbbfbd39c0fc92dcdd5e26","","","","","9070",""," ","key"," ","16.667528545119747","500","250","instPz1","49","1","","","25","50"
"","psychophysics","40","202316","0.0-40.0","559ef308fdf99b2616ff2a4f","64dbbfbd39c0fc92dcdd5e26","","","","","7984",""," ","key"," ","16.667504184100377","500","250","instPz2","20","1","","","35","20"
"","psychophysics","41","211813","0.0-41.0","559ef308fdf99b2616ff2a4f","64dbbfbd39c0fc92dcdd5e26","","","","","9492",""," ","key"," ","16.66795254833041","500","250","instPz3","100","1","","","100","30"
"","psychophysics","42","219670","0.0-42.0","559ef308fdf99b2616ff2a4f","64dbbfbd39c0fc92dcdd5e26","","","","","7855",""," ","key"," ","16.66702765957446","500","250","instPz4","33","1","","","100","30"
"","psychophysics","43","221493","0.0-43.0","559ef308fdf99b2616ff2a4f","64dbbfbd39c0fc92dcdd5e26","","","","","1822",""," ","key"," ","16.667908256880963","500","250","inst","","","","","",""
"","psychophysics","44","227810","0.0-44.0","559ef308fdf99b2616ff2a4f","64dbbfbd39c0fc92dcdd5e26","","","","","6314",""," ","key"," ","16.66735714285714","500","250","pz","35","1","","","48","26"
"","psychophysics","45","234913","0.0-45.0","559ef308fdf99b2616ff2a4f","64dbbfbd39c0fc92dcdd5e26","","","","","7099",""," ","key"," ","16.708181603773586","500","250","pz","59","1","","","51","50"
"","psychophysics","46","241758","0.0-46.0","559ef308fdf99b2616ff2a4f","64dbbfbd39c0fc92dcdd5e26","","","","","6842",""," ","key"," ","16.667229268292644","500","250","pz","48","1","","","30","45"
"","psychophysics","47","249762","0.0-47.0","559ef308fdf99b2616ff2a4f","64dbbfbd39c0fc92dcdd5e26","","","","","null","","null","key","null","16.737492662473823","500","250","pz","31","1","","","56","30"
"","psychophysics","48","250074","0.0-48.0","559ef308fdf99b2616ff2a4f","64dbbfbd39c0fc92dcdd5e26","","","","","310",""," ","key"," ","16.66638888888863","500","250","pz","35","1","","","35","23"
"","psychophysics","49","258077","0.0-49.0","559ef308fdf99b2616ff2a4f","64dbbfbd39c0fc92dcdd5e26","","","","","null","","null","key","null","16.667377870563673","500","250","pz","25","1","","","60","22"
"","psychophysics","50","263703","0.0-50.0","559ef308fdf99b2616ff2a4f","64dbbfbd39c0fc92dcdd5e26","","","","","5624",""," ","key"," ","16.667610119047648","500","250","pz","62","1","","","27","55"
"","psychophysics","51","266503","0.0-51.0","559ef308fdf99b2616ff2a4f","64dbbfbd39c0fc92dcdd5e26","","","","","2797",""," ","key"," ","16.669215568862395","500","250","pz","40","1","","","39","38"
"","psychophysics","52","272196","0.0-52.0","559ef308fdf99b2616ff2a4f","64dbbfbd39c0fc92dcdd5e26","","","","","5691",""," ","key"," ","16.667413489736038","500","250","pz","54","1","","","20","55"
"","psychophysics","53","278032","0.0-53.0","559ef308fdf99b2616ff2a4f","64dbbfbd39c0fc92dcdd5e26","","","","","5833",""," ","key"," ","16.667621776504298","500","250","pz","25","1","","","37","21"
"","psychophysics","54","281316","0.0-54.0","559ef308fdf99b2616ff2a4f","64dbbfbd39c0fc92dcdd5e26","","","","","3281",""," ","key"," ","16.667530612244654","500","250","pz","25","1","","","38","20"
"","psychophysics","55","286953","0.0-55.0","559ef308fdf99b2616ff2a4f","64dbbfbd39c0fc92dcdd5e26","","","","","5635",""," ","key"," ","16.667376854599286","500","250","pz","37","1","","","50","32"
"","psychophysics","56","290936","0.0-56.0","559ef308fdf99b2616ff2a4f","64dbbfbd39c0fc92dcdd5e26","","","","","3981",""," ","key"," ","16.66734873949591","500","250","pz","52","1","","","26","48"
"","psychophysics","57","293496","0.0-57.0","559ef308fdf99b2616ff2a4f","64dbbfbd39c0fc92dcdd5e26","","","","","2557",""," ","key"," ","16.777322368420993","500","250","pz","30","1","","","31","25"
"","psychophysics","58","296945","0.0-58.0","559ef308fdf99b2616ff2a4f","64dbbfbd39c0fc92dcdd5e26","","","","","3447",""," ","key"," ","16.667402912621576","500","250","pz","41","1","","","37","40"
"","psychophysics","59","298149","0.0-59.0","559ef308fdf99b2616ff2a4f","64dbbfbd39c0fc92dcdd5e26","","","","","1202",""," ","key"," ","16.667732394365988","500","250","inst","","","","","",""
"","psychophysics","60","306528","0.0-60.0","559ef308fdf99b2616ff2a4f","64dbbfbd39c0fc92dcdd5e26","","","","","8377",""," ","key"," ","16.66822908366534","500","250","instPog0","340","2","0","0","370","340"
"","psychophysics","61","314190","0.0-61.0","559ef308fdf99b2616ff2a4f","64dbbfbd39c0fc92dcdd5e26","","","","","7661",""," ","key"," ","16.667672489082957","500","250","instPog1","354","2","0","0","370","340"
"","psychophysics","62","320252","0.0-62.0","559ef308fdf99b2616ff2a4f","64dbbfbd39c0fc92dcdd5e26","","","","","6060",""," ","key"," ","16.66745730027551","500","250","instPog2","332","2","0","0","340","340"
"","psychophysics","63","321350","0.0-63.0","559ef308fdf99b2616ff2a4f","64dbbfbd39c0fc92dcdd5e26","","","","","1097",""," ","key"," ","16.668430769230383","500","250","inst","","","","","",""
"","psychophysics","64","328552","0.0-64.0","559ef308fdf99b2616ff2a4f","64dbbfbd39c0fc92dcdd5e26","","","","","7199",""," ","key"," ","16.70618139534883","500","250","pog","288","2","0","0","352","302"
"","psychophysics","65","334205","0.0-65.0","559ef308fdf99b2616ff2a4f","64dbbfbd39c0fc92dcdd5e26","","","","","5651",""," ","key"," ","16.668928994082833","500","250","pog","319","2","0","0","371","331"
"","psychophysics","66","337045","0.0-66.0","559ef308fdf99b2616ff2a4f","64dbbfbd39c0fc92dcdd5e26","","","","","2838",""," ","key"," ","16.66873964497037","500","250","pog","326","2","0","0","334","344"
"","psychophysics","67","341423","0.0-67.0","559ef308fdf99b2616ff2a4f","64dbbfbd39c0fc92dcdd5e26","","","","","4375",""," ","key"," ","16.668106870228986","500","250","pog","289","2","0","0","319","303"
"","psychophysics","68","347346","0.0-68.0","559ef308fdf99b2616ff2a4f","64dbbfbd39c0fc92dcdd5e26","","","","","5921",""," ","key"," ","16.667498591549293","500","250","pog","296","2","0","0","354","311"
"","psychophysics","69","352715","0.0-69.0","559ef308fdf99b2616ff2a4f","64dbbfbd39c0fc92dcdd5e26","","","","","5366",""," ","key"," ","16.720781250000073","500","250","pog","297","2","0","0","337","325"
"","psychophysics","70","356399","0.0-70.0","559ef308fdf99b2616ff2a4f","64dbbfbd39c0fc92dcdd5e26","","","","","3682",""," ","key"," ","16.668145454545314","500","250","pog","330","2","0","0","372","350"
"","psychophysics","71","361517","0.0-71.0","559ef308fdf99b2616ff2a4f","64dbbfbd39c0fc92dcdd5e26","","","","","5116",""," ","key"," ","16.667764705882195","500","250","pog","306","2","0","0","352","324"
"","psychophysics","72","368122","0.0-72.0","559ef308fdf99b2616ff2a4f","64dbbfbd39c0fc92dcdd5e26","","","","","6603",""," ","key"," ","16.668389873417638","500","250","pog","348","2","0","0","386","372"
"","psychophysics","73","375206","0.0-73.0","559ef308fdf99b2616ff2a4f","64dbbfbd39c0fc92dcdd5e26","","","","","7082",""," ","key"," ","16.707548463356986","500","250","pog","310","2","0","0","380","343"
"","psychophysics","74","379652","0.0-74.0","559ef308fdf99b2616ff2a4f","64dbbfbd39c0fc92dcdd5e26","","","","","4444",""," ","key"," ","16.66808646616545","500","250","pog","277","2","0","0","317","307"
"","psychophysics","75","385574","0.0-75.0","559ef308fdf99b2616ff2a4f","64dbbfbd39c0fc92dcdd5e26","","","","","5920",""," ","key"," ","16.667720338982946","500","250","pog","295","2","0","0","359","317"
"","psychophysics","76","389381","0.0-76.0","559ef308fdf99b2616ff2a4f","64dbbfbd39c0fc92dcdd5e26","","","","","3806",""," ","key"," ","16.66847807017544","500","250","pog","349","2","0","0","351","363"
"","psychophysics","77","394576","0.0-77.0","559ef308fdf99b2616ff2a4f","64dbbfbd39c0fc92dcdd5e26","","","","","5193",""," ","key"," ","16.72094822006468","500","250","pog","294","2","0","0","292","319"
"","psychophysics","78","399629","0.0-78.0","559ef308fdf99b2616ff2a4f","64dbbfbd39c0fc92dcdd5e26","","","","","5051",""," ","key"," ","16.72313953488365","500","250","pog","313","2","0","0","299","344"
"","psychophysics","79","400872","0.0-79.0","559ef308fdf99b2616ff2a4f","64dbbfbd39c0fc92dcdd5e26","","","","","1239",""," ","key"," ","16.67285135135171","500","250","inst","","","","","",""
"","psychophysics","80","402625","0.0-80.0","559ef308fdf99b2616ff2a4f","64dbbfbd39c0fc92dcdd5e26","","","","","1751",""," ","key"," ","16.669586538461424","500","250","instZol0","0","","0","0","0",""
"","psychophysics","81","410732","0.0-81.0","559ef308fdf99b2616ff2a4f","64dbbfbd39c0fc92dcdd5e26","","","","","8105",""," ","key"," ","16.70182680412371","500","250","instZol1","-0.10000000000000003","","0","0","-1.3",""
"","psychophysics","82","424331","0.0-82.0","559ef308fdf99b2616ff2a4f","64dbbfbd39c0fc92dcdd5e26","","","","","13596",""," ","key"," ","16.667993857493897","500","250","instZol2","-2.6000000000000005","2","0","0","2",""
"","psychophysics","83","426984","0.0-83.0","559ef308fdf99b2616ff2a4f","64dbbfbd39c0fc92dcdd5e26","","","","","2650",""," ","key"," ","16.667534591195192","500","250","inst","","","","","",""
"","psychophysics","84","434988","0.0-84.0","559ef308fdf99b2616ff2a4f","64dbbfbd39c0fc92dcdd5e26","","","","","null","","null","key","null","16.702433054393378","500","250","zol","-1.4400000000000006","2","21","-23","-0.36",""
"","psychophysics","85","439004","0.0-85.0","559ef308fdf99b2616ff2a4f","64dbbfbd39c0fc92dcdd5e26","","","","","4012",""," ","key"," ","16.670391666666546","500","250","zol","-0.6899999999999998","2","19","3","0.09",""
"","psychophysics","86","441430","0.0-86.0","559ef308fdf99b2616ff2a4f","64dbbfbd39c0fc92dcdd5e26","","","","","2422",""," ","key"," ","16.783895104895166","500","250","zol","-1.8400000000000007","2","23","12","-0.46",""
"","psychophysics","87","443524","0.0-87.0","559ef308fdf99b2616ff2a4f","64dbbfbd39c0fc92dcdd5e26","","","","","2088",""," ","key"," ","16.668112000000196","500","250","zol","-1.6400000000000006","2","7","14","-0.46",""
"","psychophysics","88","447244","0.0-88.0","559ef308fdf99b2616ff2a4f","64dbbfbd39c0fc92dcdd5e26","","","","","3716",""," ","key"," ","16.666130630630605","500","250","zol","-1.8800000000000003","2","-4","5","0.18",""
"","psychophysics","89","451226","0.0-89.0","559ef308fdf99b2616ff2a4f","64dbbfbd39c0fc92dcdd5e26","","","","","3978",""," ","key"," ","16.73788185653995","500","250","zol","-1.7900000000000005","2","4","19","0.39",""
"","psychophysics","90","455155","0.0-90.0","559ef308fdf99b2616ff2a4f","64dbbfbd39c0fc92dcdd5e26","","","","","3926",""," ","key"," ","16.667297872340434","500","250","zol","-0.9299999999999999","2","-12","-6","0.53",""
"","psychophysics","91","458528","0.0-91.0","559ef308fdf99b2616ff2a4f","64dbbfbd39c0fc92dcdd5e26","","","","","3368",""," ","key"," ","16.66769651741291","500","250","zol","-1.9700000000000006","2","-29","10","0.47",""
"","psychophysics","92","462860","0.0-92.0","559ef308fdf99b2616ff2a4f","64dbbfbd39c0fc92dcdd5e26","","","","","4328",""," ","key"," ","16.66753667953665","500","250","zol","-0.8599999999999998","2","-2","-12","-0.64",""
"","psychophysics","93","467567","0.0-93.0","559ef308fdf99b2616ff2a4f","64dbbfbd39c0fc92dcdd5e26","","","","","4702",""," ","key"," ","16.667405693950066","500","250","zol","-1.2300000000000002","2","-27","-17","-0.57",""
"","psychophysics","94","475572","0.0-94.0","559ef308fdf99b2616ff2a4f","64dbbfbd39c0fc92dcdd5e26","","","","","null","","null","key","null","16.667766666666648","500","250","zol","-0.8400000000000001","2","-24","22","0.34",""
"","psychophysics","95","478817","0.0-95.0","559ef308fdf99b2616ff2a4f","64dbbfbd39c0fc92dcdd5e26","","","","","3240",""," ","key"," ","16.669103626942942","500","250","zol","-1.01","2","-27","-8","-0.59",""
"","psychophysics","96","481851","0.0-96.0","559ef308fdf99b2616ff2a4f","64dbbfbd39c0fc92dcdd5e26","","","","","3030",""," ","key"," ","16.760633333333278","500","250","zol","-1.9300000000000008","2","-21","-11","0.43",""
"","psychophysics","97","489855","0.0-97.0","559ef308fdf99b2616ff2a4f","64dbbfbd39c0fc92dcdd5e26","","","","","null","","null","key","null","16.667412499999894","500","250","zol","-1.04","2","3","-19","-0.36",""
"","psychophysics","98","490132","0.0-98.0","559ef308fdf99b2616ff2a4f","64dbbfbd39c0fc92dcdd5e26","","","","","273",""," ","key"," ","16.67473333333619","500","250","zol","-0.16","2","26","11","0.16",""
"","psychophysics","99","493121","0.0-99.0","559ef308fdf99b2616ff2a4f","64dbbfbd39c0fc92dcdd5e26","","","","","2987",""," ","key"," ","16.668502793296152","500","250","inst","","","","","",""
"","psychophysics","100","494519","0.0-100.0","559ef308fdf99b2616ff2a4f","64dbbfbd39c0fc92dcdd5e26","","","","","1396",""," ","key"," ","16.66817073170706","500","250","instEB0","40","","0","0","40","40"
"","psychophysics","101","501401","0.0-101.0","559ef308fdf99b2616ff2a4f","64dbbfbd39c0fc92dcdd5e26","","","","","6878",""," ","key"," ","16.667604368932075","500","250","instEB1","69","1","0","0","30","70"
"","psychophysics","102","507576","0.0-102.0","559ef308fdf99b2616ff2a4f","64dbbfbd39c0fc92dcdd5e26","","","","","6172",""," ","key"," ","16.896841095890434","500","250","instEB2","38","1","0","0","60","40"
"","psychophysics","103","516481","0.0-103.0","559ef308fdf99b2616ff2a4f","64dbbfbd39c0fc92dcdd5e26","","","","","8903",""," ","key"," ","16.667448405253282","500","250","instEB3","69","1","0","0","45","65"
"","psychophysics","104","520231","0.0-104.0","559ef308fdf99b2616ff2a4f","64dbbfbd39c0fc92dcdd5e26","","","","","3748",""," ","key"," ","16.667857142857297","500","250","instEB4","46","1","0","0","40","40"
"","psychophysics","105","521108","0.0-105.0","559ef308fdf99b2616ff2a4f","64dbbfbd39c0fc92dcdd5e26","","","","","875",""," ","key"," ","16.67490384615443","500","250","inst","","","","","",""
"","psychophysics","106","527994","0.0-106.0","559ef308fdf99b2616ff2a4f","64dbbfbd39c0fc92dcdd5e26","","","","","6883",""," ","key"," ","16.66782766990296","500","250","eb","41","1","0","0","51","34"
"","psychophysics","107","531465","0.0-107.0","559ef308fdf99b2616ff2a4f","64dbbfbd39c0fc92dcdd5e26","","","","","3467",""," ","key"," ","16.749674757281362","500","250","eb","30","1","0","0","50","25"
"","psychophysics","108","534525","0.0-108.0","559ef308fdf99b2616ff2a4f","64dbbfbd39c0fc92dcdd5e26","","","","","3057",""," ","key"," ","16.761549450549204","500","250","eb","46","1","0","0","43","40"
"","psychophysics","109","538732","0.0-109.0","559ef308fdf99b2616ff2a4f","64dbbfbd39c0fc92dcdd5e26","","","","","4205",""," ","key"," ","16.66867729083661","500","250","eb","55","1","0","0","54","51"
"","psychophysics","110","541345","0.0-110.0","559ef308fdf99b2616ff2a4f","64dbbfbd39c0fc92dcdd5e26","","","","","2610",""," ","key"," ","16.669692307691992","500","250","eb","37","1","0","0","48","33"
"","psychophysics","111","545972","0.0-111.0","559ef308fdf99b2616ff2a4f","64dbbfbd39c0fc92dcdd5e26","","","","","4624",""," ","key"," ","16.66785144927554","500","250","eb","45","1","0","0","52","41"
"","psychophysics","112","549206","0.0-112.0","559ef308fdf99b2616ff2a4f","64dbbfbd39c0fc92dcdd5e26","","","","","3230",""," ","key"," ","16.66606185567018","500","250","eb","28","1","0","0","46","24"
"","psychophysics","113","555414","0.0-113.0","559ef308fdf99b2616ff2a4f","64dbbfbd39c0fc92dcdd5e26","","","","","6206",""," ","key"," ","16.667792452830316","500","250","eb","52","1","0","0","39","45"
"","psychophysics","114","559219","0.0-114.0","559ef308fdf99b2616ff2a4f","64dbbfbd39c0fc92dcdd5e26","","","","","3802",""," ","key"," ","16.666321585903106","500","250","eb","44","1","0","0","41","41"
"","psychophysics","115","564880","0.0-115.0","559ef308fdf99b2616ff2a4f","64dbbfbd39c0fc92dcdd5e26","","","","","5655",""," ","key"," ","16.667566371681566","500","250","eb","41","1","0","0","49","33"
"","psychophysics","116","570611","0.0-116.0","559ef308fdf99b2616ff2a4f","64dbbfbd39c0fc92dcdd5e26","","","","","5729",""," ","key"," ","16.66755102040808","500","250","eb","34","1","0","0","24","26"
"","psychophysics","117","576484","0.0-117.0","559ef308fdf99b2616ff2a4f","64dbbfbd39c0fc92dcdd5e26","","","","","5870",""," ","key"," ","16.7154028571427","500","250","eb","35","1","0","0","28","32"
"","psychophysics","118","581502","0.0-118.0","559ef308fdf99b2616ff2a4f","64dbbfbd39c0fc92dcdd5e26","","","","","5015",""," ","key"," ","16.72539799331094","500","250","eb","54","1","0","0","32","48"
"","psychophysics","119","587174","0.0-119.0","559ef308fdf99b2616ff2a4f","64dbbfbd39c0fc92dcdd5e26","","","","","5668",""," ","key"," ","16.667544117647306","500","250","eb","42","1","0","0","31","35"
"","psychophysics","120","591672","0.0-120.0","559ef308fdf99b2616ff2a4f","64dbbfbd39c0fc92dcdd5e26","","","","","4496",""," ","key"," ","16.66965298507486","500","250","eb","52","1","0","0","32","49"
"","psychophysics","121","592517","0.0-121.0","559ef308fdf99b2616ff2a4f","64dbbfbd39c0fc92dcdd5e26","","","","","840",""," ","key"," ","16.667600000000093","500","250","inst","","","","","",""
"","psychophysics","122","602196","0.0-122.0","559ef308fdf99b2616ff2a4f","64dbbfbd39c0fc92dcdd5e26","","","","","9677",""," ","key"," ","16.667648275862128","500","250","instEB4","43","2","0","0","40","40"
"","psychophysics","123","603812","0.0-123.0","559ef308fdf99b2616ff2a4f","64dbbfbd39c0fc92dcdd5e26","","","","","1614",""," ","key"," ","16.663239583333052","500","250","inst","","","","","",""
"","psychophysics","124","609631","0.0-124.0","559ef308fdf99b2616ff2a4f","64dbbfbd39c0fc92dcdd5e26","","","","","5816",""," ","key"," ","16.668238505747187","500","250","eb","35","2","0","0","52","31"
"","psychophysics","125","613779","0.0-125.0","559ef308fdf99b2616ff2a4f","64dbbfbd39c0fc92dcdd5e26","","","","","4144",""," ","key"," ","16.667556451612917","500","250","eb","32","2","0","0","44","26"
"","psychophysics","126","616368","0.0-126.0","559ef308fdf99b2616ff2a4f","64dbbfbd39c0fc92dcdd5e26","","","","","2586",""," ","key"," ","16.66953246753176","500","250","eb","44","2","0","0","45","41"
"","psychophysics","127","622411","0.0-127.0","559ef308fdf99b2616ff2a4f","64dbbfbd39c0fc92dcdd5e26","","","","","6041",""," ","key"," ","16.667008287292642","500","250","eb","33","2","0","0","26","30"
"","psychophysics","128","626254","0.0-128.0","559ef308fdf99b2616ff2a4f","64dbbfbd39c0fc92dcdd5e26","","","","","3840",""," ","key"," ","16.667515283842942","500","250","eb","41","2","0","0","29","39"
"","psychophysics","129","630225","0.0-129.0","559ef308fdf99b2616ff2a4f","64dbbfbd39c0fc92dcdd5e26","","","","","3969",""," ","key"," ","16.66735021097051","500","250","eb","39","2","0","0","39","37"
"","psychophysics","130","636168","0.0-130.0","559ef308fdf99b2616ff2a4f","64dbbfbd39c0fc92dcdd5e26","","","","","5939",""," ","key"," ","16.71563098591549","500","250","eb","44","2","0","0","38","44"
"","psychophysics","131","641795","0.0-131.0","559ef308fdf99b2616ff2a4f","64dbbfbd39c0fc92dcdd5e26","","","","","5624",""," ","key"," ","16.667157270029833","500","250","eb","37","2","0","0","29","35"
"","psychophysics","132","645488","0.0-132.0","559ef308fdf99b2616ff2a4f","64dbbfbd39c0fc92dcdd5e26","","","","","3691",""," ","key"," ","16.668040909091097","500","250","eb","37","2","0","0","35","35"
"","psychophysics","133","653207","0.0-133.0","559ef308fdf99b2616ff2a4f","64dbbfbd39c0fc92dcdd5e26","","","","","7716",""," ","key"," ","16.66832251082254","500","250","eb","31","2","0","0","46","29"
"","psychophysics","134","659727","0.0-134.0","559ef308fdf99b2616ff2a4f","64dbbfbd39c0fc92dcdd5e26","","","","","6516",""," ","key"," ","16.711586118252004","500","250","eb","39","2","0","0","26","39"
"","psychophysics","135","666352","0.0-135.0","559ef308fdf99b2616ff2a4f","64dbbfbd39c0fc92dcdd5e26","","","","","6621",""," ","key"," ","16.667987405541542","500","250","eb","36","2","0","0","54","35"
"","psychophysics","136","673725","0.0-136.0","559ef308fdf99b2616ff2a4f","64dbbfbd39c0fc92dcdd5e26","","","","","7370",""," ","key"," ","16.667419501133907","500","250","eb","52","2","0","0","45","51"
"","psychophysics","137","680246","0.0-137.0","559ef308fdf99b2616ff2a4f","64dbbfbd39c0fc92dcdd5e26","","","","","6517",""," ","key"," ","16.66836317135539","500","250","eb","41","2","0","0","28","40"
"","psychophysics","138","686668","0.0-138.0","559ef308fdf99b2616ff2a4f","64dbbfbd39c0fc92dcdd5e26","","","","","6420",""," ","key"," ","16.668088541666595","500","250","eb","44","2","0","0","34","48"
"","psychophysics","139","687599","0.0-139.0","559ef308fdf99b2616ff2a4f","64dbbfbd39c0fc92dcdd5e26","","","","","930",""," ","key"," ","16.664509090910325","500","250","inst","","","","","",""
"","psychophysics","140","701501","0.0-140.0","559ef308fdf99b2616ff2a4f","64dbbfbd39c0fc92dcdd5e26","","","","","13900",""," ","key"," ","16.687281250000105","500","250","instPz1","45","2","","","25","50"
"","psychophysics","141","708092","0.0-141.0","559ef308fdf99b2616ff2a4f","64dbbfbd39c0fc92dcdd5e26","","","","","6589",""," ","key"," ","16.669484771573607","500","250","instPz2","32","2","","","20","35"
"","psychophysics","142","711975","0.0-142.0","559ef308fdf99b2616ff2a4f","64dbbfbd39c0fc92dcdd5e26","","","","","3880",""," ","key"," ","16.73974025974028","500","250","instPz3","30","2","","","30","100"
"","psychophysics","143","722496","0.0-143.0","559ef308fdf99b2616ff2a4f","64dbbfbd39c0fc92dcdd5e26","","","","","10518",""," ","key"," ","16.66750476190484","500","250","instPz4","79","2","","","30","100"
"","psychophysics","144","724801","0.0-144.0","559ef308fdf99b2616ff2a4f","64dbbfbd39c0fc92dcdd5e26","","","","","2301",""," ","key"," ","16.67109420289795","500","250","inst","","","","","",""
"","psychophysics","145","731434","0.0-145.0","559ef308fdf99b2616ff2a4f","64dbbfbd39c0fc92dcdd5e26","","","","","6631",""," ","key"," ","16.66761209068014","500","250","pz","31","2","","","20","35"
"","psychophysics","146","737048","0.0-146.0","559ef308fdf99b2616ff2a4f","64dbbfbd39c0fc92dcdd5e26","","","","","5611",""," ","key"," ","16.717444776119176","500","250","pz","24","2","","","59","27"
"","psychophysics","147","741032","0.0-147.0","559ef308fdf99b2616ff2a4f","64dbbfbd39c0fc92dcdd5e26","","","","","3981",""," ","key"," ","16.666323529412097","500","250","pz","38","2","","","37","41"
"","psychophysics","148","744724","0.0-148.0","559ef308fdf99b2616ff2a4f","64dbbfbd39c0fc92dcdd5e26","","","","","3689",""," ","key"," ","16.667777272727108","500","250","pz","34","2","","","35","36"
"","psychophysics","149","752726","0.0-149.0","559ef308fdf99b2616ff2a4f","64dbbfbd39c0fc92dcdd5e26","","","","","null","","null","key","null","16.66691858037584","500","250","pz","46","2","","","26","57"
"","psychophysics","150","753011","0.0-150.0","559ef308fdf99b2616ff2a4f","64dbbfbd39c0fc92dcdd5e26","","","","","283",""," ","key"," ","16.667937499994878","500","250","pz","47","2","","","47","22"
"","psychophysics","151","760646","0.0-151.0","559ef308fdf99b2616ff2a4f","64dbbfbd39c0fc92dcdd5e26","","","","","7632",""," ","key"," ","16.667557986870946","500","250","pz","42","2","","","25","57"
"","psychophysics","152","763722","0.0-152.0","559ef308fdf99b2616ff2a4f","64dbbfbd39c0fc92dcdd5e26","","","","","3071",""," ","key"," ","16.667782608696143","500","250","pz","20","2","","","53","24"
"","psychophysics","153","768687","0.0-153.0","559ef308fdf99b2616ff2a4f","64dbbfbd39c0fc92dcdd5e26","","","","","4963",""," ","key"," ","16.66749831649862","500","250","pz","31","2","","","59","41"
"","psychophysics","154","772591","0.0-154.0","559ef308fdf99b2616ff2a4f","64dbbfbd39c0fc92dcdd5e26","","","","","3902",""," ","key"," ","16.668776824034136","500","250","pz","46","2","","","33","53"
"","psychophysics","155","775017","0.0-155.0","559ef308fdf99b2616ff2a4f","64dbbfbd39c0fc92dcdd5e26","","","","","2423",""," ","key"," ","16.670282758620633","500","250","pz","40","2","","","39","46"
"","psychophysics","156","781238","0.0-156.0","559ef308fdf99b2616ff2a4f","64dbbfbd39c0fc92dcdd5e26","","","","","6219",""," ","key"," ","16.66785483870947","500","250","pz","48","2","","","23","56"
"","psychophysics","157","783804","0.0-157.0","559ef308fdf99b2616ff2a4f","64dbbfbd39c0fc92dcdd5e26","","","","","2563",""," ","key"," ","16.666274509803557","500","250","pz","55","2","","","54","60"
"","psychophysics","158","788375","0.0-158.0","559ef308fdf99b2616ff2a4f","64dbbfbd39c0fc92dcdd5e26","","","","","4569",""," ","key"," ","16.667512820512925","500","250","pz","27","2","","","38","29"
"","psychophysics","159","795208","0.0-159.0","559ef308fdf99b2616ff2a4f","64dbbfbd39c0fc92dcdd5e26","","","","","6831",""," ","key"," ","16.749130221130383","500","250","pz","41","2","","","50","49"
"","psychophysics","160","796347","0.0-160.0","559ef308fdf99b2616ff2a4f","64dbbfbd39c0fc92dcdd5e26","","","","","1138",""," ","key"," ","16.66726865671547","500","250","inst","","","","","",""
"","psychophysics","161","801642","0.0-161.0","559ef308fdf99b2616ff2a4f","64dbbfbd39c0fc92dcdd5e26","","","","","5293",""," ","key"," ","16.668378548896047","500","250","instZol1","2.7755575615628914e-17","","0","0","-1.3",""
"","psychophysics","162","822217","0.0-162.0","559ef308fdf99b2616ff2a4f","64dbbfbd39c0fc92dcdd5e26","","","","","20572",""," ","key"," ","16.66797485806976","500","250","instZol2","2.2000000000000015","1","0","0","2",""
"","psychophysics","163","824278","0.0-163.0","559ef308fdf99b2616ff2a4f","64dbbfbd39c0fc92dcdd5e26","","","","","2058",""," ","key"," ","16.66828455284571","500","250","inst","","","","","",""
"","psychophysics","164","832281","0.0-164.0","559ef308fdf99b2616ff2a4f","64dbbfbd39c0fc92dcdd5e26","","","","","null","","null","key","null","16.701993723849526","500","250","zol","0.9899999999999999","1","-28","8","0.21",""
"","psychophysics","165","835980","0.0-165.0","559ef308fdf99b2616ff2a4f","64dbbfbd39c0fc92dcdd5e26","","","","","3695",""," ","key"," ","16.74344999999951","500","250","zol","1.2300000000000002","1","-30","-27","-0.43",""
"","psychophysics","166","843045","0.0-166.0","559ef308fdf99b2616ff2a4f","64dbbfbd39c0fc92dcdd5e26","","","","","7062",""," ","key"," ","16.668108747044883","500","250","zol","2.2600000000000007","1","5","22","-0.26",""
"","psychophysics","167","850562","0.0-167.0","559ef308fdf99b2616ff2a4f","64dbbfbd39c0fc92dcdd5e26","","","","","7514",""," ","key"," ","16.667517777777846","500","250","zol","2.040000000000001","1","-21","-30","0.16",""
"","psychophysics","168","856273","0.0-168.0","559ef308fdf99b2616ff2a4f","64dbbfbd39c0fc92dcdd5e26","","","","","5707",""," ","key"," ","16.668038011696027","500","250","zol","1.8600000000000005","1","-21","-29","-0.16",""
"","psychophysics","169","859633","0.0-169.0","559ef308fdf99b2616ff2a4f","64dbbfbd39c0fc92dcdd5e26","","","","","3357",""," ","key"," ","16.667380000000122","500","250","zol","1.29","1","-16","-18","-0.29",""
"","psychophysics","170","864207","0.0-170.0","559ef308fdf99b2616ff2a4f","64dbbfbd39c0fc92dcdd5e26","","","","","4569",""," ","key"," ","16.667408759124072","500","250","zol","1.3800000000000001","1","12","-6","0.62",""
"","psychophysics","171","866773","0.0-171.0","559ef308fdf99b2616ff2a4f","64dbbfbd39c0fc92dcdd5e26","","","","","2562",""," ","key"," ","16.667555555555165","500","250","zol","2.0900000000000007","1","-3","3","-0.39",""
"","psychophysics","172","870671","0.0-172.0","559ef308fdf99b2616ff2a4f","64dbbfbd39c0fc92dcdd5e26","","","","","3895",""," ","key"," ","16.667519313304748","500","250","zol","2.240000000000001","1","13","-14","-0.74",""
"","psychophysics","173","874344","0.0-173.0","559ef308fdf99b2616ff2a4f","64dbbfbd39c0fc92dcdd5e26","","","","","3670",""," ","key"," ","16.666292237443212","500","250","zol","1.36","1","-13","16","-0.16",""
"","psychophysics","174","879579","0.0-174.0","559ef308fdf99b2616ff2a4f","64dbbfbd39c0fc92dcdd5e26","","","","","5233",""," ","key"," ","16.66779552715661","500","250","zol","1.5200000000000005","1","-20","7","-0.62",""
"","psychophysics","175","882755","0.0-175.0","559ef308fdf99b2616ff2a4f","64dbbfbd39c0fc92dcdd5e26","","","","","3172",""," ","key"," ","16.66743157894755","500","250","zol","1.9100000000000008","1","4","-21","-0.61",""
"","psychophysics","176","889790","0.0-176.0","559ef308fdf99b2616ff2a4f","64dbbfbd39c0fc92dcdd5e26","","","","","7030",""," ","key"," ","16.66693586698344","500","250","zol","1.4","1","-16","9","0.4",""
"","psychophysics","177","893294","0.0-177.0","559ef308fdf99b2616ff2a4f","64dbbfbd39c0fc92dcdd5e26","","","","","3501",""," ","key"," ","16.667540669856752","500","250","zol","1.4900000000000002","1","17","24","-0.39",""
"","psychophysics","178","894863","0.0-178.0","559ef308fdf99b2616ff2a4f","64dbbfbd39c0fc92dcdd5e26","","","","","1566",""," ","key"," ","16.66340860215101","500","250","zol","1.8900000000000006","1","24","14","-0.49",""
"","psychophysics","179","895694","0.0-179.0","559ef308fdf99b2616ff2a4f","64dbbfbd39c0fc92dcdd5e26","","","","","829",""," ","key"," ","16.675897959184987","500","250","inst","","","","","",""
"","psychophysics","180","902737","0.0-180.0","559ef308fdf99b2616ff2a4f","64dbbfbd39c0fc92dcdd5e26","","","","","7041",""," ","key"," ","16.668277909738652","500","250","instBr3","17","2","0","0","40","300"
"","psychophysics","181","903670","0.0-181.0","559ef308fdf99b2616ff2a4f","64dbbfbd39c0fc92dcdd5e26","","","","","930",""," ","key"," ","16.671527272727424","500","250","inst","","","","","",""
"","psychophysics","182","908558","0.0-182.0","559ef308fdf99b2616ff2a4f","64dbbfbd39c0fc92dcdd5e26","","","","","4883",""," ","key"," ","16.66775426621161","500","250","br","15","2","-4","27","26","211"
"","psychophysics","183","913557","0.0-183.0","559ef308fdf99b2616ff2a4f","64dbbfbd39c0fc92dcdd5e26","","","","","4997",""," ","key"," ","16.668418060200924","500","250","br","12","2","27","-27","-29","213"
"","psychophysics","184","916642","0.0-184.0","559ef308fdf99b2616ff2a4f","64dbbfbd39c0fc92dcdd5e26","","","","","3083",""," ","key"," ","16.66653804347848","500","250","br","15","2","20","-5","-25","227"
"","psychophysics","185","920391","0.0-185.0","559ef308fdf99b2616ff2a4f","64dbbfbd39c0fc92dcdd5e26","","","","","3746",""," ","key"," ","16.66848660714251","500","250","br","16","2","-2","-1","-15","291"
"","psychophysics","186","924179","0.0-186.0","559ef308fdf99b2616ff2a4f","64dbbfbd39c0fc92dcdd5e26","","","","","3786",""," ","key"," ","16.66990707964591","500","250","br","21","2","17","17","22","300"
"","psychophysics","187","927717","0.0-187.0","559ef308fdf99b2616ff2a4f","64dbbfbd39c0fc92dcdd5e26","","","","","3535",""," ","key"," ","16.66765402843602","500","250","br","14","2","-2","27","-21","241"
"","psychophysics","188","933020","0.0-188.0","559ef308fdf99b2616ff2a4f","64dbbfbd39c0fc92dcdd5e26","","","","","5301",""," ","key"," ","16.66756782334405","500","250","br","17","2","-20","12","-2","285"
"","psychophysics","189","939143","0.0-189.0","559ef308fdf99b2616ff2a4f","64dbbfbd39c0fc92dcdd5e26","","","","","6121",""," ","key"," ","16.668852861035536","500","250","br","18","2","-28","26","-14","287"
"","psychophysics","190","943814","0.0-190.0","559ef308fdf99b2616ff2a4f","64dbbfbd39c0fc92dcdd5e26","","","","","4669",""," ","key"," ","16.667874551971533","500","250","br","13","2","5","-18","-30","288"
"","psychophysics","191","950359","0.0-191.0","559ef308fdf99b2616ff2a4f","64dbbfbd39c0fc92dcdd5e26","","","","","6543",""," ","key"," ","16.66861224489801","500","250","br","20","2","-17","6","19","239"
"","psychophysics","192","955889","0.0-192.0","559ef308fdf99b2616ff2a4f","64dbbfbd39c0fc92dcdd5e26","","","","","5528",""," ","key"," ","16.667039393939106","500","250","br","13","2","7","12","-16","282"
"","psychophysics","193","960852","0.0-193.0","559ef308fdf99b2616ff2a4f","64dbbfbd39c0fc92dcdd5e26","","","","","4959",""," ","key"," ","16.668905723905848","500","250","br","15","2","12","27","-23","284"
"","psychophysics","194","963519","0.0-194.0","559ef308fdf99b2616ff2a4f","64dbbfbd39c0fc92dcdd5e26","","","","","2665",""," ","key"," ","16.66979874213777","500","250","br","10","2","22","27","10","261"
"","psychophysics","195","965235","0.0-195.0","559ef308fdf99b2616ff2a4f","64dbbfbd39c0fc92dcdd5e26","","","","","1714",""," ","key"," ","16.67044117647068","500","250","br","16","2","-20","-17","16","287"
"","psychophysics","196","970623","0.0-196.0","559ef308fdf99b2616ff2a4f","64dbbfbd39c0fc92dcdd5e26","","","","","5386",""," ","key"," ","16.668950310559012","500","250","br","12","2","-30","-12","-19","230"
"","psychophysics","197","971462","0.0-197.0","559ef308fdf99b2616ff2a4f","64dbbfbd39c0fc92dcdd5e26","","","","","837",""," ","key"," ","16.668800000001212","500","250","inst","","","","","",""
"","psychophysics","198","981578","0.0-198.0","559ef308fdf99b2616ff2a4f","64dbbfbd39c0fc92dcdd5e26","","","","","10114",""," ","key"," ","16.668397689768977","500","250","instPog0","160","1","0","0","190","160"
"","psychophysics","199","984629","0.0-199.0","559ef308fdf99b2616ff2a4f","64dbbfbd39c0fc92dcdd5e26","","","","","3050",""," ","key"," ","16.667560439560674","500","250","instPog1","168","1","0","0","190","160"
"","psychophysics","200","988253","0.0-200.0","559ef308fdf99b2616ff2a4f","64dbbfbd39c0fc92dcdd5e26","","","","","3622",""," ","key"," ","16.668541666666798","500","250","instPog2","174","1","0","0","160","160"
"","psychophysics","201","989807","0.0-201.0","559ef308fdf99b2616ff2a4f","64dbbfbd39c0fc92dcdd5e26","","","","","1552",""," ","key"," ","16.672173913043125","500","250","inst","","","","","",""
"","psychophysics","202","995144","0.0-202.0","559ef308fdf99b2616ff2a4f","64dbbfbd39c0fc92dcdd5e26","","","","","5335",""," ","key"," ","16.66909999999989","500","250","pog","187","1","0","0","107","172"
"","psychophysics","203","1000865","0.0-203.0","559ef308fdf99b2616ff2a4f","64dbbfbd39c0fc92dcdd5e26","","","","","5719",""," ","key"," ","16.66750584795291","500","250","pog","209","1","0","0","141","198"
"","psychophysics","204","1004386","0.0-204.0","559ef308fdf99b2616ff2a4f","64dbbfbd39c0fc92dcdd5e26","","","","","3518",""," ","key"," ","16.666538095238085","500","250","pog","160","1","0","0","156","150"
"","psychophysics","205","1011269","0.0-205.0","559ef308fdf99b2616ff2a4f","64dbbfbd39c0fc92dcdd5e26","","","","","6882",""," ","key"," ","16.707598540145923","500","250","pog","139","1","0","0","179","124"
"","psychophysics","206","1014763","0.0-206.0","559ef308fdf99b2616ff2a4f","64dbbfbd39c0fc92dcdd5e26","","","","","3492",""," ","key"," ","16.66844019138769","500","250","pog","200","1","0","0","172","181"
"","psychophysics","207","1019021","0.0-207.0","559ef308fdf99b2616ff2a4f","64dbbfbd39c0fc92dcdd5e26","","","","","4255",""," ","key"," ","16.66618503937012","500","250","pog","210","1","0","0","122","197"
"","psychophysics","208","1022622","0.0-208.0","559ef308fdf99b2616ff2a4f","64dbbfbd39c0fc92dcdd5e26","","","","","3600",""," ","key"," ","16.668474418604422","500","250","pog","183","1","0","0","169","170"
"","psychophysics","209","1027594","0.0-209.0","559ef308fdf99b2616ff2a4f","64dbbfbd39c0fc92dcdd5e26","","","","","4970",""," ","key"," ","16.668195286195377","500","250","pog","151","1","0","0","119","141"
"","psychophysics","210","1033569","0.0-210.0","559ef308fdf99b2616ff2a4f","64dbbfbd39c0fc92dcdd5e26","","","","","5972",""," ","key"," ","16.669039106145423","500","250","pog","138","1","0","0","194","123"
"","psychophysics","211","1036370","0.0-211.0","559ef308fdf99b2616ff2a4f","64dbbfbd39c0fc92dcdd5e26","","","","","2798",""," ","key"," ","16.6692874251494","500","250","pog","198","1","0","0","180","177"
"","psychophysics","212","1040586","0.0-212.0","559ef308fdf99b2616ff2a4f","64dbbfbd39c0fc92dcdd5e26","","","","","4215",""," ","key"," ","16.667488095237843","500","250","pog","187","1","0","0","127","172"
"","psychophysics","213","1045952","0.0-213.0","559ef308fdf99b2616ff2a4f","64dbbfbd39c0fc92dcdd5e26","","","","","5364",""," ","key"," ","16.667722741432772","500","250","pog","164","1","0","0","198","147"
"","psychophysics","214","1048091","0.0-214.0","559ef308fdf99b2616ff2a4f","64dbbfbd39c0fc92dcdd5e26","","","","","2137",""," ","key"," ","16.66762204724364","500","250","pog","142","1","0","0","166","130"
"","psychophysics","215","1051555","0.0-215.0","559ef308fdf99b2616ff2a4f","64dbbfbd39c0fc92dcdd5e26","","","","","3462",""," ","key"," ","16.66762318840624","500","250","pog","151","1","0","0","127","138"
"","psychophysics","216","1055784","0.0-216.0","559ef308fdf99b2616ff2a4f","64dbbfbd39c0fc92dcdd5e26","","","","","4227",""," ","key"," ","16.667577075098343","500","250","pog","203","1","0","0","185","196"
