"success","trial_type","trial_index","time_elapsed","internal_node_id","pid","sid","timeout","failed_images","failed_audio","failed_video","rt","stimulus","response","response_type","key_press","avg_frame_time","center_x","center_y","task","resp","start","version","jitterX","jitterY","parA"
"true","fullscreen","0","3708","0.0-0.0","58ac890076c5b70001662993","64dbc284911f3c7d19e1fd0f","","","","","","","","","","","","","","","","","","",""
"true","preload","1","3793","0.0-1.0","58ac890076c5b70001662993","64dbc284911f3c7d19e1fd0f","false","[]","[]","[]","","","","","","","","","","","","","","",""
"","html-button-response","2","5920","0.0-2.0","58ac890076c5b70001662993","64dbc284911f3c7d19e1fd0f","","","","","2126","Please Make Sure Your Audio Is On.","0","","","","","","","","","","","",""
"","psychophysics","3","13107","0.0-3.0","58ac890076c5b70001662993","64dbc284911f3c7d19e1fd0f","","","","","7184",""," ","key"," ","16.65260324825986","683","250","","","","","","",""
"","psychophysics","4","16480","0.0-4.0","58ac890076c5b70001662993","64dbc284911f3c7d19e1fd0f","","","","","3372",""," ","key"," ","16.6510495049505","500","250","inst","","","","","",""
"","psychophysics","5","22052","0.0-5.0","58ac890076c5b70001662993","64dbc284911f3c7d19e1fd0f","","","","","5571",""," ","key"," ","16.650251497005993","500","250","sample0","","","","","",""
"","psychophysics","6","24904","0.0-6.0","58ac890076c5b70001662993","64dbc284911f3c7d19e1fd0f","","","","","2851",""," ","key"," ","16.651758823529427","500","250","sample1","","","","","",""
"","psychophysics","7","37903","0.0-7.0","58ac890076c5b70001662993","64dbc284911f3c7d19e1fd0f","","","","","12998",""," ","key"," ","16.650930769230772","500","250","sample2","102","","","","",""
"","psychophysics","8","44902","0.0-8.0","58ac890076c5b70001662993","64dbc284911f3c7d19e1fd0f","","","","","6997",""," ","key"," ","16.649675417661097","500","250","sample3","102","","","","",""
"","psychophysics","9","58469","0.0-9.0","58ac890076c5b70001662993","64dbc284911f3c7d19e1fd0f","","","","","13568",""," ","key"," ","16.65042260442261","500","250","sample4","102","","","","",""
"","psychophysics","10","63934","0.0-10.0","58ac890076c5b70001662993","64dbc284911f3c7d19e1fd0f","","","","","5464",""," ","key"," ","16.650688073394498","500","250","sample5","","","","","",""
"","psychophysics","11","75134","0.0-11.0","58ac890076c5b70001662993","64dbc284911f3c7d19e1fd0f","","","","","11199",""," ","key"," ","16.65082291666666","500","250","sample6","500","","","","",""
"","psychophysics","12","80160","0.0-12.0","58ac890076c5b70001662993","64dbc284911f3c7d19e1fd0f","","","","","5024",""," ","key"," ","16.651000000000003","500","250","inst","","","","","",""
"","psychophysics","13","86330","0.0-13.0","58ac890076c5b70001662993","64dbc284911f3c7d19e1fd0f","","","","","6169",""," ","key"," ","16.650132791327888","500","250","inst","","","","","",""
"","psychophysics","14","90335","0.0-14.0","58ac890076c5b70001662993","64dbc284911f3c7d19e1fd0f","","","","","4004",""," ","key"," ","16.650537500000002","500","250","inst","","","","","",""
"","psychophysics","15","92307","0.0-15.0","58ac890076c5b70001662993","64dbc284911f3c7d19e1fd0f","","","","","1970",""," ","key"," ","16.651282051282028","500","250","inst","","","","","",""
"","psychophysics","16","94790","0.0-16.0","58ac890076c5b70001662993","64dbc284911f3c7d19e1fd0f","","","","","2483",""," ","key"," ","16.65196621621618","500","250","inst","","","","","",""
"","psychophysics","17","97876","0.0-17.0","58ac890076c5b70001662993","64dbc284911f3c7d19e1fd0f","","","","","3085",""," ","key"," ","16.650508108108095","500","250","instEB0","40","40","","0","0","40"
"","psychophysics","18","106145","0.0-18.0","58ac890076c5b70001662993","64dbc284911f3c7d19e1fd0f","","","","","8268",""," ","key"," ","16.650026262626277","500","250","instEB1","71","30","1","0","0","70"
"","psychophysics","19","117271","0.0-19.0","58ac890076c5b70001662993","64dbc284911f3c7d19e1fd0f","","","","","11124",""," ","key"," ","16.650976011993983","500","250","instEB2","47","60","1","0","0","40"
"","psychophysics","20","133976","0.0-20.0","58ac890076c5b70001662993","64dbc284911f3c7d19e1fd0f","","","","","16704",""," ","key"," ","16.650378863409774","500","250","instEB3","68","45","1","0","0","65"
"","psychophysics","21","145823","0.0-21.0","58ac890076c5b70001662993","64dbc284911f3c7d19e1fd0f","","","","","11846",""," ","key"," ","16.65011830985916","500","250","instEB4","46","40","1","0","0","40"
"","psychophysics","22","148724","0.0-22.0","58ac890076c5b70001662993","64dbc284911f3c7d19e1fd0f","","","","","2900",""," ","key"," ","16.650161849710997","500","250","inst","","","","","",""
"","psychophysics","23","156539","0.0-23.0","58ac890076c5b70001662993","64dbc284911f3c7d19e1fd0f","","","","","7813",""," ","key"," ","16.650266524520205","500","250","eb","49","39","1","0","0","39"
"","psychophysics","24","161029","0.0-24.0","58ac890076c5b70001662993","64dbc284911f3c7d19e1fd0f","","","","","4489",""," ","key"," ","16.650026119402966","500","250","eb","43","36","1","0","0","36"
"","psychophysics","25","166337","0.0-25.0","58ac890076c5b70001662993","64dbc284911f3c7d19e1fd0f","","","","","5306",""," ","key"," ","16.650465408805026","500","250","eb","53","38","1","0","0","47"
"","psychophysics","26","170640","0.0-26.0","58ac890076c5b70001662993","64dbc284911f3c7d19e1fd0f","","","","","4301",""," ","key"," ","16.651441860465173","500","250","eb","59","25","1","0","0","54"
"","psychophysics","27","175359","0.0-27.0","58ac890076c5b70001662993","64dbc284911f3c7d19e1fd0f","","","","","4718",""," ","key"," ","16.650581560283715","500","250","eb","45","34","1","0","0","43"
"","psychophysics","28","180277","0.0-28.0","58ac890076c5b70001662993","64dbc284911f3c7d19e1fd0f","","","","","4916",""," ","key"," ","16.651333333333326","500","250","eb","37","31","1","0","0","33"
"","psychophysics","29","183909","0.0-29.0","58ac890076c5b70001662993","64dbc284911f3c7d19e1fd0f","","","","","3628",""," ","key"," ","16.651169724770583","500","250","eb","59","54","1","0","0","52"
"","psychophysics","30","189652","0.0-30.0","58ac890076c5b70001662993","64dbc284911f3c7d19e1fd0f","","","","","5740",""," ","key"," ","16.65058017492713","500","250","eb","54","33","1","0","0","48"
"","psychophysics","31","197213","0.0-31.0","58ac890076c5b70001662993","64dbc284911f3c7d19e1fd0f","","","","","7558",""," ","key"," ","16.650275330396425","500","250","eb","36","44","1","0","0","31"
"","psychophysics","32","201853","0.0-32.0","58ac890076c5b70001662993","64dbc284911f3c7d19e1fd0f","","","","","4638",""," ","key"," ","16.650768953068614","500","250","eb","53","48","1","0","0","50"
"","psychophysics","33","209854","0.0-33.0","58ac890076c5b70001662993","64dbc284911f3c7d19e1fd0f","","","","","null","","null","key","null","16.650454166666652","500","250","eb","55","31","1","0","0","50"
"","psychophysics","34","216645","0.0-34.0","58ac890076c5b70001662993","64dbc284911f3c7d19e1fd0f","","","","","6789",""," ","key"," ","16.650461916461875","500","250","eb","47","25","1","0","0","42"
"","psychophysics","35","220120","0.0-35.0","58ac890076c5b70001662993","64dbc284911f3c7d19e1fd0f","","","","","3473",""," ","key"," ","16.65034782608697","500","250","eb","57","31","1","0","0","52"
"","psychophysics","36","223592","0.0-36.0","58ac890076c5b70001662993","64dbc284911f3c7d19e1fd0f","","","","","3471",""," ","key"," ","16.65058173076921","500","250","eb","54","42","1","0","0","48"
"","psychophysics","37","228854","0.0-37.0","58ac890076c5b70001662993","64dbc284911f3c7d19e1fd0f","","","","","5261",""," ","key"," ","16.651266666666682","500","250","eb","34","25","1","0","0","32"
"","psychophysics","38","232394","0.0-38.0","58ac890076c5b70001662993","64dbc284911f3c7d19e1fd0f","","","","","3539",""," ","key"," ","16.650655660377282","500","250","inst","","","","","",""
"","psychophysics","39","235006","0.0-39.0","58ac890076c5b70001662993","64dbc284911f3c7d19e1fd0f","","","","","2609",""," ","key"," ","16.651851612903297","500","250","instPzPre","50","50","0","","","50"
"","psychophysics","40","238625","0.0-40.0","58ac890076c5b70001662993","64dbc284911f3c7d19e1fd0f","","","","","3618",""," ","key"," ","16.65194470046087","500","250","instPz0","50","50","2","","","50"
"","psychophysics","41","247107","0.0-41.0","58ac890076c5b70001662993","64dbc284911f3c7d19e1fd0f","","","","","8481",""," ","key"," ","16.650822834645645","500","250","instPz1","38","25","2","","","50"
"","psychophysics","42","254553","0.0-42.0","58ac890076c5b70001662993","64dbc284911f3c7d19e1fd0f","","","","","7445",""," ","key"," ","16.65052466367711","500","250","instPz2","26","20","2","","","35"
"","psychophysics","43","264705","0.0-43.0","58ac890076c5b70001662993","64dbc284911f3c7d19e1fd0f","","","","","10146",""," ","key"," ","16.650311986863723","500","250","instPz3","30","30","2","","","100"
"","psychophysics","44","277674","0.0-44.0","58ac890076c5b70001662993","64dbc284911f3c7d19e1fd0f","","","","","12968",""," ","key"," ","16.65066966580972","500","250","instPz4","45","30","2","","","100"
"","psychophysics","45","279445","0.0-45.0","58ac890076c5b70001662993","64dbc284911f3c7d19e1fd0f","","","","","1769",""," ","key"," ","16.65111428571455","500","250","inst","","","","","",""
"","psychophysics","46","287448","0.0-46.0","58ac890076c5b70001662993","64dbc284911f3c7d19e1fd0f","","","","","null","","null","key","null","16.65051875000002","500","250","pz","23","43","2","","","44"
"","psychophysics","47","292992","0.0-47.0","58ac890076c5b70001662993","64dbc284911f3c7d19e1fd0f","","","","","5543",""," ","key"," ","16.6500451807229","500","250","pz","12","58","2","","","22"
"","psychophysics","48","296071","0.0-48.0","58ac890076c5b70001662993","64dbc284911f3c7d19e1fd0f","","","","","3079",""," ","key"," ","16.651733695652144","500","250","pz","21","20","2","","","54"
"","psychophysics","49","297465","0.0-49.0","58ac890076c5b70001662993","64dbc284911f3c7d19e1fd0f","","","","","1392",""," ","key"," ","16.65079518072293","500","250","pz","25","25","2","","","57"
"","psychophysics","50","305467","0.0-50.0","58ac890076c5b70001662993","64dbc284911f3c7d19e1fd0f","","","","","null","","null","key","null","16.64994363256792","500","250","pz","17","47","2","","","30"
"","psychophysics","51","305536","0.0-51.0","58ac890076c5b70001662993","64dbc284911f3c7d19e1fd0f","","","","","67",""," ","key"," ","16.640666666673496","500","250","pz","39","39","2","","","33"
"","psychophysics","52","309744","0.0-52.0","58ac890076c5b70001662993","64dbc284911f3c7d19e1fd0f","","","","","4206",""," ","key"," ","16.650670634920566","500","250","pz","16","59","2","","","25"
"","psychophysics","53","314688","0.0-53.0","58ac890076c5b70001662993","64dbc284911f3c7d19e1fd0f","","","","","4943",""," ","key"," ","16.650520270270285","500","250","pz","12","29","2","","","22"
"","psychophysics","54","318923","0.0-54.0","58ac890076c5b70001662993","64dbc284911f3c7d19e1fd0f","","","","","4234",""," ","key"," ","16.65106324110665","500","250","pz","26","54","2","","","54"
"","psychophysics","55","321764","0.0-55.0","58ac890076c5b70001662993","64dbc284911f3c7d19e1fd0f","","","","","2836",""," ","key"," ","16.65183529411785","500","250","pz","25","34","2","","","56"
"","psychophysics","56","326386","0.0-56.0","58ac890076c5b70001662993","64dbc284911f3c7d19e1fd0f","","","","","4620",""," ","key"," ","16.649346570397135","500","250","pz","25","38","2","","","55"
"","psychophysics","57","328518","0.0-57.0","58ac890076c5b70001662993","64dbc284911f3c7d19e1fd0f","","","","","2130",""," ","key"," ","16.651023622047187","500","250","pz","25","25","2","","","60"
"","psychophysics","58","336519","0.0-58.0","58ac890076c5b70001662993","64dbc284911f3c7d19e1fd0f","","","","","null","","null","key","null","16.650482254697298","500","250","pz","21","59","2","","","52"
"","psychophysics","59","336572","0.0-59.0","58ac890076c5b70001662993","64dbc284911f3c7d19e1fd0f","","","","","52",""," ","key"," ","16.63200000001234","500","250","pz","23","23","2","","","30"
"","psychophysics","60","340912","0.0-60.0","58ac890076c5b70001662993","64dbc284911f3c7d19e1fd0f","","","","","4339",""," ","key"," ","16.650592307692232","500","250","pz","24","21","2","","","57"
"","psychophysics","61","342224","0.0-61.0","58ac890076c5b70001662993","64dbc284911f3c7d19e1fd0f","","","","","1311",""," ","key"," ","16.64950000000028","500","250","inst","","","","","",""
"","psychophysics","62","354238","0.0-62.0","58ac890076c5b70001662993","64dbc284911f3c7d19e1fd0f","","","","","12012",""," ","key"," ","16.65049305555561","500","250","instPog0","160","190","1","0","0","160"
"","psychophysics","63","366631","0.0-63.0","58ac890076c5b70001662993","64dbc284911f3c7d19e1fd0f","","","","","12392",""," ","key"," ","16.650736559139844","500","250","instPog1","172","190","1","0","0","160"
"","psychophysics","64","374540","0.0-64.0","58ac890076c5b70001662993","64dbc284911f3c7d19e1fd0f","","","","","7908",""," ","key"," ","16.650483122362804","500","250","instPog2","180","160","1","0","0","160"
"","psychophysics","65","375445","0.0-65.0","58ac890076c5b70001662993","64dbc284911f3c7d19e1fd0f","","","","","904",""," ","key"," ","16.653433962263836","500","250","inst","","","","","",""
"","psychophysics","66","380467","0.0-66.0","58ac890076c5b70001662993","64dbc284911f3c7d19e1fd0f","","","","","5020",""," ","key"," ","16.649936877076392","500","250","pog","202","208","1","0","0","180"
"","psychophysics","67","386388","0.0-67.0","58ac890076c5b70001662993","64dbc284911f3c7d19e1fd0f","","","","","5920",""," ","key"," ","16.64920621468915","500","250","pog","221","135","1","0","0","193"
"","psychophysics","68","392366","0.0-68.0","58ac890076c5b70001662993","64dbc284911f3c7d19e1fd0f","","","","","5977",""," ","key"," ","16.650963687150792","500","250","pog","163","193","1","0","0","136"
"","psychophysics","69","394368","0.0-69.0","58ac890076c5b70001662993","64dbc284911f3c7d19e1fd0f","","","","","2001",""," ","key"," ","16.652613445378336","500","250","pog","201","201","1","0","0","179"
"","psychophysics","70","402370","0.0-70.0","58ac890076c5b70001662993","64dbc284911f3c7d19e1fd0f","","","","","null","","null","key","null","16.650072916666613","500","250","pog","195","135","1","0","0","171"
"","psychophysics","71","402523","0.0-71.0","58ac890076c5b70001662993","64dbc284911f3c7d19e1fd0f","","","","","151",""," ","key"," ","16.65725000000384","500","250","pog","218","218","1","0","0","197"
"","psychophysics","72","406420","0.0-72.0","58ac890076c5b70001662993","64dbc284911f3c7d19e1fd0f","","","","","3897",""," ","key"," ","16.650781115879756","500","250","pog","220","130","1","0","0","199"
"","psychophysics","73","411151","0.0-73.0","58ac890076c5b70001662993","64dbc284911f3c7d19e1fd0f","","","","","4730",""," ","key"," ","16.651148409894077","500","250","pog","153","121","1","0","0","142"
"","psychophysics","74","415313","0.0-74.0","58ac890076c5b70001662993","64dbc284911f3c7d19e1fd0f","","","","","4158",""," ","key"," ","16.65126506024088","500","250","pog","177","161","1","0","0","163"
"","psychophysics","75","421274","0.0-75.0","58ac890076c5b70001662993","64dbc284911f3c7d19e1fd0f","","","","","5957",""," ","key"," ","16.650495798319202","500","250","pog","139","127","1","0","0","124"
"","psychophysics","76","426645","0.0-76.0","58ac890076c5b70001662993","64dbc284911f3c7d19e1fd0f","","","","","5368",""," ","key"," ","16.65008074534162","500","250","pog","197","169","1","0","0","175"
"","psychophysics","77","432066","0.0-77.0","58ac890076c5b70001662993","64dbc284911f3c7d19e1fd0f","","","","","5420",""," ","key"," ","16.650756923077054","500","250","pog","206","152","1","0","0","179"
"","psychophysics","78","436947","0.0-78.0","58ac890076c5b70001662993","64dbc284911f3c7d19e1fd0f","","","","","4880",""," ","key"," ","16.65092465753407","500","250","pog","213","199","1","0","0","193"
"","psychophysics","79","444949","0.0-79.0","58ac890076c5b70001662993","64dbc284911f3c7d19e1fd0f","","","","","null","","null","key","null","16.82671940928268","500","250","pog","203","203","1","0","0","167"
"","psychophysics","80","451243","0.0-80.0","58ac890076c5b70001662993","64dbc284911f3c7d19e1fd0f","","","","","6292",""," ","key"," ","16.650549071618148","500","250","pog","203","145","1","0","0","175"
"","psychophysics","81","452596","0.0-81.0","58ac890076c5b70001662993","64dbc284911f3c7d19e1fd0f","","","","","1351",""," ","key"," ","16.651374999999824","500","250","inst","","","","","",""
"","psychophysics","82","462633","0.0-82.0","58ac890076c5b70001662993","64dbc284911f3c7d19e1fd0f","","","","","10035",""," ","key"," ","16.65027574750833","500","250","instZol0","0","0","","0","0",""
"","psychophysics","83","477397","0.0-83.0","58ac890076c5b70001662993","64dbc284911f3c7d19e1fd0f","","","","","14764",""," ","key"," ","16.650378103837458","500","250","instZol1","2.7755575615628914e-17","-1.3","","0","0",""
"","psychophysics","84","492166","0.0-84.0","58ac890076c5b70001662993","64dbc284911f3c7d19e1fd0f","","","","","14767",""," ","key"," ","16.650318284424348","500","250","instZol2","-1.4999999999999996","2","2","0","0",""
"","psychophysics","85","493319","0.0-85.0","58ac890076c5b70001662993","64dbc284911f3c7d19e1fd0f","","","","","1152",""," ","key"," ","16.65111764705901","500","250","inst","","","","","",""
"","psychophysics","86","500444","0.0-86.0","58ac890076c5b70001662993","64dbc284911f3c7d19e1fd0f","","","","","7122",""," ","key"," ","16.65140983606558","500","250","zol","-1.3200000000000003","0.22","2","16","-25",""
"","psychophysics","87","504981","0.0-87.0","58ac890076c5b70001662993","64dbc284911f3c7d19e1fd0f","","","","","4535",""," ","key"," ","16.651036764705864","500","250","zol","-1.4600000000000002","-0.14","2","-15","-9",""
"","psychophysics","88","512986","0.0-88.0","58ac890076c5b70001662993","64dbc284911f3c7d19e1fd0f","","","","","null","","null","key","null","16.650043841336085","500","250","zol","-0.08000000000000002","-0.02","2","20","16",""
"","psychophysics","89","520534","0.0-89.0","58ac890076c5b70001662993","64dbc284911f3c7d19e1fd0f","","","","","7545",""," ","key"," ","16.651059602648992","500","250","zol","-0.6499999999999999","-0.05","2","7","-17",""
"","psychophysics","90","528536","0.0-90.0","58ac890076c5b70001662993","64dbc284911f3c7d19e1fd0f","","","","","null","","null","key","null","16.64984968684746","500","250","zol","-1.01","-0.19","2","11","-24",""
"","psychophysics","91","536539","0.0-91.0","58ac890076c5b70001662993","64dbc284911f3c7d19e1fd0f","","","","","null","","null","key","null","16.650639583333152","500","250","zol","0.11000000000000004","0.29","2","0","-5",""
"","psychophysics","92","542436","0.0-92.0","58ac890076c5b70001662993","64dbc284911f3c7d19e1fd0f","","","","","5896",""," ","key"," ","16.650838526912302","500","250","zol","-0.8699999999999999","-0.23","2","-3","6",""
"","psychophysics","93","545134","0.0-93.0","58ac890076c5b70001662993","64dbc284911f3c7d19e1fd0f","","","","","2696",""," ","key"," ","16.650776397515674","500","250","zol","-0.7","0.7","2","-19","-17",""
"","psychophysics","94","552206","0.0-94.0","58ac890076c5b70001662993","64dbc284911f3c7d19e1fd0f","","","","","7070",""," ","key"," ","16.651259433962174","500","250","zol","-0.8499999999999999","0.55","2","21","16",""
"","psychophysics","95","560208","0.0-95.0","58ac890076c5b70001662993","64dbc284911f3c7d19e1fd0f","","","","","null","","null","key","null","16.684937369519997","500","250","zol","-1.27","-0.03","2","-23","-3",""
"","psychophysics","96","565159","0.0-96.0","58ac890076c5b70001662993","64dbc284911f3c7d19e1fd0f","","","","","4948",""," ","key"," ","16.6512364864863","500","250","zol","-1.7400000000000004","0.24","2","-16","-28",""
"","psychophysics","97","567939","0.0-97.0","58ac890076c5b70001662993","64dbc284911f3c7d19e1fd0f","","","","","2778",""," ","key"," ","16.65101204819259","500","250","zol","-0.9899999999999999","0.39","2","27","13",""
"","psychophysics","98","572572","0.0-98.0","58ac890076c5b70001662993","64dbc284911f3c7d19e1fd0f","","","","","4631",""," ","key"," ","16.650184115523555","500","250","zol","-1.8300000000000007","0.23","2","1","-29",""
"","psychophysics","99","579651","0.0-99.0","58ac890076c5b70001662993","64dbc284911f3c7d19e1fd0f","","","","","7077",""," ","key"," ","16.651764150943393","500","250","zol","-1.4800000000000002","-0.62","2","-17","17",""
"","psychophysics","100","585618","0.0-100.0","58ac890076c5b70001662993","64dbc284911f3c7d19e1fd0f","","","","","5959",""," ","key"," ","16.651078212290532","500","250","zol","-1.3400000000000003","-0.46","2","2","13",""
"","psychophysics","101","586867","0.0-101.0","58ac890076c5b70001662993","64dbc284911f3c7d19e1fd0f","","","","","1249",""," ","key"," ","16.646243243243834","500","250","inst","","","","","",""
"","psychophysics","102","588759","0.0-102.0","58ac890076c5b70001662993","64dbc284911f3c7d19e1fd0f","","","","","1888",""," ","key"," ","16.648607142856886","500","250","instBr0","0","0","","0","0","300"
"","psychophysics","103","599061","0.0-103.0","58ac890076c5b70001662993","64dbc284911f3c7d19e1fd0f","","","","","10301",""," ","key"," ","16.67734035656401","500","250","instBr1","-3","-40","","0","0","300"
"","psychophysics","104","605548","0.0-104.0","58ac890076c5b70001662993","64dbc284911f3c7d19e1fd0f","","","","","6485",""," ","key"," ","16.650758354755833","500","250","instBr3","25","40","2","0","0","300"
"","psychophysics","105","606433","0.0-105.0","58ac890076c5b70001662993","64dbc284911f3c7d19e1fd0f","","","","","883",""," ","key"," ","16.648365384614756","500","250","inst","","","","","",""
"","psychophysics","106","611798","0.0-106.0","58ac890076c5b70001662993","64dbc284911f3c7d19e1fd0f","","","","","5363",""," ","key"," ","16.65129906542032","500","250","br","21","15","2","-7","23","288"
"","psychophysics","107","617603","0.0-107.0","58ac890076c5b70001662993","64dbc284911f3c7d19e1fd0f","","","","","5803",""," ","key"," ","16.65079022988499","500","250","br","18","29","2","-27","30","276"
"","psychophysics","108","622918","0.0-108.0","58ac890076c5b70001662993","64dbc284911f3c7d19e1fd0f","","","","","5314",""," ","key"," ","16.651355345912112","500","250","br","17","9","2","-23","-18","204"
"","psychophysics","109","626628","0.0-109.0","58ac890076c5b70001662993","64dbc284911f3c7d19e1fd0f","","","","","3707",""," ","key"," ","16.649328828828622","500","250","br","19","25","2","-16","-2","242"
"","psychophysics","110","631112","0.0-110.0","58ac890076c5b70001662993","64dbc284911f3c7d19e1fd0f","","","","","4482",""," ","key"," ","16.64952985074635","500","250","br","14","-12","2","-22","-15","284"
"","psychophysics","111","634285","0.0-111.0","58ac890076c5b70001662993","64dbc284911f3c7d19e1fd0f","","","","","3171",""," ","key"," ","16.65034736842101","500","250","br","21","-2","2","-15","-16","265"
"","psychophysics","112","638370","0.0-112.0","58ac890076c5b70001662993","64dbc284911f3c7d19e1fd0f","","","","","4084",""," ","key"," ","16.65050409836065","500","250","br","21","12","2","21","-26","290"
"","psychophysics","113","641940","0.0-113.0","58ac890076c5b70001662993","64dbc284911f3c7d19e1fd0f","","","","","3568",""," ","key"," ","16.6496525821593","500","250","br","14","-27","2","9","26","275"
"","psychophysics","114","645582","0.0-114.0","58ac890076c5b70001662993","64dbc284911f3c7d19e1fd0f","","","","","3640",""," ","key"," ","16.6507018348624","500","250","br","15","-15","2","2","-13","255"
"","psychophysics","115","649750","0.0-115.0","58ac890076c5b70001662993","64dbc284911f3c7d19e1fd0f","","","","","4166",""," ","key"," ","16.650815261044002","500","250","br","14","11","2","-17","4","281"
"","psychophysics","116","653241","0.0-116.0","58ac890076c5b70001662993","64dbc284911f3c7d19e1fd0f","","","","","3487",""," ","key"," ","16.650784688995056","500","250","br","7","-8","2","9","-17","231"
"","psychophysics","117","657730","0.0-117.0","58ac890076c5b70001662993","64dbc284911f3c7d19e1fd0f","","","","","4486",""," ","key"," ","16.6501301115242","500","250","br","16","30","2","-11","24","229"
"","psychophysics","118","662525","0.0-118.0","58ac890076c5b70001662993","64dbc284911f3c7d19e1fd0f","","","","","4793",""," ","key"," ","16.64984320557493","500","250","br","10","6","2","16","13","227"
"","psychophysics","119","667446","0.0-119.0","58ac890076c5b70001662993","64dbc284911f3c7d19e1fd0f","","","","","4920",""," ","key"," ","16.651547619047793","500","250","br","15","-1","2","-17","26","223"
"","psychophysics","120","669863","0.0-120.0","58ac890076c5b70001662993","64dbc284911f3c7d19e1fd0f","","","","","2414",""," ","key"," ","16.65336111111133","500","250","br","18","17","2","28","-28","287"
"","psychophysics","121","670851","0.0-121.0","58ac890076c5b70001662993","64dbc284911f3c7d19e1fd0f","","","","","987",""," ","key"," ","16.652644067797493","500","250","inst","","","","","",""
"","psychophysics","122","683066","0.0-122.0","58ac890076c5b70001662993","64dbc284911f3c7d19e1fd0f","","","","","12213",""," ","key"," ","16.650744535519248","500","250","instEB4","51","40","2","0","0","40"
"","psychophysics","123","684089","0.0-123.0","58ac890076c5b70001662993","64dbc284911f3c7d19e1fd0f","","","","","1021",""," ","key"," ","16.65226229508102","500","250","inst","","","","","",""
"","psychophysics","124","687449","0.0-124.0","58ac890076c5b70001662993","64dbc284911f3c7d19e1fd0f","","","","","3358",""," ","key"," ","16.649824999999836","500","250","eb","49","41","2","0","0","45"
"","psychophysics","125","692262","0.0-125.0","58ac890076c5b70001662993","64dbc284911f3c7d19e1fd0f","","","","","4809",""," ","key"," ","16.650273356401396","500","250","eb","44","31","2","0","0","41"
"","psychophysics","126","699416","0.0-126.0","58ac890076c5b70001662993","64dbc284911f3c7d19e1fd0f","","","","","7152",""," ","key"," ","16.650764018691593","500","250","eb","36","49","2","0","0","32"
"","psychophysics","127","702806","0.0-127.0","58ac890076c5b70001662993","64dbc284911f3c7d19e1fd0f","","","","","3388",""," ","key"," ","16.6512216748773","500","250","eb","48","42","2","0","0","45"
"","psychophysics","128","707666","0.0-128.0","58ac890076c5b70001662993","64dbc284911f3c7d19e1fd0f","","","","","4857",""," ","key"," ","16.65116151202753","500","250","eb","28","38","2","0","0","26"
"","psychophysics","129","711583","0.0-129.0","58ac890076c5b70001662993","64dbc284911f3c7d19e1fd0f","","","","","3915",""," ","key"," ","16.65116239316228","500","250","eb","45","39","2","0","0","41"
"","psychophysics","130","715327","0.0-130.0","58ac890076c5b70001662993","64dbc284911f3c7d19e1fd0f","","","","","3741",""," ","key"," ","16.651129464285727","500","250","eb","44","41","2","0","0","36"
"","psychophysics","131","718281","0.0-131.0","58ac890076c5b70001662993","64dbc284911f3c7d19e1fd0f","","","","","2951",""," ","key"," ","16.650278409091037","500","250","eb","42","39","2","0","0","40"
"","psychophysics","132","724089","0.0-132.0","58ac890076c5b70001662993","64dbc284911f3c7d19e1fd0f","","","","","5805",""," ","key"," ","16.65089080459773","500","250","eb","50","37","2","0","0","43"
"","psychophysics","133","729022","0.0-133.0","58ac890076c5b70001662993","64dbc284911f3c7d19e1fd0f","","","","","4931",""," ","key"," ","16.65097288135597","500","250","eb","58","53","2","0","0","53"
"","psychophysics","134","732948","0.0-134.0","58ac890076c5b70001662993","64dbc284911f3c7d19e1fd0f","","","","","3920",""," ","key"," ","16.65059574468091","500","250","eb","25","24","2","0","0","24"
"","psychophysics","135","740210","0.0-135.0","58ac890076c5b70001662993","64dbc284911f3c7d19e1fd0f","","","","","7260",""," ","key"," ","16.65051494252884","500","250","eb","26","36","2","0","0","24"
"","psychophysics","136","745446","0.0-136.0","58ac890076c5b70001662993","64dbc284911f3c7d19e1fd0f","","","","","5231",""," ","key"," ","16.650499999999948","500","250","eb","46","24","2","0","0","39"
"","psychophysics","137","750047","0.0-137.0","58ac890076c5b70001662993","64dbc284911f3c7d19e1fd0f","","","","","4598",""," ","key"," ","16.649767272727647","500","250","eb","55","36","2","0","0","51"
"","psychophysics","138","753403","0.0-138.0","58ac890076c5b70001662993","64dbc284911f3c7d19e1fd0f","","","","","3354",""," ","key"," ","16.650904999999913","500","250","eb","53","44","2","0","0","43"
"","psychophysics","139","754590","0.0-139.0","58ac890076c5b70001662993","64dbc284911f3c7d19e1fd0f","","","","","1184",""," ","key"," ","16.651521126760997","500","250","inst","","","","","",""
"","psychophysics","140","761344","0.0-140.0","58ac890076c5b70001662993","64dbc284911f3c7d19e1fd0f","","","","","6751",""," ","key"," ","16.650391089108986","500","250","instBr3","-7","40","1","0","0","300"
"","psychophysics","141","762071","0.0-141.0","58ac890076c5b70001662993","64dbc284911f3c7d19e1fd0f","","","","","726",""," ","key"," ","16.65806976744234","500","250","inst","","","","","",""
"","psychophysics","142","765700","0.0-142.0","58ac890076c5b70001662993","64dbc284911f3c7d19e1fd0f","","","","","3628",""," ","key"," ","16.6519539170509","500","250","br","1","19","1","-16","-17","254"
"","psychophysics","143","768524","0.0-143.0","58ac890076c5b70001662993","64dbc284911f3c7d19e1fd0f","","","","","2822",""," ","key"," ","16.649994082840507","500","250","br","-10","5","1","-18","-10","236"
"","psychophysics","144","775638","0.0-144.0","58ac890076c5b70001662993","64dbc284911f3c7d19e1fd0f","","","","","7113",""," ","key"," ","16.649969483568047","500","250","br","-4","30","1","23","1","253"
"","psychophysics","145","780252","0.0-145.0","58ac890076c5b70001662993","64dbc284911f3c7d19e1fd0f","","","","","4612",""," ","key"," ","16.651601449275166","500","250","br","-3","16","1","-24","-27","278"
"","psychophysics","146","784572","0.0-146.0","58ac890076c5b70001662993","64dbc284911f3c7d19e1fd0f","","","","","4317",""," ","key"," ","16.651135658914793","500","250","br","-3","22","1","-3","-17","275"
"","psychophysics","147","790106","0.0-147.0","58ac890076c5b70001662993","64dbc284911f3c7d19e1fd0f","","","","","5531",""," ","key"," ","16.650192771084168","500","250","br","-8","29","1","20","13","270"
"","psychophysics","148","792659","0.0-148.0","58ac890076c5b70001662993","64dbc284911f3c7d19e1fd0f","","","","","2549",""," ","key"," ","16.651677631579286","500","250","br","-9","2","1","-14","18","286"
"","psychophysics","149","796604","0.0-149.0","58ac890076c5b70001662993","64dbc284911f3c7d19e1fd0f","","","","","3943",""," ","key"," ","16.65133050847473","500","250","br","-13","6","1","-5","8","260"
"","psychophysics","150","798786","0.0-150.0","58ac890076c5b70001662993","64dbc284911f3c7d19e1fd0f","","","","","2180",""," ","key"," ","16.651369230769788","500","250","br","-18","-18","1","-23","-15","297"
"","psychophysics","151","805340","0.0-151.0","58ac890076c5b70001662993","64dbc284911f3c7d19e1fd0f","","","","","6554",""," ","key"," ","16.650183206106863","500","250","br","-21","-30","1","-28","5","240"
"","psychophysics","152","811247","0.0-152.0","58ac890076c5b70001662993","64dbc284911f3c7d19e1fd0f","","","","","5904",""," ","key"," ","16.64974576271189","500","250","br","-11","-2","1","6","2","274"
"","psychophysics","153","815891","0.0-153.0","58ac890076c5b70001662993","64dbc284911f3c7d19e1fd0f","","","","","4641",""," ","key"," ","16.650075812274356","500","250","br","-12","28","1","-18","-13","267"
"","psychophysics","154","817639","0.0-154.0","58ac890076c5b70001662993","64dbc284911f3c7d19e1fd0f","","","","","1745",""," ","key"," ","16.653442307692156","500","250","br","-19","-19","1","-7","10","292"
"","psychophysics","155","821878","0.0-155.0","58ac890076c5b70001662993","64dbc284911f3c7d19e1fd0f","","","","","4235",""," ","key"," ","16.651570866142002","500","250","br","-12","3","1","22","10","204"
"","psychophysics","156","825292","0.0-156.0","58ac890076c5b70001662993","64dbc284911f3c7d19e1fd0f","","","","","3411",""," ","key"," ","16.650421568627387","500","250","br","-22","-22","1","15","26","234"
"","psychophysics","157","826235","0.0-157.0","58ac890076c5b70001662993","64dbc284911f3c7d19e1fd0f","","","","","942",""," ","key"," ","16.648963636363096","500","250","inst","","","","","",""
"","psychophysics","158","830588","0.0-158.0","58ac890076c5b70001662993","64dbc284911f3c7d19e1fd0f","","","","","4351",""," ","key"," ","16.650969348659192","500","250","instZol1","1.3","-1.3","","0","0",""
"","psychophysics","159","833063","0.0-159.0","58ac890076c5b70001662993","64dbc284911f3c7d19e1fd0f","","","","","2473",""," ","key"," ","16.65060135135128","500","250","instZol2","-2","2","1","0","0",""
"","psychophysics","160","835509","0.0-160.0","58ac890076c5b70001662993","64dbc284911f3c7d19e1fd0f","","","","","2443",""," ","key"," ","16.651321917808175","500","250","inst","","","","","",""
"","psychophysics","161","839669","0.0-161.0","58ac890076c5b70001662993","64dbc284911f3c7d19e1fd0f","","","","","4158",""," ","key"," ","16.650020161290623","500","250","zol","1.02","-0.32","1","-24","20",""
"","psychophysics","162","847262","0.0-162.0","58ac890076c5b70001662993","64dbc284911f3c7d19e1fd0f","","","","","7591",""," ","key"," ","16.650447368421162","500","250","zol","1.04","0.06","1","-17","-1",""
"","psychophysics","163","855265","0.0-163.0","58ac890076c5b70001662993","64dbc284911f3c7d19e1fd0f","","","","","null","","null","key","null","16.649711899791352","500","250","zol","1.02","0.38","1","-26","10",""
"","psychophysics","164","855370","0.0-164.0","58ac890076c5b70001662993","64dbc284911f3c7d19e1fd0f","","","","","103",""," ","key"," ","16.64816666666108","500","250","zol","0.15","-0.15","1","-6","18",""
"","psychophysics","165","861310","0.0-165.0","58ac890076c5b70001662993","64dbc284911f3c7d19e1fd0f","","","","","5938",""," ","key"," ","16.65040281690119","500","250","zol","1.28","0.32","1","10","12",""
"","psychophysics","166","869266","0.0-166.0","58ac890076c5b70001662993","64dbc284911f3c7d19e1fd0f","","","","","7955",""," ","key"," ","16.65038364779876","500","250","zol","0.91","-0.61","1","-24","7",""
"","psychophysics","167","874819","0.0-167.0","58ac890076c5b70001662993","64dbc284911f3c7d19e1fd0f","","","","","5552",""," ","key"," ","16.65065765765764","500","250","zol","0.8499999999999999","-0.45","1","-3","-4",""
"","psychophysics","168","881774","0.0-168.0","58ac890076c5b70001662993","64dbc284911f3c7d19e1fd0f","","","","","6951",""," ","key"," ","16.650716346153786","500","250","zol","1.2700000000000002","0.43","1","4","28",""
"","psychophysics","169","885894","0.0-169.0","58ac890076c5b70001662993","64dbc284911f3c7d19e1fd0f","","","","","4118",""," ","key"," ","16.651421052631395","500","250","zol","0.9799999999999999","-0.18","1","-24","19",""
"","psychophysics","170","891338","0.0-170.0","58ac890076c5b70001662993","64dbc284911f3c7d19e1fd0f","","","","","5442",""," ","key"," ","16.649665644171684","500","250","zol","1.4100000000000004","0.19","1","-30","25",""
"","psychophysics","171","899341","0.0-171.0","58ac890076c5b70001662993","64dbc284911f3c7d19e1fd0f","","","","","null","","null","key","null","16.649999999999952","500","250","zol","0.7300000000000001","-0.13","1","27","-29",""
"","psychophysics","172","899509","0.0-172.0","58ac890076c5b70001662993","64dbc284911f3c7d19e1fd0f","","","","","161",""," ","key"," ","16.641555555552866","500","250","zol","0.09","-0.09","1","-23","-25",""
"","psychophysics","173","905892","0.0-173.0","58ac890076c5b70001662993","64dbc284911f3c7d19e1fd0f","","","","","6381",""," ","key"," ","16.649994778067818","500","250","zol","1.02","-0.22","1","2","-19",""
"","psychophysics","174","912126","0.0-174.0","58ac890076c5b70001662993","64dbc284911f3c7d19e1fd0f","","","","","6233",""," ","key"," ","16.650286863270857","500","250","zol","1.4900000000000002","-0.69","1","6","26",""
"","psychophysics","175","914901","0.0-175.0","58ac890076c5b70001662993","64dbc284911f3c7d19e1fd0f","","","","","2773",""," ","key"," ","16.651704819276873","500","250","zol","1.2100000000000002","0.69","1","11","17",""
"","psychophysics","176","915839","0.0-176.0","58ac890076c5b70001662993","64dbc284911f3c7d19e1fd0f","","","","","937",""," ","key"," ","16.648963636363096","500","250","inst","","","","","",""
"","psychophysics","177","918013","0.0-177.0","58ac890076c5b70001662993","64dbc284911f3c7d19e1fd0f","","","","","2171",""," ","key"," ","16.654276923076786","500","250","instPz1","25","25","1","","","50"
"","psychophysics","178","918560","0.0-178.0","58ac890076c5b70001662993","64dbc284911f3c7d19e1fd0f","","","","","547",""," ","key"," ","16.660250000000815","500","250","instPz2","35","35","1","","","20"
"","psychophysics","179","921291","0.0-179.0","58ac890076c5b70001662993","64dbc284911f3c7d19e1fd0f","","","","","2727",""," ","key"," ","16.651153374233346","500","250","instPz3","100","100","1","","","30"
"","psychophysics","180","924435","0.0-180.0","58ac890076c5b70001662993","64dbc284911f3c7d19e1fd0f","","","","","3143",""," ","key"," ","16.649930481283484","500","250","instPz4","100","100","1","","","30"
"","psychophysics","181","925342","0.0-181.0","58ac890076c5b70001662993","64dbc284911f3c7d19e1fd0f","","","","","904",""," ","key"," ","16.648555555555504","500","250","inst","","","","","",""
"","psychophysics","182","933343","0.0-182.0","58ac890076c5b70001662993","64dbc284911f3c7d19e1fd0f","","","","","null","","null","key","null","16.65028749999983","500","250","pz","-6","20","1","","","20"
"","psychophysics","183","937656","0.0-183.0","58ac890076c5b70001662993","64dbc284911f3c7d19e1fd0f","","","","","4311",""," ","key"," ","16.650600775193727","500","250","pz","54","41","1","","","44"
"","psychophysics","184","938280","0.0-184.0","58ac890076c5b70001662993","64dbc284911f3c7d19e1fd0f","","","","","623",""," ","key"," ","16.647138888889458","500","250","pz","39","39","1","","","51"
"","psychophysics","185","939024","0.0-185.0","58ac890076c5b70001662993","64dbc284911f3c7d19e1fd0f","","","","","742",""," ","key"," ","16.653204545455413","500","250","pz","32","32","1","","","25"
"","psychophysics","186","944672","0.0-186.0","58ac890076c5b70001662993","64dbc284911f3c7d19e1fd0f","","","","","5646",""," ","key"," ","16.6506272189346","500","250","pz","78","28","1","","","29"
"","psychophysics","187","947859","0.0-187.0","58ac890076c5b70001662993","64dbc284911f3c7d19e1fd0f","","","","","3183",""," ","key"," ","16.65073157894719","500","250","pz","82","35","1","","","37"
"","psychophysics","188","952648","0.0-188.0","58ac890076c5b70001662993","64dbc284911f3c7d19e1fd0f","","","","","4784",""," ","key"," ","16.651156794425027","500","250","pz","103","24","1","","","45"
"","psychophysics","189","956048","0.0-189.0","58ac890076c5b70001662993","64dbc284911f3c7d19e1fd0f","","","","","3397",""," ","key"," ","16.650206896552145","500","250","pz","82","29","1","","","38"
"","psychophysics","190","960623","0.0-190.0","58ac890076c5b70001662993","64dbc284911f3c7d19e1fd0f","","","","","4574",""," ","key"," ","16.650978102189416","500","250","pz","82","30","1","","","37"
"","psychophysics","191","963723","0.0-191.0","58ac890076c5b70001662993","64dbc284911f3c7d19e1fd0f","","","","","3098",""," ","key"," ","16.651697297297368","500","250","pz","83","60","1","","","35"
"","psychophysics","192","967759","0.0-192.0","58ac890076c5b70001662993","64dbc284911f3c7d19e1fd0f","","","","","4034",""," ","key"," ","16.648962655601274","500","250","pz","69","43","1","","","31"
"","psychophysics","193","972335","0.0-193.0","58ac890076c5b70001662993","64dbc284911f3c7d19e1fd0f","","","","","4570",""," ","key"," ","16.65103284671544","500","250","pz","87","38","1","","","54"
"","psychophysics","194","976886","0.0-194.0","58ac890076c5b70001662993","64dbc284911f3c7d19e1fd0f","","","","","4549",""," ","key"," ","16.650670329670444","500","250","pz","52","21","1","","","32"
"","psychophysics","195","981103","0.0-195.0","58ac890076c5b70001662993","64dbc284911f3c7d19e1fd0f","","","","","4214",""," ","key"," ","16.649412698412707","500","250","pz","57","28","1","","","31"
"","psychophysics","196","985449","0.0-196.0","58ac890076c5b70001662993","64dbc284911f3c7d19e1fd0f","","","","","4345",""," ","key"," ","16.65018846153846","500","250","pz","97","51","1","","","60"
"","psychophysics","197","986718","0.0-197.0","58ac890076c5b70001662993","64dbc284911f3c7d19e1fd0f","","","","","1268",""," ","key"," ","16.65197333333393","500","250","inst","","","","","",""
"","psychophysics","198","997837","0.0-198.0","58ac890076c5b70001662993","64dbc284911f3c7d19e1fd0f","","","","","11116",""," ","key"," ","16.65052323838095","500","250","instPog0","340","370","2","0","0","340"
"","psychophysics","199","1002177","0.0-199.0","58ac890076c5b70001662993","64dbc284911f3c7d19e1fd0f","","","","","4339",""," ","key"," ","16.650511538461657","500","250","instPog1","352","370","2","0","0","340"
"","psychophysics","200","1008045","0.0-200.0","58ac890076c5b70001662993","64dbc284911f3c7d19e1fd0f","","","","","5866",""," ","key"," ","16.651037037036943","500","250","instPog2","330","340","2","0","0","340"
"","psychophysics","201","1008791","0.0-201.0","58ac890076c5b70001662993","64dbc284911f3c7d19e1fd0f","","","","","744",""," ","key"," ","16.653795454545286","500","250","inst","","","","","",""
"","psychophysics","202","1014859","0.0-202.0","58ac890076c5b70001662993","64dbc284911f3c7d19e1fd0f","","","","","6067",""," ","key"," ","16.650581267217532","500","250","pog","327","357","2","0","0","330"
"","psychophysics","203","1019959","0.0-203.0","58ac890076c5b70001662993","64dbc284911f3c7d19e1fd0f","","","","","5099",""," ","key"," ","16.65134313725524","500","250","pog","296","288","2","0","0","313"
"","psychophysics","204","1024985","0.0-204.0","58ac890076c5b70001662993","64dbc284911f3c7d19e1fd0f","","","","","5024",""," ","key"," ","16.650219999999972","500","250","pog","311","315","2","0","0","323"
"","psychophysics","205","1031790","0.0-205.0","58ac890076c5b70001662993","64dbc284911f3c7d19e1fd0f","","","","","6802",""," ","key"," ","16.65127450980414","500","250","pog","354","334","2","0","0","367"
"","psychophysics","206","1037503","0.0-206.0","58ac890076c5b70001662993","64dbc284911f3c7d19e1fd0f","","","","","5712",""," ","key"," ","16.65105555555545","500","250","pog","354","296","2","0","0","372"
"","psychophysics","207","1041491","0.0-207.0","58ac890076c5b70001662993","64dbc284911f3c7d19e1fd0f","","","","","3984",""," ","key"," ","16.651594142259533","500","250","pog","338","334","2","0","0","365"
"","psychophysics","208","1045230","0.0-208.0","58ac890076c5b70001662993","64dbc284911f3c7d19e1fd0f","","","","","3737",""," ","key"," ","16.64964125560536","500","250","pog","292","370","2","0","0","318"
"","psychophysics","209","1051579","0.0-209.0","58ac890076c5b70001662993","64dbc284911f3c7d19e1fd0f","","","","","6347",""," ","key"," ","16.65072178477672","500","250","pog","348","316","2","0","0","368"
"","psychophysics","210","1059582","0.0-210.0","58ac890076c5b70001662993","64dbc284911f3c7d19e1fd0f","","","","","null","","null","key","null","16.64984133611686","500","250","pog","293","363","2","0","0","310"
"","psychophysics","211","1059877","0.0-211.0","58ac890076c5b70001662993","64dbc284911f3c7d19e1fd0f","","","","","292",""," ","key"," ","16.6531764705775","500","250","pog","376","376","2","0","0","333"
"","psychophysics","212","1067611","0.0-212.0","58ac890076c5b70001662993","64dbc284911f3c7d19e1fd0f","","","","","7733",""," ","key"," ","16.65062634989199","500","250","pog","275","391","2","0","0","302"
"","psychophysics","213","1073872","0.0-213.0","58ac890076c5b70001662993","64dbc284911f3c7d19e1fd0f","","","","","6258",""," ","key"," ","16.650117333333938","500","250","pog","285","349","2","0","0","308"
"","psychophysics","214","1076895","0.0-214.0","58ac890076c5b70001662993","64dbc284911f3c7d19e1fd0f","","","","","3020",""," ","key"," ","16.649425414365133","500","250","pog","293","351","2","0","0","313"
"","psychophysics","215","1080657","0.0-215.0","58ac890076c5b70001662993","64dbc284911f3c7d19e1fd0f","","","","","3761",""," ","key"," ","16.65194666666703","500","250","pog","293","303","2","0","0","309"
"","psychophysics","216","1083828","0.0-216.0","58ac890076c5b70001662993","64dbc284911f3c7d19e1fd0f","","","","","3170",""," ","key"," ","16.651566137565872","500","250","pog","348","358","2","0","0","359"
