"success","trial_type","trial_index","time_elapsed","internal_node_id","pid","sid","timeout","failed_images","failed_audio","failed_video","rt","stimulus","response","response_type","key_press","avg_frame_time","center_x","center_y","task","resp","jitterX","jitterY","start","version","parA"
"true","fullscreen","0","4031","0.0-0.0","6339d15f5c1c670b3075f0fc","64caaf51c7ef4753e5880959","","","","","","","","","","","","","","","","","","",""
"true","preload","1","4247","0.0-1.0","6339d15f5c1c670b3075f0fc","64caaf51c7ef4753e5880959","false","[]","[]","[]","","","","","","","","","","","","","","",""
"","html-button-response","2","6972","0.0-2.0","6339d15f5c1c670b3075f0fc","64caaf51c7ef4753e5880959","","","","","2724","Please Make Sure Your Audio Is On.","0","","","","","","","","","","","",""
"","psychophysics","3","15969","0.0-3.0","6339d15f5c1c670b3075f0fc","64caaf51c7ef4753e5880959","","","","","8992",""," ","key"," ","16.636363636363637","720","250","","","","","","",""
"","psychophysics","4","19046","0.0-4.0","6339d15f5c1c670b3075f0fc","64caaf51c7ef4753e5880959","","","","","3073",""," ","key"," ","16.641304347826086","500","250","inst","","","","","",""
"","psychophysics","5","23541","0.0-5.0","6339d15f5c1c670b3075f0fc","64caaf51c7ef4753e5880959","","","","","4491",""," ","key"," ","16.66542750929368","500","250","sample0","","","","","",""
"","psychophysics","6","26186","0.0-6.0","6339d15f5c1c670b3075f0fc","64caaf51c7ef4753e5880959","","","","","2639",""," ","key"," ","16.670886075949365","500","250","sample1","","","","","",""
"","psychophysics","7","39705","0.0-7.0","6339d15f5c1c670b3075f0fc","64caaf51c7ef4753e5880959","","","","","13516",""," ","key"," ","16.6679012345679","500","250","sample2","98","","","","",""
"","psychophysics","8","45881","0.0-8.0","6339d15f5c1c670b3075f0fc","64caaf51c7ef4753e5880959","","","","","6172",""," ","key"," ","16.66937669376694","500","250","sample3","106","","","","",""
"","psychophysics","9","58633","0.0-9.0","6339d15f5c1c670b3075f0fc","64caaf51c7ef4753e5880959","","","","","12747",""," ","key"," ","16.666230366492147","500","250","sample4","102","","","","",""
"","psychophysics","10","63604","0.0-10.0","6339d15f5c1c670b3075f0fc","64caaf51c7ef4753e5880959","","","","","4968",""," ","key"," ","16.661073825503355","500","250","sample5","","","","","",""
"","psychophysics","11","78259","0.0-11.0","6339d15f5c1c670b3075f0fc","64caaf51c7ef4753e5880959","","","","","14651",""," ","key"," ","16.667425968109338","500","250","sample6","500","","","","",""
"","psychophysics","12","84963","0.0-12.0","6339d15f5c1c670b3075f0fc","64caaf51c7ef4753e5880959","","","","","6700",""," ","key"," ","16.668329177057355","500","250","inst","","","","","",""
"","psychophysics","13","91565","0.0-13.0","6339d15f5c1c670b3075f0fc","64caaf51c7ef4753e5880959","","","","","6597",""," ","key"," ","16.668354430379747","500","250","inst","","","","","",""
"","psychophysics","14","95291","0.0-14.0","6339d15f5c1c670b3075f0fc","64caaf51c7ef4753e5880959","","","","","3722",""," ","key"," ","16.659192825112108","500","250","inst","","","","","",""
"","psychophysics","15","97521","0.0-15.0","6339d15f5c1c670b3075f0fc","64caaf51c7ef4753e5880959","","","","","2226",""," ","key"," ","16.669172932330827","500","250","inst","","","","","",""
"","psychophysics","16","99121","0.0-16.0","6339d15f5c1c670b3075f0fc","64caaf51c7ef4753e5880959","","","","","1598",""," ","key"," ","16.673684210526314","500","250","inst","","","","","",""
"","psychophysics","17","103182","0.0-17.0","6339d15f5c1c670b3075f0fc","64caaf51c7ef4753e5880959","","","","","4056",""," ","key"," ","16.669421487603305","500","250","instZol0","0","0","0","0","",""
"","psychophysics","18","119029","0.0-18.0","6339d15f5c1c670b3075f0fc","64caaf51c7ef4753e5880959","","","","","15842",""," ","key"," ","16.666315789473686","500","250","instZol1","0.19999999999999982","0","0","-1.3","",""
"","psychophysics","19","130721","0.0-19.0","6339d15f5c1c670b3075f0fc","64caaf51c7ef4753e5880959","","","","","11686",""," ","key"," ","16.667617689015692","500","250","instZol2","2.1000000000000014","0","0","2","1",""
"","psychophysics","20","135010","0.0-20.0","6339d15f5c1c670b3075f0fc","64caaf51c7ef4753e5880959","","","","","4286",""," ","key"," ","16.66796875","500","250","inst","","","","","",""
"","psychophysics","21","140122","0.0-21.0","6339d15f5c1c670b3075f0fc","64caaf51c7ef4753e5880959","","","","","5106",""," ","key"," ","16.666666666666668","500","250","zol","1.17","22","-13","0.53","1",""
"","psychophysics","22","143342","0.0-22.0","6339d15f5c1c670b3075f0fc","64caaf51c7ef4753e5880959","","","","","3213",""," ","key"," ","16.666666666666668","500","250","zol","0.8099999999999999","24","28","-0.01","1",""
"","psychophysics","23","146692","0.0-23.0","6339d15f5c1c670b3075f0fc","64caaf51c7ef4753e5880959","","","","","3344",""," ","key"," ","16.665","500","250","zol","1.25","16","-5","-0.25","1",""
"","psychophysics","24","151511","0.0-24.0","6339d15f5c1c670b3075f0fc","64caaf51c7ef4753e5880959","","","","","4814",""," ","key"," ","16.666666666666668","500","250","zol","1.37","12","29","0.73","1",""
"","psychophysics","25","155998","0.0-25.0","6339d15f5c1c670b3075f0fc","64caaf51c7ef4753e5880959","","","","","4482",""," ","key"," ","16.66417910447761","500","250","zol","1.4400000000000004","-18","22","0.36","1",""
"","psychophysics","26","160868","0.0-26.0","6339d15f5c1c670b3075f0fc","64caaf51c7ef4753e5880959","","","","","4863",""," ","key"," ","16.65979381443299","500","250","zol","1.7900000000000005","-18","-13","-0.19","1",""
"","psychophysics","27","163429","0.0-27.0","6339d15f5c1c670b3075f0fc","64caaf51c7ef4753e5880959","","","","","2555",""," ","key"," ","16.640522875816995","500","250","zol","0.9499999999999998","18","28","-0.25","1",""
"","psychophysics","28","166150","0.0-28.0","6339d15f5c1c670b3075f0fc","64caaf51c7ef4753e5880959","","","","","2714",""," ","key"," ","16.666666666666668","500","250","zol","1.3800000000000003","-29","18","-0.68","1",""
"","psychophysics","29","170344","0.0-29.0","6339d15f5c1c670b3075f0fc","64caaf51c7ef4753e5880959","","","","","4189",""," ","key"," ","16.661354581673308","500","250","zol","1.4300000000000004","22","-23","-0.13","1",""
"","psychophysics","30","173723","0.0-30.0","6339d15f5c1c670b3075f0fc","64caaf51c7ef4753e5880959","","","","","3372",""," ","key"," ","16.668316831683168","500","250","zol","1.4900000000000002","9","-3","-0.49","1",""
"","psychophysics","31","177506","0.0-31.0","6339d15f5c1c670b3075f0fc","64caaf51c7ef4753e5880959","","","","","3777",""," ","key"," ","16.668141592920353","500","250","zol","1.0699999999999998","-2","-30","0.23","1",""
"","psychophysics","32","180533","0.0-32.0","6339d15f5c1c670b3075f0fc","64caaf51c7ef4753e5880959","","","","","3022",""," ","key"," ","16.666666666666668","500","250","zol","1.0499999999999998","11","1","-0.25","1",""
"","psychophysics","33","183003","0.0-33.0","6339d15f5c1c670b3075f0fc","64caaf51c7ef4753e5880959","","","","","2464",""," ","key"," ","16.639455782312925","500","250","zol","0.7999999999999999","3","21","-0.1","1",""
"","psychophysics","34","186299","0.0-34.0","6339d15f5c1c670b3075f0fc","64caaf51c7ef4753e5880959","","","","","3290",""," ","key"," ","16.634517766497463","500","250","zol","1.29","28","-5","-0.29","1",""
"","psychophysics","35","189332","0.0-35.0","6339d15f5c1c670b3075f0fc","64caaf51c7ef4753e5880959","","","","","3026",""," ","key"," ","16.662983425414364","500","250","zol","1.1300000000000001","-29","-1","-0.33","1",""
"","psychophysics","36","190457","0.0-36.0","6339d15f5c1c670b3075f0fc","64caaf51c7ef4753e5880959","","","","","1121",""," ","key"," ","16.65671641791045","500","250","inst","","","","","",""
"","psychophysics","37","194872","0.0-37.0","6339d15f5c1c670b3075f0fc","64caaf51c7ef4753e5880959","","","","","4411",""," ","key"," ","16.666666666666668","500","250","instBr0","NaN","0","0","0","","300"
"","psychophysics","38","207294","0.0-38.0","6339d15f5c1c670b3075f0fc","64caaf51c7ef4753e5880959","","","","","12416",""," ","key"," ","16.666666666666668","500","250","instBr1","NaN","0","0","-40","","300"
"","psychophysics","39","216657","0.0-39.0","6339d15f5c1c670b3075f0fc","64caaf51c7ef4753e5880959","","","","","9358",""," ","key"," ","16.666666666666668","500","250","instBr","-26","0","0","40","1","300"
"","psychophysics","40","217676","0.0-40.0","6339d15f5c1c670b3075f0fc","64caaf51c7ef4753e5880959","","","","","1015",""," ","key"," ","16.666666666666668","500","250","inst","","","","","",""
"","psychophysics","41","219932","0.0-41.0","6339d15f5c1c670b3075f0fc","64caaf51c7ef4753e5880959","","","","","2251",""," ","key"," ","16.671641791044777","500","250","br","-26","-7","14","-21","1","275"
"","psychophysics","42","223572","0.0-42.0","6339d15f5c1c670b3075f0fc","64caaf51c7ef4753e5880959","","","","","3635",""," ","key"," ","16.660550458715598","500","250","br","-25","-8","-2","-10","1","232"
"","psychophysics","43","230894","0.0-43.0","6339d15f5c1c670b3075f0fc","64caaf51c7ef4753e5880959","","","","","7319",""," ","key"," ","16.666666666666668","500","250","br","-26","10","12","11","1","220"
"","psychophysics","44","234028","0.0-44.0","6339d15f5c1c670b3075f0fc","64caaf51c7ef4753e5880959","","","","","3127",""," ","key"," ","16.668449197860962","500","250","br","-27","13","-5","-37","1","231"
"","psychophysics","45","242033","0.0-45.0","6339d15f5c1c670b3075f0fc","64caaf51c7ef4753e5880959","","","","","null","","null","key","null","16.598752598752597","500","250","br","-23","21","20","17","1","270"
"","psychophysics","46","242096","0.0-46.0","6339d15f5c1c670b3075f0fc","64caaf51c7ef4753e5880959","","","","","56",""," ","key"," ","15.666666666666666","500","250","br","16","30","30","16","1","240"
"","psychophysics","47","250101","0.0-47.0","6339d15f5c1c670b3075f0fc","64caaf51c7ef4753e5880959","","","","","null","","null","key","null","16.598752598752597","500","250","br","-18","28","-22","40","1","293"
"","psychophysics","48","250272","0.0-48.0","6339d15f5c1c670b3075f0fc","64caaf51c7ef4753e5880959","","","","","156",""," ","key"," ","15.9","500","250","br","13","-16","-22","13","1","242"
"","psychophysics","49","255656","0.0-49.0","6339d15f5c1c670b3075f0fc","64caaf51c7ef4753e5880959","","","","","5378",""," ","key"," ","16.667701863354036","500","250","br","-18","21","25","26","1","200"
"","psychophysics","50","258146","0.0-50.0","6339d15f5c1c670b3075f0fc","64caaf51c7ef4753e5880959","","","","","2487",""," ","key"," ","16.66891891891892","500","250","br","-19","-2","21","-30","1","228"
"","psychophysics","51","262809","0.0-51.0","6339d15f5c1c670b3075f0fc","64caaf51c7ef4753e5880959","","","","","4658",""," ","key"," ","16.666666666666668","500","250","br","-23","-8","9","15","1","266"
"","psychophysics","52","267357","0.0-52.0","6339d15f5c1c670b3075f0fc","64caaf51c7ef4753e5880959","","","","","4543",""," ","key"," ","16.665441176470587","500","250","br","-28","4","14","5","1","290"
"","psychophysics","53","272461","0.0-53.0","6339d15f5c1c670b3075f0fc","64caaf51c7ef4753e5880959","","","","","5099",""," ","key"," ","16.665573770491804","500","250","br","-24","-26","-9","-49","1","259"
"","psychophysics","54","278422","0.0-54.0","6339d15f5c1c670b3075f0fc","64caaf51c7ef4753e5880959","","","","","5956",""," ","key"," ","16.666666666666668","500","250","br","-20","-22","-24","28","1","212"
"","psychophysics","55","281359","0.0-55.0","6339d15f5c1c670b3075f0fc","64caaf51c7ef4753e5880959","","","","","2934",""," ","key"," ","16.66857142857143","500","250","br","-22","7","-5","-8","1","203"
"","psychophysics","56","282841","0.0-56.0","6339d15f5c1c670b3075f0fc","64caaf51c7ef4753e5880959","","","","","1474",""," ","key"," ","16.670454545454547","500","250","inst","","","","","",""
"","psychophysics","57","286276","0.0-57.0","6339d15f5c1c670b3075f0fc","64caaf51c7ef4753e5880959","","","","","3431",""," ","key"," ","16.673170731707316","500","250","instPz0","50","","","50","1","50"
"","psychophysics","58","295306","0.0-58.0","6339d15f5c1c670b3075f0fc","64caaf51c7ef4753e5880959","","","","","9026",""," ","key"," ","16.66728280961183","500","250","instPz1","46","","","25","1","50"
"","psychophysics","59","298673","0.0-59.0","6339d15f5c1c670b3075f0fc","64caaf51c7ef4753e5880959","","","","","3363",""," ","key"," ","16.666666666666668","500","250","instPz2","23","","","15","1","25"
"","psychophysics","60","304111","0.0-60.0","6339d15f5c1c670b3075f0fc","64caaf51c7ef4753e5880959","","","","","5433",""," ","key"," ","16.667692307692306","500","250","instPz3","46","","","25","1","50"
"","psychophysics","61","309301","0.0-61.0","6339d15f5c1c670b3075f0fc","64caaf51c7ef4753e5880959","","","","","5185",""," ","key"," ","16.66774193548387","500","250","instPz4","38","","","15","1","30"
"","psychophysics","62","312148","0.0-62.0","6339d15f5c1c670b3075f0fc","64caaf51c7ef4753e5880959","","","","","2842",""," ","key"," ","16.658823529411766","500","250","inst","","","","","",""
"","psychophysics","63","317264","0.0-63.0","6339d15f5c1c670b3075f0fc","64caaf51c7ef4753e5880959","","","","","5111",""," ","key"," ","16.666666666666668","500","250","pz","52","","","29","1","49"
"","psychophysics","64","322709","0.0-64.0","6339d15f5c1c670b3075f0fc","64caaf51c7ef4753e5880959","","","","","5439",""," ","key"," ","16.665644171779142","500","250","pz","35","","","58","1","20"
"","psychophysics","65","326673","0.0-65.0","6339d15f5c1c670b3075f0fc","64caaf51c7ef4753e5880959","","","","","3959",""," ","key"," ","16.666666666666668","500","250","pz","62","","","38","1","50"
"","psychophysics","66","330515","0.0-66.0","6339d15f5c1c670b3075f0fc","64caaf51c7ef4753e5880959","","","","","3843",""," ","key"," ","16.66812227074236","500","250","pz","60","","","33","1","46"
"","psychophysics","67","335269","0.0-67.0","6339d15f5c1c670b3075f0fc","64caaf51c7ef4753e5880959","","","","","4754",""," ","key"," ","16.659649122807018","500","250","pz","64","","","24","1","43"
"","psychophysics","68","339131","0.0-68.0","6339d15f5c1c670b3075f0fc","64caaf51c7ef4753e5880959","","","","","3858",""," ","key"," ","16.666666666666668","500","250","pz","39","","","21","1","25"
"","psychophysics","69","342489","0.0-69.0","6339d15f5c1c670b3075f0fc","64caaf51c7ef4753e5880959","","","","","3356",""," ","key"," ","16.665","500","250","pz","47","","","23","1","26"
"","psychophysics","70","345789","0.0-70.0","6339d15f5c1c670b3075f0fc","64caaf51c7ef4753e5880959","","","","","3294",""," ","key"," ","16.65482233502538","500","250","pz","32","","","41","1","20"
"","psychophysics","71","348427","0.0-71.0","6339d15f5c1c670b3075f0fc","64caaf51c7ef4753e5880959","","","","","2633",""," ","key"," ","16.651898734177216","500","250","pz","59","","","59","1","34"
"","psychophysics","72","353377","0.0-72.0","6339d15f5c1c670b3075f0fc","64caaf51c7ef4753e5880959","","","","","4947",""," ","key"," ","16.66891891891892","500","250","pz","94","","","54","1","60"
"","psychophysics","73","356062","0.0-73.0","6339d15f5c1c670b3075f0fc","64caaf51c7ef4753e5880959","","","","","2679",""," ","key"," ","16.66875","500","250","pz","68","","","53","1","39"
"","psychophysics","74","359732","0.0-74.0","6339d15f5c1c670b3075f0fc","64caaf51c7ef4753e5880959","","","","","3664",""," ","key"," ","16.666666666666668","500","250","pz","60","","","36","1","45"
"","psychophysics","75","363622","0.0-75.0","6339d15f5c1c670b3075f0fc","64caaf51c7ef4753e5880959","","","","","3885",""," ","key"," ","16.665236051502145","500","250","pz","64","","","36","1","49"
"","psychophysics","76","367073","0.0-76.0","6339d15f5c1c670b3075f0fc","64caaf51c7ef4753e5880959","","","","","3447",""," ","key"," ","16.66990291262136","500","250","pz","61","","","38","1","44"
"","psychophysics","77","371506","0.0-77.0","6339d15f5c1c670b3075f0fc","64caaf51c7ef4753e5880959","","","","","4430",""," ","key"," ","16.667924528301885","500","250","pz","59","","","24","1","43"
"","psychophysics","78","372779","0.0-78.0","6339d15f5c1c670b3075f0fc","64caaf51c7ef4753e5880959","","","","","1268",""," ","key"," ","16.68","500","250","inst","","","","","",""
"","psychophysics","79","381664","0.0-79.0","6339d15f5c1c670b3075f0fc","64caaf51c7ef4753e5880959","","","","","8879",""," ","key"," ","16.667293233082706","500","250","instPog0","340","0","0","370","2","340"
"","psychophysics","80","392555","0.0-80.0","6339d15f5c1c670b3075f0fc","64caaf51c7ef4753e5880959","","","","","10887",""," ","key"," ","16.666156202143952","500","250","instPog1","336","0","0","370","2","340"
"","psychophysics","81","399963","0.0-81.0","6339d15f5c1c670b3075f0fc","64caaf51c7ef4753e5880959","","","","","7405",""," ","key"," ","16.668171557562076","500","250","instPog2","320","0","0","340","2","340"
"","psychophysics","82","400855","0.0-82.0","6339d15f5c1c670b3075f0fc","64caaf51c7ef4753e5880959","","","","","887",""," ","key"," ","16.67924528301887","500","250","inst","","","","","",""
"","psychophysics","83","404682","0.0-83.0","6339d15f5c1c670b3075f0fc","64caaf51c7ef4753e5880959","","","","","3823",""," ","key"," ","16.67105263157895","500","250","pog","370","0","0","400","2","380"
"","psychophysics","84","408045","0.0-84.0","6339d15f5c1c670b3075f0fc","64caaf51c7ef4753e5880959","","","","","3357",""," ","key"," ","16.65671641791045","500","250","pog","366","0","0","392","2","371"
"","psychophysics","85","409156","0.0-85.0","6339d15f5c1c670b3075f0fc","64caaf51c7ef4753e5880959","","","","","1107",""," ","key"," ","16.666666666666668","500","250","pog","349","0","0","349","2","372"
"","psychophysics","86","413010","0.0-86.0","6339d15f5c1c670b3075f0fc","64caaf51c7ef4753e5880959","","","","","3849",""," ","key"," ","16.66521739130435","500","250","pog","298","0","0","348","2","310"
"","psychophysics","87","414835","0.0-87.0","6339d15f5c1c670b3075f0fc","64caaf51c7ef4753e5880959","","","","","1820",""," ","key"," ","16.666666666666668","500","250","pog","362","0","0","364","2","373"
"","psychophysics","88","416975","0.0-88.0","6339d15f5c1c670b3075f0fc","64caaf51c7ef4753e5880959","","","","","2138",""," ","key"," ","16.6484375","500","250","pog","349","0","0","363","2","364"
"","psychophysics","89","418765","0.0-89.0","6339d15f5c1c670b3075f0fc","64caaf51c7ef4753e5880959","","","","","1784",""," ","key"," ","16.660377358490567","500","250","pog","295","0","0","297","2","304"
"","psychophysics","90","424371","0.0-90.0","6339d15f5c1c670b3075f0fc","64caaf51c7ef4753e5880959","","","","","5601",""," ","key"," ","16.663690476190474","500","250","pog","332","0","0","292","2","368"
"","psychophysics","91","428872","0.0-91.0","6339d15f5c1c670b3075f0fc","64caaf51c7ef4753e5880959","","","","","4497",""," ","key"," ","16.66542750929368","500","250","pog","347","0","0","395","2","364"
"","psychophysics","92","434165","0.0-92.0","6339d15f5c1c670b3075f0fc","64caaf51c7ef4753e5880959","","","","","5285",""," ","key"," ","16.667721518987342","500","250","pog","324","0","0","284","2","359"
"","psychophysics","93","439045","0.0-93.0","6339d15f5c1c670b3075f0fc","64caaf51c7ef4753e5880959","","","","","4876",""," ","key"," ","16.664383561643834","500","250","pog","313","0","0","375","2","325"
"","psychophysics","94","442850","0.0-94.0","6339d15f5c1c670b3075f0fc","64caaf51c7ef4753e5880959","","","","","3797",""," ","key"," ","16.665198237885463","500","250","pog","349","0","0","371","2","355"
"","psychophysics","95","447259","0.0-95.0","6339d15f5c1c670b3075f0fc","64caaf51c7ef4753e5880959","","","","","4405",""," ","key"," ","16.66287878787879","500","250","pog","315","0","0","287","2","330"
"","psychophysics","96","451518","0.0-96.0","6339d15f5c1c670b3075f0fc","64caaf51c7ef4753e5880959","","","","","4254",""," ","key"," ","16.673228346456693","500","250","pog","286","0","0","326","2","302"
"","psychophysics","97","458599","0.0-97.0","6339d15f5c1c670b3075f0fc","64caaf51c7ef4753e5880959","","","","","7076",""," ","key"," ","16.65566037735849","500","250","pog","298","0","0","398","2","311"
"","psychophysics","98","459659","0.0-98.0","6339d15f5c1c670b3075f0fc","64caaf51c7ef4753e5880959","","","","","1054",""," ","key"," ","16.650793650793652","500","250","inst","","","","","",""
"","psychophysics","99","461829","0.0-99.0","6339d15f5c1c670b3075f0fc","64caaf51c7ef4753e5880959","","","","","2165",""," ","key"," ","16.666666666666668","500","250","instEB0","40","0","0","40","","40"
"","psychophysics","100","468832","0.0-100.0","6339d15f5c1c670b3075f0fc","64caaf51c7ef4753e5880959","","","","","6996",""," ","key"," ","16.668257756563246","500","250","instEB1","70","0","0","30","2","70"
"","psychophysics","101","476326","0.0-101.0","6339d15f5c1c670b3075f0fc","64caaf51c7ef4753e5880959","","","","","7490",""," ","key"," ","16.665924276169264","500","250","instEB2","46","0","0","60","2","40"
"","psychophysics","102","484650","0.0-102.0","6339d15f5c1c670b3075f0fc","64caaf51c7ef4753e5880959","","","","","8319",""," ","key"," ","16.666666666666668","500","250","instEB3","64","0","0","45","2","65"
"","psychophysics","103","489818","0.0-103.0","6339d15f5c1c670b3075f0fc","64caaf51c7ef4753e5880959","","","","","5163",""," ","key"," ","16.663430420711975","500","250","instEB4","58","0","0","40","2","40"
"","psychophysics","104","490689","0.0-104.0","6339d15f5c1c670b3075f0fc","64caaf51c7ef4753e5880959","","","","","868",""," ","key"," ","16.634615384615383","500","250","inst","","","","","",""
"","psychophysics","105","494199","0.0-105.0","6339d15f5c1c670b3075f0fc","64caaf51c7ef4753e5880959","","","","","3505",""," ","key"," ","16.669856459330145","500","250","eb","52","0","0","33","2","40"
"","psychophysics","106","496800","0.0-106.0","6339d15f5c1c670b3075f0fc","64caaf51c7ef4753e5880959","","","","","2596",""," ","key"," ","16.664516129032258","500","250","eb","45","0","0","33","2","37"
"","psychophysics","107","497959","0.0-107.0","6339d15f5c1c670b3075f0fc","64caaf51c7ef4753e5880959","","","","","1154",""," ","key"," ","16.652173913043477","500","250","eb","44","0","0","44","2","37"
"","psychophysics","108","501990","0.0-108.0","6339d15f5c1c670b3075f0fc","64caaf51c7ef4753e5880959","","","","","4023",""," ","key"," ","16.66804979253112","500","250","eb","54","0","0","29","2","54"
"","psychophysics","109","505159","0.0-109.0","6339d15f5c1c670b3075f0fc","64caaf51c7ef4753e5880959","","","","","3164",""," ","key"," ","16.666666666666668","500","250","eb","56","0","0","35","2","50"
"","psychophysics","110","507361","0.0-110.0","6339d15f5c1c670b3075f0fc","64caaf51c7ef4753e5880959","","","","","2194",""," ","key"," ","16.671755725190838","500","250","eb","59","0","0","53","2","53"
"","psychophysics","111","510409","0.0-111.0","6339d15f5c1c670b3075f0fc","64caaf51c7ef4753e5880959","","","","","3043",""," ","key"," ","16.664835164835164","500","250","eb","44","0","0","25","2","31"
"","psychophysics","112","513301","0.0-112.0","6339d15f5c1c670b3075f0fc","64caaf51c7ef4753e5880959","","","","","2887",""," ","key"," ","16.662790697674417","500","250","eb","46","0","0","30","2","36"
"","psychophysics","113","516212","0.0-113.0","6339d15f5c1c670b3075f0fc","64caaf51c7ef4753e5880959","","","","","2905",""," ","key"," ","16.649425287356323","500","250","eb","44","0","0","52","2","32"
"","psychophysics","114","519026","0.0-114.0","6339d15f5c1c670b3075f0fc","64caaf51c7ef4753e5880959","","","","","2811",""," ","key"," ","16.666666666666668","500","250","eb","60","0","0","44","2","54"
"","psychophysics","115","521730","0.0-115.0","6339d15f5c1c670b3075f0fc","64caaf51c7ef4753e5880959","","","","","2697",""," ","key"," ","16.67080745341615","500","250","eb","50","0","0","54","2","44"
"","psychophysics","116","524339","0.0-116.0","6339d15f5c1c670b3075f0fc","64caaf51c7ef4753e5880959","","","","","2604",""," ","key"," ","16.666666666666668","500","250","eb","39","0","0","43","2","30"
"","psychophysics","117","525133","0.0-117.0","6339d15f5c1c670b3075f0fc","64caaf51c7ef4753e5880959","","","","","790",""," ","key"," ","16.67391304347826","500","250","eb","39","0","0","39","2","30"
"","psychophysics","118","528361","0.0-118.0","6339d15f5c1c670b3075f0fc","64caaf51c7ef4753e5880959","","","","","3222",""," ","key"," ","16.6580310880829","500","250","eb","51","0","0","42","2","49"
"","psychophysics","119","530990","0.0-119.0","6339d15f5c1c670b3075f0fc","64caaf51c7ef4753e5880959","","","","","2624",""," ","key"," ","16.668789808917197","500","250","eb","44","0","0","54","2","32"
"","psychophysics","120","532167","0.0-120.0","6339d15f5c1c670b3075f0fc","64caaf51c7ef4753e5880959","","","","","1173",""," ","key"," ","16.666666666666668","500","250","inst","","","","","",""
"","psychophysics","121","537679","0.0-121.0","6339d15f5c1c670b3075f0fc","64caaf51c7ef4753e5880959","","","","","5506",""," ","key"," ","16.654545454545456","500","250","instBr","39","0","0","40","2","300"
"","psychophysics","122","538537","0.0-122.0","6339d15f5c1c670b3075f0fc","64caaf51c7ef4753e5880959","","","","","853",""," ","key"," ","16.68","500","250","inst","","","","","",""
"","psychophysics","123","541511","0.0-123.0","6339d15f5c1c670b3075f0fc","64caaf51c7ef4753e5880959","","","","","2970",""," ","key"," ","16.646067415730336","500","250","br","17","-6","19","-2","2","252"
"","psychophysics","124","545388","0.0-124.0","6339d15f5c1c670b3075f0fc","64caaf51c7ef4753e5880959","","","","","3873",""," ","key"," ","16.663793103448278","500","250","br","24","17","26","-7","2","291"
"","psychophysics","125","548601","0.0-125.0","6339d15f5c1c670b3075f0fc","64caaf51c7ef4753e5880959","","","","","3209",""," ","key"," ","16.670157068062828","500","250","br","25","-12","-13","37","2","214"
"","psychophysics","126","555266","0.0-126.0","6339d15f5c1c670b3075f0fc","64caaf51c7ef4753e5880959","","","","","6661",""," ","key"," ","16.661654135338345","500","250","br","15","19","-12","-47","2","240"
"","psychophysics","127","558718","0.0-127.0","6339d15f5c1c670b3075f0fc","64caaf51c7ef4753e5880959","","","","","3446",""," ","key"," ","16.660194174757283","500","250","br","21","-5","-28","32","2","235"
"","psychophysics","128","562094","0.0-128.0","6339d15f5c1c670b3075f0fc","64caaf51c7ef4753e5880959","","","","","3372",""," ","key"," ","16.65841584158416","500","250","br","20","-3","6","-2","2","236"
"","psychophysics","129","564442","0.0-129.0","6339d15f5c1c670b3075f0fc","64caaf51c7ef4753e5880959","","","","","2341",""," ","key"," ","16.67142857142857","500","250","br","22","11","24","30","2","272"
"","psychophysics","130","570743","0.0-130.0","6339d15f5c1c670b3075f0fc","64caaf51c7ef4753e5880959","","","","","6296",""," ","key"," ","16.6684350132626","500","250","br","18","-22","-8","-40","2","273"
"","psychophysics","131","573292","0.0-131.0","6339d15f5c1c670b3075f0fc","64caaf51c7ef4753e5880959","","","","","2543",""," ","key"," ","16.664473684210527","500","250","br","30","-12","6","44","2","243"
"","psychophysics","132","576122","0.0-132.0","6339d15f5c1c670b3075f0fc","64caaf51c7ef4753e5880959","","","","","2825",""," ","key"," ","16.674556213017752","500","250","br","20","-4","22","20","2","286"
"","psychophysics","133","579626","0.0-133.0","6339d15f5c1c670b3075f0fc","64caaf51c7ef4753e5880959","","","","","3498",""," ","key"," ","16.669856459330145","500","250","br","21","-21","1","47","2","300"
"","psychophysics","134","582391","0.0-134.0","6339d15f5c1c670b3075f0fc","64caaf51c7ef4753e5880959","","","","","2761",""," ","key"," ","16.666666666666668","500","250","br","21","-13","1","9","2","268"
"","psychophysics","135","588456","0.0-135.0","6339d15f5c1c670b3075f0fc","64caaf51c7ef4753e5880959","","","","","6059",""," ","key"," ","16.666666666666668","500","250","br","19","7","8","-29","2","297"
"","psychophysics","136","593895","0.0-136.0","6339d15f5c1c670b3075f0fc","64caaf51c7ef4753e5880959","","","","","5435",""," ","key"," ","16.667692307692306","500","250","br","23","6","-3","-24","2","239"
"","psychophysics","137","599989","0.0-137.0","6339d15f5c1c670b3075f0fc","64caaf51c7ef4753e5880959","","","","","6088",""," ","key"," ","16.66849315068493","500","250","br","26","-2","-19","-25","2","217"
"","psychophysics","138","600957","0.0-138.0","6339d15f5c1c670b3075f0fc","64caaf51c7ef4753e5880959","","","","","963",""," ","key"," ","16.666666666666668","500","250","inst","","","","","",""
"","psychophysics","139","604034","0.0-139.0","6339d15f5c1c670b3075f0fc","64caaf51c7ef4753e5880959","","","","","3071",""," ","key"," ","16.666666666666668","500","250","instZol2","-2","0","0","2","2",""
"","psychophysics","140","604832","0.0-140.0","6339d15f5c1c670b3075f0fc","64caaf51c7ef4753e5880959","","","","","795",""," ","key"," ","16.638297872340427","500","250","inst","","","","","",""
"","psychophysics","141","612838","0.0-141.0","6339d15f5c1c670b3075f0fc","64caaf51c7ef4753e5880959","","","","","null","","null","key","null","16.595435684647303","500","250","zol","0.9799999999999999","2","27","-0.28","2",""
"","psychophysics","142","615940","0.0-142.0","6339d15f5c1c670b3075f0fc","64caaf51c7ef4753e5880959","","","","","3096",""," ","key"," ","16.664864864864864","500","250","zol","-0.71","-6","23","0.71","2",""
"","psychophysics","143","623945","0.0-143.0","6339d15f5c1c670b3075f0fc","64caaf51c7ef4753e5880959","","","","","null","","null","key","null","16.596673596673597","500","250","zol","0.08000000000000002","9","9","-0.08","2",""
"","psychophysics","144","626599","0.0-144.0","6339d15f5c1c670b3075f0fc","64caaf51c7ef4753e5880959","","","","","2644",""," ","key"," ","16.664556962025316","500","250","zol","-0.39","13","-28","-0.61","2",""
"","psychophysics","145","628747","0.0-145.0","6339d15f5c1c670b3075f0fc","64caaf51c7ef4753e5880959","","","","","2141",""," ","key"," ","16.65625","500","250","zol","-0.9599999999999999","-12","-8","0.16","2",""
"","psychophysics","146","631990","0.0-146.0","6339d15f5c1c670b3075f0fc","64caaf51c7ef4753e5880959","","","","","3238",""," ","key"," ","16.670103092783506","500","250","zol","-0.7799999999999999","0","-6","-0.62","2",""
"","psychophysics","147","634158","0.0-147.0","6339d15f5c1c670b3075f0fc","64caaf51c7ef4753e5880959","","","","","2164",""," ","key"," ","16.674418604651162","500","250","zol","-1.01","-15","2","0.31","2",""
"","psychophysics","148","637572","0.0-148.0","6339d15f5c1c670b3075f0fc","64caaf51c7ef4753e5880959","","","","","3408",""," ","key"," ","16.67156862745098","500","250","zol","-1.4800000000000002","22","21","0.38","2",""
"","psychophysics","149","640187","0.0-149.0","6339d15f5c1c670b3075f0fc","64caaf51c7ef4753e5880959","","","","","2610",""," ","key"," ","16.664516129032258","500","250","zol","-0.7999999999999999","0","-5","0.2","2",""
"","psychophysics","150","642914","0.0-150.0","6339d15f5c1c670b3075f0fc","64caaf51c7ef4753e5880959","","","","","2719",""," ","key"," ","16.625766871165645","500","250","zol","-0.7599999999999999","20","16","-0.14","2",""
"","psychophysics","151","646483","0.0-151.0","6339d15f5c1c670b3075f0fc","64caaf51c7ef4753e5880959","","","","","3562",""," ","key"," ","16.671361502347416","500","250","zol","-1.2400000000000002","10","26","-0.06","2",""
"","psychophysics","152","649840","0.0-152.0","6339d15f5c1c670b3075f0fc","64caaf51c7ef4753e5880959","","","","","3349",""," ","key"," ","16.65174129353234","500","250","zol","-0.8899999999999999","0","-20","-0.71","2",""
"","psychophysics","153","653007","0.0-153.0","6339d15f5c1c670b3075f0fc","64caaf51c7ef4753e5880959","","","","","3163",""," ","key"," ","16.666666666666668","500","250","zol","-1.5100000000000005","23","11","0.11","2",""
"","psychophysics","154","655157","0.0-154.0","6339d15f5c1c670b3075f0fc","64caaf51c7ef4753e5880959","","","","","2145",""," ","key"," ","16.6640625","500","250","zol","-1.4700000000000004","-6","16","0.67","2",""
"","psychophysics","155","657288","0.0-155.0","6339d15f5c1c670b3075f0fc","64caaf51c7ef4753e5880959","","","","","2125",""," ","key"," ","16.666666666666668","500","250","zol","-1.25","-14","24","0.25","2",""
"","psychophysics","156","659940","0.0-156.0","6339d15f5c1c670b3075f0fc","64caaf51c7ef4753e5880959","","","","","2648",""," ","key"," ","16.641509433962263","500","250","inst","","","","","",""
"","psychophysics","157","663041","0.0-157.0","6339d15f5c1c670b3075f0fc","64caaf51c7ef4753e5880959","","","","","3096",""," ","key"," ","16.67027027027027","500","250","instEB4","51","0","0","40","1","40"
"","psychophysics","158","664257","0.0-158.0","6339d15f5c1c670b3075f0fc","64caaf51c7ef4753e5880959","","","","","1214",""," ","key"," ","16.666666666666668","500","250","inst","","","","","",""
"","psychophysics","159","667507","0.0-159.0","6339d15f5c1c670b3075f0fc","64caaf51c7ef4753e5880959","","","","","3244",""," ","key"," ","16.664948453608247","500","250","eb","51","0","0","38","1","47"
"","psychophysics","160","671069","0.0-160.0","6339d15f5c1c670b3075f0fc","64caaf51c7ef4753e5880959","","","","","3555",""," ","key"," ","16.669811320754718","500","250","eb","55","0","0","26","1","48"
"","psychophysics","161","672875","0.0-161.0","6339d15f5c1c670b3075f0fc","64caaf51c7ef4753e5880959","","","","","1799",""," ","key"," ","16.62962962962963","500","250","eb","47","0","0","41","1","34"
"","psychophysics","162","675468","0.0-162.0","6339d15f5c1c670b3075f0fc","64caaf51c7ef4753e5880959","","","","","2588",""," ","key"," ","16.66883116883117","500","250","eb","48","0","0","31","1","40"
"","psychophysics","163","678095","0.0-163.0","6339d15f5c1c670b3075f0fc","64caaf51c7ef4753e5880959","","","","","2621",""," ","key"," ","16.643312101910826","500","250","eb","31","0","0","35","1","24"
"","psychophysics","164","680450","0.0-164.0","6339d15f5c1c670b3075f0fc","64caaf51c7ef4753e5880959","","","","","2349",""," ","key"," ","16.664285714285715","500","250","eb","43","0","0","31","1","37"
"","psychophysics","165","684027","0.0-165.0","6339d15f5c1c670b3075f0fc","64caaf51c7ef4753e5880959","","","","","3573",""," ","key"," ","16.66355140186916","500","250","eb","46","0","0","25","1","42"
"","psychophysics","166","685375","0.0-166.0","6339d15f5c1c670b3075f0fc","64caaf51c7ef4753e5880959","","","","","1342",""," ","key"," ","16.6625","500","250","eb","44","0","0","43","1","35"
"","psychophysics","167","687773","0.0-167.0","6339d15f5c1c670b3075f0fc","64caaf51c7ef4753e5880959","","","","","2392",""," ","key"," ","16.67132867132867","500","250","eb","34","0","0","39","1","24"
"","psychophysics","168","692248","0.0-168.0","6339d15f5c1c670b3075f0fc","64caaf51c7ef4753e5880959","","","","","4471",""," ","key"," ","16.666666666666668","500","250","eb","58","0","0","31","1","53"
"","psychophysics","169","694745","0.0-169.0","6339d15f5c1c670b3075f0fc","64caaf51c7ef4753e5880959","","","","","2491",""," ","key"," ","16.664429530201343","500","250","eb","58","0","0","44","1","49"
"","psychophysics","170","697096","0.0-170.0","6339d15f5c1c670b3075f0fc","64caaf51c7ef4753e5880959","","","","","2346",""," ","key"," ","16.664285714285715","500","250","eb","53","0","0","41","1","42"
"","psychophysics","171","700542","0.0-171.0","6339d15f5c1c670b3075f0fc","64caaf51c7ef4753e5880959","","","","","3438",""," ","key"," ","16.66504854368932","500","250","eb","42","0","0","30","1","32"
"","psychophysics","172","702356","0.0-172.0","6339d15f5c1c670b3075f0fc","64caaf51c7ef4753e5880959","","","","","1809",""," ","key"," ","16.666666666666668","500","250","eb","46","0","0","39","1","40"
"","psychophysics","173","704284","0.0-173.0","6339d15f5c1c670b3075f0fc","64caaf51c7ef4753e5880959","","","","","1924",""," ","key"," ","16.666666666666668","500","250","eb","45","0","0","49","1","37"
"","psychophysics","174","705117","0.0-174.0","6339d15f5c1c670b3075f0fc","64caaf51c7ef4753e5880959","","","","","828",""," ","key"," ","16.632653061224488","500","250","inst","","","","","",""
"","psychophysics","175","711174","0.0-175.0","6339d15f5c1c670b3075f0fc","64caaf51c7ef4753e5880959","","","","","6052",""," ","key"," ","16.663911845730027","500","250","instPog0","160","0","0","190","1","160"
"","psychophysics","176","713668","0.0-176.0","6339d15f5c1c670b3075f0fc","64caaf51c7ef4753e5880959","","","","","2488",""," ","key"," ","16.675675675675677","500","250","instPog1","162","0","0","190","1","160"
"","psychophysics","177","715040","0.0-177.0","6339d15f5c1c670b3075f0fc","64caaf51c7ef4753e5880959","","","","","1368",""," ","key"," ","16.646341463414632","500","250","instPog2","158","0","0","160","1","160"
"","psychophysics","178","715793","0.0-178.0","6339d15f5c1c670b3075f0fc","64caaf51c7ef4753e5880959","","","","","749",""," ","key"," ","16.681818181818183","500","250","inst","","","","","",""
"","psychophysics","179","721072","0.0-179.0","6339d15f5c1c670b3075f0fc","64caaf51c7ef4753e5880959","","","","","5275",""," ","key"," ","16.667721518987342","500","250","pog","203","0","0","117","1","198"
"","psychophysics","180","724624","0.0-180.0","6339d15f5c1c670b3075f0fc","64caaf51c7ef4753e5880959","","","","","3548",""," ","key"," ","16.669811320754718","500","250","pog","168","0","0","116","1","162"
"","psychophysics","181","727782","0.0-181.0","6339d15f5c1c670b3075f0fc","64caaf51c7ef4753e5880959","","","","","3155",""," ","key"," ","16.670212765957448","500","250","pog","196","0","0","154","1","200"
"","psychophysics","182","730246","0.0-182.0","6339d15f5c1c670b3075f0fc","64caaf51c7ef4753e5880959","","","","","2458",""," ","key"," ","16.65986394557823","500","250","pog","132","0","0","102","1","135"
"","psychophysics","183","734325","0.0-183.0","6339d15f5c1c670b3075f0fc","64caaf51c7ef4753e5880959","","","","","4075",""," ","key"," ","16.672131147540984","500","250","pog","177","0","0","113","1","177"
"","psychophysics","184","737247","0.0-184.0","6339d15f5c1c670b3075f0fc","64caaf51c7ef4753e5880959","","","","","2917",""," ","key"," ","16.666666666666668","500","250","pog","177","0","0","195","1","167"
"","psychophysics","185","741526","0.0-185.0","6339d15f5c1c670b3075f0fc","64caaf51c7ef4753e5880959","","","","","4274",""," ","key"," ","16.66796875","500","250","pog","177","0","0","103","1","174"
"","psychophysics","186","743053","0.0-186.0","6339d15f5c1c670b3075f0fc","64caaf51c7ef4753e5880959","","","","","1520",""," ","key"," ","16.666666666666668","500","250","pog","192","0","0","194","1","194"
"","psychophysics","187","746957","0.0-187.0","6339d15f5c1c670b3075f0fc","64caaf51c7ef4753e5880959","","","","","3899",""," ","key"," ","16.653846153846153","500","250","pog","174","0","0","114","1","174"
"","psychophysics","188","747933","0.0-188.0","6339d15f5c1c670b3075f0fc","64caaf51c7ef4753e5880959","","","","","972",""," ","key"," ","16.666666666666668","500","250","pog","207","0","0","207","1","200"
"","psychophysics","189","751075","0.0-189.0","6339d15f5c1c670b3075f0fc","64caaf51c7ef4753e5880959","","","","","3138",""," ","key"," ","16.664893617021278","500","250","pog","216","0","0","174","1","200"
"","psychophysics","190","753175","0.0-190.0","6339d15f5c1c670b3075f0fc","64caaf51c7ef4753e5880959","","","","","2094",""," ","key"," ","16.672","500","250","pog","180","0","0","192","1","165"
"","psychophysics","191","755116","0.0-191.0","6339d15f5c1c670b3075f0fc","64caaf51c7ef4753e5880959","","","","","1937",""," ","key"," ","16.669565217391305","500","250","pog","180","0","0","186","1","172"
"","psychophysics","192","758230","0.0-192.0","6339d15f5c1c670b3075f0fc","64caaf51c7ef4753e5880959","","","","","3109",""," ","key"," ","16.672043010752688","500","250","pog","147","0","0","109","1","133"
"","psychophysics","193","759969","0.0-193.0","6339d15f5c1c670b3075f0fc","64caaf51c7ef4753e5880959","","","","","1734",""," ","key"," ","16.66990291262136","500","250","pog","159","0","0","163","1","159"
"","psychophysics","194","760641","0.0-194.0","6339d15f5c1c670b3075f0fc","64caaf51c7ef4753e5880959","","","","","667",""," ","key"," ","16.575","500","250","inst","","","","","",""
"","psychophysics","195","765107","0.0-195.0","6339d15f5c1c670b3075f0fc","64caaf51c7ef4753e5880959","","","","","4460",""," ","key"," ","16.666666666666668","500","250","instPz4","17","","","15","2","30"
"","psychophysics","196","765708","0.0-196.0","6339d15f5c1c670b3075f0fc","64caaf51c7ef4753e5880959","","","","","597",""," ","key"," ","16.65714285714286","500","250","inst","","","","","",""
"","psychophysics","197","768973","0.0-197.0","6339d15f5c1c670b3075f0fc","64caaf51c7ef4753e5880959","","","","","3262",""," ","key"," ","16.666666666666668","500","250","pz","26","","","37","2","49"
"","psychophysics","198","772095","0.0-198.0","6339d15f5c1c670b3075f0fc","64caaf51c7ef4753e5880959","","","","","3116",""," ","key"," ","16.666666666666668","500","250","pz","36","","","57","2","49"
"","psychophysics","199","773724","0.0-199.0","6339d15f5c1c670b3075f0fc","64caaf51c7ef4753e5880959","","","","","1623",""," ","key"," ","16.670103092783506","500","250","pz","37","","","43","2","57"
"","psychophysics","200","775598","0.0-200.0","6339d15f5c1c670b3075f0fc","64caaf51c7ef4753e5880959","","","","","1868",""," ","key"," ","16.666666666666668","500","250","pz","35","","","34","2","60"
"","psychophysics","201","777942","0.0-201.0","6339d15f5c1c670b3075f0fc","64caaf51c7ef4753e5880959","","","","","2340",""," ","key"," ","16.67142857142857","500","250","pz","32","","","43","2","43"
"","psychophysics","202","780138","0.0-202.0","6339d15f5c1c670b3075f0fc","64caaf51c7ef4753e5880959","","","","","2190",""," ","key"," ","16.676923076923078","500","250","pz","35","","","46","2","47"
"","psychophysics","203","782792","0.0-203.0","6339d15f5c1c670b3075f0fc","64caaf51c7ef4753e5880959","","","","","2649",""," ","key"," ","16.635220125786162","500","250","pz","37","","","56","2","45"
"","psychophysics","204","786540","0.0-204.0","6339d15f5c1c670b3075f0fc","64caaf51c7ef4753e5880959","","","","","3744",""," ","key"," ","16.669642857142858","500","250","pz","31","","","50","2","40"
"","psychophysics","205","789291","0.0-205.0","6339d15f5c1c670b3075f0fc","64caaf51c7ef4753e5880959","","","","","2743",""," ","key"," ","16.670731707317074","500","250","pz","19","","","39","2","21"
"","psychophysics","206","792525","0.0-206.0","6339d15f5c1c670b3075f0fc","64caaf51c7ef4753e5880959","","","","","3229",""," ","key"," ","16.66839378238342","500","250","pz","32","","","24","2","51"
"","psychophysics","207","796086","0.0-207.0","6339d15f5c1c670b3075f0fc","64caaf51c7ef4753e5880959","","","","","3557",""," ","key"," ","16.66509433962264","500","250","pz","28","","","53","2","37"
"","psychophysics","208","799623","0.0-208.0","6339d15f5c1c670b3075f0fc","64caaf51c7ef4753e5880959","","","","","3530",""," ","key"," ","16.641509433962263","500","250","pz","23","","","45","2","28"
"","psychophysics","209","802823","0.0-209.0","6339d15f5c1c670b3075f0fc","64caaf51c7ef4753e5880959","","","","","3196",""," ","key"," ","16.664921465968586","500","250","pz","19","","","42","2","23"
"","psychophysics","210","804510","0.0-210.0","6339d15f5c1c670b3075f0fc","64caaf51c7ef4753e5880959","","","","","1682",""," ","key"," ","16.67","500","250","pz","15","","","20","2","22"
"","psychophysics","211","808198","0.0-211.0","6339d15f5c1c670b3075f0fc","64caaf51c7ef4753e5880959","","","","","3684",""," ","key"," ","16.668181818181818","500","250","pz","28","","","59","2","44"
