"success","trial_type","trial_index","time_elapsed","internal_node_id","pid","sid","timeout","failed_images","failed_audio","failed_video","rt","stimulus","response","response_type","key_press","avg_frame_time","center_x","center_y","task","resp","version","start","jitterX","jitterY","parA"
"true","fullscreen","0","3652","0.0-0.0","5f5eb22e58c9fb7782a6e90c","64dbc2ac0ce655347ddd5dd7","","","","","","","","","","","","","","","","","","",""
"true","preload","1","3697","0.0-1.0","5f5eb22e58c9fb7782a6e90c","64dbc2ac0ce655347ddd5dd7","false","[]","[]","[]","","","","","","","","","","","","","","",""
"","html-button-response","2","7514","0.0-2.0","5f5eb22e58c9fb7782a6e90c","64dbc2ac0ce655347ddd5dd7","","","","","3817","Please Make Sure Your Audio Is On.","0","","","","","","","","","","","",""
"","psychophysics","3","11820","0.0-3.0","5f5eb22e58c9fb7782a6e90c","64dbc2ac0ce655347ddd5dd7","","","","","4301",""," ","key"," ","20.005795348837207","1720","250","","","","","","",""
"","psychophysics","4","16172","0.0-4.0","5f5eb22e58c9fb7782a6e90c","64dbc2ac0ce655347ddd5dd7","","","","","4349",""," ","key"," ","20.005634259259264","500","250","inst","","","","","",""
"","psychophysics","5","20780","0.0-5.0","5f5eb22e58c9fb7782a6e90c","64dbc2ac0ce655347ddd5dd7","","","","","4607",""," ","key"," ","20.00591739130435","500","250","sample0","","","","","",""
"","psychophysics","6","23900","0.0-6.0","5f5eb22e58c9fb7782a6e90c","64dbc2ac0ce655347ddd5dd7","","","","","3119",""," ","key"," ","20.00565806451611","500","250","sample1","","","","","",""
"","psychophysics","7","43132","0.0-7.0","5f5eb22e58c9fb7782a6e90c","64dbc2ac0ce655347ddd5dd7","","","","","19230",""," ","key"," ","20.005716666666665","500","250","sample2","126","","","","",""
"","psychophysics","8","54892","0.0-8.0","5f5eb22e58c9fb7782a6e90c","64dbc2ac0ce655347ddd5dd7","","","","","11759",""," ","key"," ","20.0057597955707","500","250","sample3","100","","","","",""
"","psychophysics","9","66396","0.0-9.0","5f5eb22e58c9fb7782a6e90c","64dbc2ac0ce655347ddd5dd7","","","","","11503",""," ","key"," ","20.005675958188156","500","250","sample4","100","","","","",""
"","psychophysics","10","70860","0.0-10.0","5f5eb22e58c9fb7782a6e90c","64dbc2ac0ce655347ddd5dd7","","","","","4463",""," ","key"," ","20.00559009009013","500","250","sample5","","","","","",""
"","psychophysics","11","83148","0.0-11.0","5f5eb22e58c9fb7782a6e90c","64dbc2ac0ce655347ddd5dd7","","","","","12287",""," ","key"," ","20.00574877650898","500","250","sample6","498","","","","",""
"","psychophysics","12","100444","0.0-12.0","5f5eb22e58c9fb7782a6e90c","64dbc2ac0ce655347ddd5dd7","","","","","17295",""," ","key"," ","20.005760416666664","500","250","inst","","","","","",""
"","psychophysics","13","104588","0.0-13.0","5f5eb22e58c9fb7782a6e90c","64dbc2ac0ce655347ddd5dd7","","","","","4143",""," ","key"," ","20.00570873786404","500","250","inst","","","","","",""
"","psychophysics","14","107932","0.0-14.0","5f5eb22e58c9fb7782a6e90c","64dbc2ac0ce655347ddd5dd7","","","","","3343",""," ","key"," ","20.005650602409606","500","250","inst","","","","","",""
"","psychophysics","15","110172","0.0-15.0","5f5eb22e58c9fb7782a6e90c","64dbc2ac0ce655347ddd5dd7","","","","","2239",""," ","key"," ","20.005729729729715","500","250","inst","","","","","",""
"","psychophysics","16","111900","0.0-16.0","5f5eb22e58c9fb7782a6e90c","64dbc2ac0ce655347ddd5dd7","","","","","1727",""," ","key"," ","20.005294117647026","500","250","inst","","","","","",""
"","psychophysics","17","124572","0.0-17.0","5f5eb22e58c9fb7782a6e90c","64dbc2ac0ce655347ddd5dd7","","","","","12671",""," ","key"," ","20.00576935229068","500","250","instPog0","190","1","190","0","0","160"
"","psychophysics","18","133676","0.0-18.0","5f5eb22e58c9fb7782a6e90c","64dbc2ac0ce655347ddd5dd7","","","","","9103",""," ","key"," ","20.005643171806145","500","250","instPog1","166","1","190","0","0","160"
"","psychophysics","19","139884","0.0-19.0","5f5eb22e58c9fb7782a6e90c","64dbc2ac0ce655347ddd5dd7","","","","","6206",""," ","key"," ","20.005695792880196","500","250","instPog2","160","1","160","0","0","160"
"","psychophysics","20","144156","0.0-20.0","5f5eb22e58c9fb7782a6e90c","64dbc2ac0ce655347ddd5dd7","","","","","4271",""," ","key"," ","20.005661971831014","500","250","inst","","","","","",""
"","psychophysics","21","152159","0.0-21.0","5f5eb22e58c9fb7782a6e90c","64dbc2ac0ce655347ddd5dd7","","","","","null","","null","key","null","20.005711779448646","500","250","pog","142","1","196","0","0","123"
"","psychophysics","22","160160","0.0-22.0","5f5eb22e58c9fb7782a6e90c","64dbc2ac0ce655347ddd5dd7","","","","","null","","null","key","null","20.00581453634087","500","250","pog","205","1","177","0","0","190"
"","psychophysics","23","168161","0.0-23.0","5f5eb22e58c9fb7782a6e90c","64dbc2ac0ce655347ddd5dd7","","","","","null","","null","key","null","20.005746867167932","500","250","pog","204","1","202","0","0","187"
"","psychophysics","24","174860","0.0-24.0","5f5eb22e58c9fb7782a6e90c","64dbc2ac0ce655347ddd5dd7","","","","","6698",""," ","key"," ","20.005783783783805","500","250","pog","165","1","175","0","0","150"
"","psychophysics","25","182862","0.0-25.0","5f5eb22e58c9fb7782a6e90c","64dbc2ac0ce655347ddd5dd7","","","","","null","","null","key","null","20.00581203007516","500","250","pog","205","1","127","0","0","194"
"","psychophysics","26","190364","0.0-26.0","5f5eb22e58c9fb7782a6e90c","64dbc2ac0ce655347ddd5dd7","","","","","7501",""," ","key"," ","20.00571122994652","500","250","pog","135","1","193","0","0","123"
"","psychophysics","27","198236","0.0-27.0","5f5eb22e58c9fb7782a6e90c","64dbc2ac0ce655347ddd5dd7","","","","","7870",""," ","key"," ","20.005730279898238","500","250","pog","195","1","129","0","0","185"
"","psychophysics","28","205596","0.0-28.0","5f5eb22e58c9fb7782a6e90c","64dbc2ac0ce655347ddd5dd7","","","","","7359",""," ","key"," ","20.005670299727537","500","250","pog","139","1","157","0","0","130"
"","psychophysics","29","210476","0.0-29.0","5f5eb22e58c9fb7782a6e90c","64dbc2ac0ce655347ddd5dd7","","","","","4879",""," ","key"," ","20.00560905349799","500","250","pog","143","1","149","0","0","135"
"","psychophysics","30","217340","0.0-30.0","5f5eb22e58c9fb7782a6e90c","64dbc2ac0ce655347ddd5dd7","","","","","6863",""," ","key"," ","20.00576315789471","500","250","pog","143","1","175","0","0","133"
"","psychophysics","31","223068","0.0-31.0","5f5eb22e58c9fb7782a6e90c","64dbc2ac0ce655347ddd5dd7","","","","","5726",""," ","key"," ","20.005719298245527","500","250","pog","159","1","185","0","0","149"
"","psychophysics","32","228812","0.0-32.0","5f5eb22e58c9fb7782a6e90c","64dbc2ac0ce655347ddd5dd7","","","","","5743",""," ","key"," ","20.00576223776229","500","250","pog","148","1","126","0","0","135"
"","psychophysics","33","235564","0.0-33.0","5f5eb22e58c9fb7782a6e90c","64dbc2ac0ce655347ddd5dd7","","","","","6751",""," ","key"," ","20.005735905044567","500","250","pog","171","1","191","0","0","160"
"","psychophysics","34","243565","0.0-34.0","5f5eb22e58c9fb7782a6e90c","64dbc2ac0ce655347ddd5dd7","","","","","null","","null","key","null","20.005786967418494","500","250","pog","147","1","207","0","0","135"
"","psychophysics","35","250379","0.0-35.0","5f5eb22e58c9fb7782a6e90c","64dbc2ac0ce655347ddd5dd7","","","","","6813",""," ","key"," ","20.00569911504425","500","250","pog","188","1","138","0","0","178"
"","psychophysics","36","280684","0.0-36.0","5f5eb22e58c9fb7782a6e90c","64dbc2ac0ce655347ddd5dd7","","","","","30303",""," ","key"," ","20.005739762219267","500","250","inst","","","","","",""
"","psychophysics","37","332268","0.0-37.0","5f5eb22e58c9fb7782a6e90c","64dbc2ac0ce655347ddd5dd7","","","","","51582",""," ","key"," ","20.00572924747865","500","250","instZol0","0","","0","0","0",""
"","psychophysics","38","341372","0.0-38.0","5f5eb22e58c9fb7782a6e90c","64dbc2ac0ce655347ddd5dd7","","","","","9103",""," ","key"," ","20.005729074889793","500","250","instZol1","1.5000000000000002","","-1.3","0","0",""
"","psychophysics","39","347260","0.0-39.0","5f5eb22e58c9fb7782a6e90c","64dbc2ac0ce655347ddd5dd7","","","","","5885",""," ","key"," ","20.0056177474403","500","250","instZol2","1.0000000000000007","1","2","0","0",""
"","psychophysics","40","351244","0.0-40.0","5f5eb22e58c9fb7782a6e90c","64dbc2ac0ce655347ddd5dd7","","","","","3983",""," ","key"," ","20.005666666666535","500","250","inst","","","","","",""
"","psychophysics","41","358348","0.0-41.0","5f5eb22e58c9fb7782a6e90c","64dbc2ac0ce655347ddd5dd7","","","","","7101",""," ","key"," ","20.005759887005784","500","250","zol","1.4300000000000004","1","0.57","-27","-13",""
"","psychophysics","42","364876","0.0-42.0","5f5eb22e58c9fb7782a6e90c","64dbc2ac0ce655347ddd5dd7","","","","","6526",""," ","key"," ","20.00578461538463","500","250","zol","1.2300000000000002","1","0.27","-7","10",""
"","psychophysics","43","372044","0.0-43.0","5f5eb22e58c9fb7782a6e90c","64dbc2ac0ce655347ddd5dd7","","","","","7164",""," ","key"," ","20.005860335195525","500","250","zol","0.8999999999999999","1","0.2","12","-8",""
"","psychophysics","44","380046","0.0-44.0","5f5eb22e58c9fb7782a6e90c","64dbc2ac0ce655347ddd5dd7","","","","","null","","null","key","null","20.00568421052627","500","250","zol","1.19","1","-0.49","28","22",""
"","psychophysics","45","388048","0.0-45.0","5f5eb22e58c9fb7782a6e90c","64dbc2ac0ce655347ddd5dd7","","","","","null","","null","key","null","20.005744360902295","500","250","zol","1.02","1","0.28","26","29",""
"","psychophysics","46","394332","0.0-46.0","5f5eb22e58c9fb7782a6e90c","64dbc2ac0ce655347ddd5dd7","","","","","6282",""," ","key"," ","20.005693290734847","500","250","zol","1.14","1","0.56","-12","-22",""
"","psychophysics","47","401084","0.0-47.0","5f5eb22e58c9fb7782a6e90c","64dbc2ac0ce655347ddd5dd7","","","","","6750",""," ","key"," ","20.00567261904767","500","250","zol","1.12","1","0.58","10","-3",""
"","psychophysics","48","408172","0.0-48.0","5f5eb22e58c9fb7782a6e90c","64dbc2ac0ce655347ddd5dd7","","","","","7086",""," ","key"," ","20.00573728813564","500","250","zol","1.0899999999999999","1","-0.69","-13","5",""
"","psychophysics","49","414876","0.0-49.0","5f5eb22e58c9fb7782a6e90c","64dbc2ac0ce655347ddd5dd7","","","","","6701",""," ","key"," ","20.005730538922126","500","250","zol","1.29","1","-0.19","-30","9",""
"","psychophysics","50","422880","0.0-50.0","5f5eb22e58c9fb7782a6e90c","64dbc2ac0ce655347ddd5dd7","","","","","null","","null","key","null","20.005696741854603","500","250","zol","1.28","1","-0.48","20","-12",""
"","psychophysics","51","422908","0.0-51.0","5f5eb22e58c9fb7782a6e90c","64dbc2ac0ce655347ddd5dd7","","","","","26",""," ","key"," ","NaN","500","250","zol","0.56","1","-0.56","24","30",""
"","psychophysics","52","430911","0.0-52.0","5f5eb22e58c9fb7782a6e90c","64dbc2ac0ce655347ddd5dd7","","","","","null","","null","key","null","20.005716791979847","500","250","zol","1.12","1","-0.72","19","23",""
"","psychophysics","53","437900","0.0-53.0","5f5eb22e58c9fb7782a6e90c","64dbc2ac0ce655347ddd5dd7","","","","","6987",""," ","key"," ","20.005693409742186","500","250","zol","1.4100000000000004","1","-0.51","-28","-20",""
"","psychophysics","54","443660","0.0-54.0","5f5eb22e58c9fb7782a6e90c","64dbc2ac0ce655347ddd5dd7","","","","","5758",""," ","key"," ","20.005651567944362","500","250","zol","1.4100000000000004","1","-0.41","-7","-19",""
"","psychophysics","55","451020","0.0-55.0","5f5eb22e58c9fb7782a6e90c","64dbc2ac0ce655347ddd5dd7","","","","","7357",""," ","key"," ","20.00571311475414","500","250","zol","1.3400000000000003","1","-0.64","-27","21",""
"","psychophysics","56","453212","0.0-56.0","5f5eb22e58c9fb7782a6e90c","64dbc2ac0ce655347ddd5dd7","","","","","2190",""," ","key"," ","20.005577981651445","500","250","inst","","","","","",""
"","psychophysics","57","456300","0.0-57.0","5f5eb22e58c9fb7782a6e90c","64dbc2ac0ce655347ddd5dd7","","","","","3087",""," ","key"," ","20.00573202614365","500","250","instEB0","40","","40","0","0","40"
"","psychophysics","58","460812","0.0-58.0","5f5eb22e58c9fb7782a6e90c","64dbc2ac0ce655347ddd5dd7","","","","","4511",""," ","key"," ","20.00566666666677","500","250","instEB1","30","1","30","0","0","70"
"","psychophysics","59","467725","0.0-59.0","5f5eb22e58c9fb7782a6e90c","64dbc2ac0ce655347ddd5dd7","","","","","6910",""," ","key"," ","20.00562209302328","500","250","instEB2","61","1","60","0","0","40"
"","psychophysics","60","479996","0.0-60.0","5f5eb22e58c9fb7782a6e90c","64dbc2ac0ce655347ddd5dd7","","","","","12269",""," ","key"," ","20.00576835236545","500","250","instEB3","74","1","45","0","0","65"
"","psychophysics","61","488124","0.0-61.0","5f5eb22e58c9fb7782a6e90c","64dbc2ac0ce655347ddd5dd7","","","","","8127",""," ","key"," ","20.005706172839474","500","250","instEB4","54","1","40","0","0","40"
"","psychophysics","62","490652","0.0-62.0","5f5eb22e58c9fb7782a6e90c","64dbc2ac0ce655347ddd5dd7","","","","","2527",""," ","key"," ","20.005783999999984","500","250","inst","","","","","",""
"","psychophysics","63","497948","0.0-63.0","5f5eb22e58c9fb7782a6e90c","64dbc2ac0ce655347ddd5dd7","","","","","7292",""," ","key"," ","20.00579120879123","500","250","eb","40","1","36","0","0","28"
"","psychophysics","64","503052","0.0-64.0","5f5eb22e58c9fb7782a6e90c","64dbc2ac0ce655347ddd5dd7","","","","","5102",""," ","key"," ","20.00568897637798","500","250","eb","45","1","28","0","0","39"
"","psychophysics","65","507788","0.0-65.0","5f5eb22e58c9fb7782a6e90c","64dbc2ac0ce655347ddd5dd7","","","","","4734",""," ","key"," ","20.005724576271042","500","250","eb","46","1","27","0","0","43"
"","psychophysics","66","512412","0.0-66.0","5f5eb22e58c9fb7782a6e90c","64dbc2ac0ce655347ddd5dd7","","","","","4622",""," ","key"," ","20.005760869565016","500","250","eb","51","1","37","0","0","47"
"","psychophysics","67","517084","0.0-67.0","5f5eb22e58c9fb7782a6e90c","64dbc2ac0ce655347ddd5dd7","","","","","4670",""," ","key"," ","20.00564806866949","500","250","eb","34","1","44","0","0","28"
"","psychophysics","68","521852","0.0-68.0","5f5eb22e58c9fb7782a6e90c","64dbc2ac0ce655347ddd5dd7","","","","","4766",""," ","key"," ","20.005818565400663","500","250","eb","34","1","42","0","0","28"
"","psychophysics","69","528204","0.0-69.0","5f5eb22e58c9fb7782a6e90c","64dbc2ac0ce655347ddd5dd7","","","","","6350",""," ","key"," ","20.005804416403684","500","250","eb","52","1","39","0","0","43"
"","psychophysics","70","534140","0.0-70.0","5f5eb22e58c9fb7782a6e90c","64dbc2ac0ce655347ddd5dd7","","","","","5934",""," ","key"," ","20.005783050847477","500","250","eb","35","1","47","0","0","26"
"","psychophysics","71","538092","0.0-71.0","5f5eb22e58c9fb7782a6e90c","64dbc2ac0ce655347ddd5dd7","","","","","3950",""," ","key"," ","20.00566497461889","500","250","eb","50","1","47","0","0","44"
"","psychophysics","72","543244","0.0-72.0","5f5eb22e58c9fb7782a6e90c","64dbc2ac0ce655347ddd5dd7","","","","","5150",""," ","key"," ","20.005753906249993","500","250","eb","31","1","27","0","0","28"
"","psychophysics","73","549228","0.0-73.0","5f5eb22e58c9fb7782a6e90c","64dbc2ac0ce655347ddd5dd7","","","","","5981",""," ","key"," ","20.005687919463305","500","250","eb","54","1","34","0","0","50"
"","psychophysics","74","553996","0.0-74.0","5f5eb22e58c9fb7782a6e90c","64dbc2ac0ce655347ddd5dd7","","","","","4766",""," ","key"," ","20.005802521008132","500","250","eb","53","1","39","0","0","49"
"","psychophysics","75","557404","0.0-75.0","5f5eb22e58c9fb7782a6e90c","64dbc2ac0ce655347ddd5dd7","","","","","3406",""," ","key"," ","20.00573372781089","500","250","eb","40","1","24","0","0","36"
"","psychophysics","76","561964","0.0-76.0","5f5eb22e58c9fb7782a6e90c","64dbc2ac0ce655347ddd5dd7","","","","","4559",""," ","key"," ","20.005788546255562","500","250","eb","35","1","41","0","0","27"
"","psychophysics","77","566316","0.0-77.0","5f5eb22e58c9fb7782a6e90c","64dbc2ac0ce655347ddd5dd7","","","","","4350",""," ","key"," ","20.005631336405838","500","250","eb","62","1","48","0","0","54"
"","psychophysics","78","568396","0.0-78.0","5f5eb22e58c9fb7782a6e90c","64dbc2ac0ce655347ddd5dd7","","","","","2079",""," ","key"," ","20.005456310678817","500","250","inst","","","","","",""
"","psychophysics","79","571372","0.0-79.0","5f5eb22e58c9fb7782a6e90c","64dbc2ac0ce655347ddd5dd7","","","","","2974",""," ","key"," ","20.00568707483","500","250","instBr0","0","","0","0","0","300"
"","psychophysics","80","582012","0.0-80.0","5f5eb22e58c9fb7782a6e90c","64dbc2ac0ce655347ddd5dd7","","","","","10639",""," ","key"," ","20.00577589453846","500","250","instBr1","2","","-40","0","0","300"
"","psychophysics","81","592044","0.0-81.0","5f5eb22e58c9fb7782a6e90c","64dbc2ac0ce655347ddd5dd7","","","","","10030",""," ","key"," ","20.005736526946244","500","250","instBr3","23","2","40","0","0","300"
"","psychophysics","82","600125","0.0-82.0","5f5eb22e58c9fb7782a6e90c","64dbc2ac0ce655347ddd5dd7","","","","","8079",""," ","key"," ","20.005655086848876","500","250","inst","","","","","",""
"","psychophysics","83","606252","0.0-83.0","5f5eb22e58c9fb7782a6e90c","64dbc2ac0ce655347ddd5dd7","","","","","6126",""," ","key"," ","20.00568196721314","500","250","br","23","2","-28","-11","-15","287"
"","psychophysics","84","609068","0.0-84.0","5f5eb22e58c9fb7782a6e90c","64dbc2ac0ce655347ddd5dd7","","","","","2815",""," ","key"," ","20.00559285714324","500","250","br","25","2","26","10","-10","294"
"","psychophysics","85","612940","0.0-85.0","5f5eb22e58c9fb7782a6e90c","64dbc2ac0ce655347ddd5dd7","","","","","3870",""," ","key"," ","20.005687500000324","500","250","br","18","2","-20","-15","-25","244"
"","psychophysics","86","616364","0.0-86.0","5f5eb22e58c9fb7782a6e90c","64dbc2ac0ce655347ddd5dd7","","","","","3423",""," ","key"," ","20.0055117647054","500","250","br","14","2","4","2","11","265"
"","psychophysics","87","621740","0.0-87.0","5f5eb22e58c9fb7782a6e90c","64dbc2ac0ce655347ddd5dd7","","","","","5375",""," ","key"," ","20.00563805970127","500","250","br","13","2","-22","-18","0","219"
"","psychophysics","88","625948","0.0-88.0","5f5eb22e58c9fb7782a6e90c","64dbc2ac0ce655347ddd5dd7","","","","","4207",""," ","key"," ","20.005665071770377","500","250","br","14","2","1","13","16","280"
"","psychophysics","89","629004","0.0-89.0","5f5eb22e58c9fb7782a6e90c","64dbc2ac0ce655347ddd5dd7","","","","","3054",""," ","key"," ","20.00571710526358","500","250","br","19","2","-6","14","-13","257"
"","psychophysics","90","633452","0.0-90.0","5f5eb22e58c9fb7782a6e90c","64dbc2ac0ce655347ddd5dd7","","","","","4447",""," ","key"," ","20.00571945701395","500","250","br","21","2","30","2","-10","235"
"","psychophysics","91","638556","0.0-91.0","5f5eb22e58c9fb7782a6e90c","64dbc2ac0ce655347ddd5dd7","","","","","5102",""," ","key"," ","20.0057843137254","500","250","br","18","2","3","29","9","280"
"","psychophysics","92","642764","0.0-92.0","5f5eb22e58c9fb7782a6e90c","64dbc2ac0ce655347ddd5dd7","","","","","4207",""," ","key"," ","20.005545454545384","500","250","br","19","2","15","-8","6","253"
"","psychophysics","93","646012","0.0-93.0","5f5eb22e58c9fb7782a6e90c","64dbc2ac0ce655347ddd5dd7","","","","","3247",""," ","key"," ","20.005708074534127","500","250","br","17","2","1","-8","0","207"
"","psychophysics","94","649916","0.0-94.0","5f5eb22e58c9fb7782a6e90c","64dbc2ac0ce655347ddd5dd7","","","","","3903",""," ","key"," ","20.005608247423222","500","250","br","13","2","-29","8","19","208"
"","psychophysics","95","654396","0.0-95.0","5f5eb22e58c9fb7782a6e90c","64dbc2ac0ce655347ddd5dd7","","","","","4479",""," ","key"," ","20.005847533632302","500","250","br","20","2","29","-20","-4","204"
"","psychophysics","96","658221","0.0-96.0","5f5eb22e58c9fb7782a6e90c","64dbc2ac0ce655347ddd5dd7","","","","","3823",""," ","key"," ","20.005636842105243","500","250","br","15","2","-5","-4","-5","268"
"","psychophysics","97","661629","0.0-97.0","5f5eb22e58c9fb7782a6e90c","64dbc2ac0ce655347ddd5dd7","","","","","3406",""," ","key"," ","20.00579411764698","500","250","br","13","2","-23","3","21","211"
"","psychophysics","98","663261","0.0-98.0","5f5eb22e58c9fb7782a6e90c","64dbc2ac0ce655347ddd5dd7","","","","","1631",""," ","key"," ","20.00564999999915","500","250","inst","","","","","",""
"","psychophysics","99","667149","0.0-99.0","5f5eb22e58c9fb7782a6e90c","64dbc2ac0ce655347ddd5dd7","","","","","3885",""," ","key"," ","20.005778350515683","500","250","instPzPre","50","0","50","","","50"
"","psychophysics","100","671549","0.0-100.0","5f5eb22e58c9fb7782a6e90c","64dbc2ac0ce655347ddd5dd7","","","","","4399",""," ","key"," ","20.005908675799063","500","250","instPz0","50","1","50","","","50"
"","psychophysics","101","682861","0.0-101.0","5f5eb22e58c9fb7782a6e90c","64dbc2ac0ce655347ddd5dd7","","","","","11311",""," ","key"," ","20.00566843971618","500","250","instPz1","56","1","25","","","50"
"","psychophysics","102","697389","0.0-102.0","5f5eb22e58c9fb7782a6e90c","64dbc2ac0ce655347ddd5dd7","","","","","14527",""," ","key"," ","20.00575172413799","500","250","instPz2","22","1","35","","","20"
"","psychophysics","103","713037","0.0-103.0","5f5eb22e58c9fb7782a6e90c","64dbc2ac0ce655347ddd5dd7","","","","","15645",""," ","key"," ","20.005740076824594","500","250","instPz3","42","1","100","","","30"
"","psychophysics","104","722285","0.0-104.0","5f5eb22e58c9fb7782a6e90c","64dbc2ac0ce655347ddd5dd7","","","","","9245",""," ","key"," ","20.005854978354886","500","250","instPz4","53","1","100","","","30"
"","psychophysics","105","725789","0.0-105.0","5f5eb22e58c9fb7782a6e90c","64dbc2ac0ce655347ddd5dd7","","","","","3503",""," ","key"," ","20.00560919540244","500","250","inst","","","","","",""
"","psychophysics","106","727805","0.0-106.0","5f5eb22e58c9fb7782a6e90c","64dbc2ac0ce655347ddd5dd7","","","","","2014",""," ","key"," ","20.005719999999272","500","250","pz","32","1","32","","","25"
"","psychophysics","107","729709","0.0-107.0","5f5eb22e58c9fb7782a6e90c","64dbc2ac0ce655347ddd5dd7","","","","","1903",""," ","key"," ","20.00562765957426","500","250","pz","52","1","52","","","44"
"","psychophysics","108","731053","0.0-108.0","5f5eb22e58c9fb7782a6e90c","64dbc2ac0ce655347ddd5dd7","","","","","1342",""," ","key"," ","20.005666666665945","500","250","pz","39","1","39","","","29"
"","psychophysics","109","735181","0.0-109.0","5f5eb22e58c9fb7782a6e90c","64dbc2ac0ce655347ddd5dd7","","","","","4127",""," ","key"," ","20.00566829268298","500","250","pz","51","1","27","","","46"
"","psychophysics","110","739117","0.0-110.0","5f5eb22e58c9fb7782a6e90c","64dbc2ac0ce655347ddd5dd7","","","","","3935",""," ","key"," ","20.00577040816353","500","250","pz","55","1","29","","","44"
"","psychophysics","111","741101","0.0-111.0","5f5eb22e58c9fb7782a6e90c","64dbc2ac0ce655347ddd5dd7","","","","","1983",""," ","key"," ","20.00568367346969","500","250","pz","48","1","48","","","36"
"","psychophysics","112","745405","0.0-112.0","5f5eb22e58c9fb7782a6e90c","64dbc2ac0ce655347ddd5dd7","","","","","4302",""," ","key"," ","20.005710280373602","500","250","pz","38","1","45","","","28"
"","psychophysics","113","749341","0.0-113.0","5f5eb22e58c9fb7782a6e90c","64dbc2ac0ce655347ddd5dd7","","","","","3934",""," ","key"," ","20.005678571428632","500","250","pz","69","1","28","","","57"
"","psychophysics","114","752845","0.0-114.0","5f5eb22e58c9fb7782a6e90c","64dbc2ac0ce655347ddd5dd7","","","","","3503",""," ","key"," ","20.005551724138016","500","250","pz","64","1","49","","","55"
"","psychophysics","115","754461","0.0-115.0","5f5eb22e58c9fb7782a6e90c","64dbc2ac0ce655347ddd5dd7","","","","","1615",""," ","key"," ","20.258886075948507","500","250","pz","58","1","58","","","47"
"","psychophysics","116","760397","0.0-116.0","5f5eb22e58c9fb7782a6e90c","64dbc2ac0ce655347ddd5dd7","","","","","5935",""," ","key"," ","20.00575337837831","500","250","pz","41","1","55","","","29"
"","psychophysics","117","766909","0.0-117.0","5f5eb22e58c9fb7782a6e90c","64dbc2ac0ce655347ddd5dd7","","","","","6511",""," ","key"," ","20.005651234567917","500","250","pz","47","1","20","","","34"
"","psychophysics","118","772205","0.0-118.0","5f5eb22e58c9fb7782a6e90c","64dbc2ac0ce655347ddd5dd7","","","","","5295",""," ","key"," ","20.005655303030366","500","250","pz","31","1","38","","","22"
"","psychophysics","119","776925","0.0-119.0","5f5eb22e58c9fb7782a6e90c","64dbc2ac0ce655347ddd5dd7","","","","","4719",""," ","key"," ","20.005702127659436","500","250","pz","67","1","40","","","55"
"","psychophysics","120","782205","0.0-120.0","5f5eb22e58c9fb7782a6e90c","64dbc2ac0ce655347ddd5dd7","","","","","5278",""," ","key"," ","20.005657794676853","500","250","pz","61","1","49","","","53"
"","psychophysics","121","785485","0.0-121.0","5f5eb22e58c9fb7782a6e90c","64dbc2ac0ce655347ddd5dd7","","","","","3279",""," ","key"," ","20.005766871166017","500","250","inst","","","","","",""
"","psychophysics","122","798316","0.0-122.0","5f5eb22e58c9fb7782a6e90c","64dbc2ac0ce655347ddd5dd7","","","","","12830",""," ","key"," ","20.00576406249984","500","250","instZol1","0.4999999999999998","","-1.3","0","0",""
"","psychophysics","123","813789","0.0-123.0","5f5eb22e58c9fb7782a6e90c","64dbc2ac0ce655347ddd5dd7","","","","","15470",""," ","key"," ","20.005655886157793","500","250","instZol2","-1.1999999999999993","2","2","0","0",""
"","psychophysics","124","815469","0.0-124.0","5f5eb22e58c9fb7782a6e90c","64dbc2ac0ce655347ddd5dd7","","","","","1678",""," ","key"," ","20.005867469879092","500","250","inst","","","","","",""
"","psychophysics","125","822173","0.0-125.0","5f5eb22e58c9fb7782a6e90c","64dbc2ac0ce655347ddd5dd7","","","","","6702",""," ","key"," ","20.00564670658665","500","250","zol","-0.9199999999999999","2","0.32","-13","-14",""
"","psychophysics","126","828877","0.0-126.0","5f5eb22e58c9fb7782a6e90c","64dbc2ac0ce655347ddd5dd7","","","","","6702",""," ","key"," ","20.005703592814456","500","250","zol","-1.2500000000000002","2","0.75","25","-5",""
"","psychophysics","127","834381","0.0-127.0","5f5eb22e58c9fb7782a6e90c","64dbc2ac0ce655347ddd5dd7","","","","","5502",""," ","key"," ","20.005671532846304","500","250","zol","-1.35","2","-0.55","26","5",""
"","psychophysics","128","842383","0.0-128.0","5f5eb22e58c9fb7782a6e90c","64dbc2ac0ce655347ddd5dd7","","","","","null","","null","key","null","20.005686716791907","500","250","zol","-1.1400000000000001","2","0.64","3","-3",""
"","psychophysics","129","842557","0.0-129.0","5f5eb22e58c9fb7782a6e90c","64dbc2ac0ce655347ddd5dd7","","","","","172",""," ","key"," ","20.00625000000582","500","250","zol","0.08","2","-0.08","15","-13",""
"","psychophysics","130","849213","0.0-130.0","5f5eb22e58c9fb7782a6e90c","64dbc2ac0ce655347ddd5dd7","","","","","6654",""," ","key"," ","20.005679758308172","500","250","zol","-0.8999999999999999","2","0.4","26","-11",""
"","psychophysics","131","855101","0.0-131.0","5f5eb22e58c9fb7782a6e90c","64dbc2ac0ce655347ddd5dd7","","","","","5886",""," ","key"," ","20.005574829932254","500","250","zol","-0.8599999999999998","2","-0.44","6","-19",""
"","psychophysics","132","858877","0.0-132.0","5f5eb22e58c9fb7782a6e90c","64dbc2ac0ce655347ddd5dd7","","","","","3773",""," ","key"," ","20.005791443850182","500","250","zol","-1.2200000000000002","2","-0.18","9","-9",""
"","psychophysics","133","863101","0.0-133.0","5f5eb22e58c9fb7782a6e90c","64dbc2ac0ce655347ddd5dd7","","","","","4221",""," ","key"," ","20.005819905213283","500","250","zol","-0.9599999999999999","2","-0.04","-19","-30",""
"","psychophysics","134","868477","0.0-134.0","5f5eb22e58c9fb7782a6e90c","64dbc2ac0ce655347ddd5dd7","","","","","5373",""," ","key"," ","20.005580524344534","500","250","zol","-0.8399999999999999","2","0.24","-16","22",""
"","psychophysics","135","873501","0.0-135.0","5f5eb22e58c9fb7782a6e90c","64dbc2ac0ce655347ddd5dd7","","","","","5022",""," ","key"," ","20.005691999999808","500","250","zol","-1.29","2","-0.21","-19","15",""
"","psychophysics","136","877293","0.0-136.0","5f5eb22e58c9fb7782a6e90c","64dbc2ac0ce655347ddd5dd7","","","","","3790",""," ","key"," ","20.112127659574245","500","250","zol","-0.9699999999999999","2","-0.53","-10","3",""
"","psychophysics","137","882141","0.0-137.0","5f5eb22e58c9fb7782a6e90c","64dbc2ac0ce655347ddd5dd7","","","","","4846",""," ","key"," ","20.00575518672194","500","250","zol","-1.2400000000000002","2","-0.26","4","21",""
"","psychophysics","138","888125","0.0-138.0","5f5eb22e58c9fb7782a6e90c","64dbc2ac0ce655347ddd5dd7","","","","","5981",""," ","key"," ","20.005681208053982","500","250","zol","-0.9999999999999999","2","-0.4","-12","11",""
"","psychophysics","139","892957","0.0-139.0","5f5eb22e58c9fb7782a6e90c","64dbc2ac0ce655347ddd5dd7","","","","","4830",""," ","key"," ","20.00579253112012","500","250","zol","-1.2400000000000002","2","0.14","-25","-1",""
"","psychophysics","140","904781","0.0-140.0","5f5eb22e58c9fb7782a6e90c","64dbc2ac0ce655347ddd5dd7","","","","","11823",""," ","key"," ","20.005716949152383","500","250","inst","","","","","",""
"","psychophysics","141","914605","0.0-141.0","5f5eb22e58c9fb7782a6e90c","64dbc2ac0ce655347ddd5dd7","","","","","9823",""," ","key"," ","20.005708163265346","500","250","instPz1","44","2","25","","","50"
"","psychophysics","142","918525","0.0-142.0","5f5eb22e58c9fb7782a6e90c","64dbc2ac0ce655347ddd5dd7","","","","","3919",""," ","key"," ","20.0057179487179","500","250","instPz2","31","2","20","","","35"
"","psychophysics","143","931837","0.0-143.0","5f5eb22e58c9fb7782a6e90c","64dbc2ac0ce655347ddd5dd7","","","","","13310",""," ","key"," ","20.0056987951807","500","250","instPz3","53","2","30","","","100"
"","psychophysics","144","939197","0.0-144.0","5f5eb22e58c9fb7782a6e90c","64dbc2ac0ce655347ddd5dd7","","","","","7355",""," ","key"," ","20.005784741144474","500","250","instPz4","48","2","30","","","100"
"","psychophysics","145","940509","0.0-145.0","5f5eb22e58c9fb7782a6e90c","64dbc2ac0ce655347ddd5dd7","","","","","1311",""," ","key"," ","20.005876923076666","500","250","inst","","","","","",""
"","psychophysics","146","944717","0.0-146.0","5f5eb22e58c9fb7782a6e90c","64dbc2ac0ce655347ddd5dd7","","","","","4206",""," ","key"," ","20.005688995215372","500","250","pz","20","2","34","","","24"
"","psychophysics","147","947741","0.0-147.0","5f5eb22e58c9fb7782a6e90c","64dbc2ac0ce655347ddd5dd7","","","","","3022",""," ","key"," ","20.005560000000212","500","250","pz","21","2","27","","","27"
"","psychophysics","148","953709","0.0-148.0","5f5eb22e58c9fb7782a6e90c","64dbc2ac0ce655347ddd5dd7","","","","","5966",""," ","key"," ","20.005758389261796","500","250","pz","35","2","20","","","60"
"","psychophysics","149","958525","0.0-149.0","5f5eb22e58c9fb7782a6e90c","64dbc2ac0ce655347ddd5dd7","","","","","4815",""," ","key"," ","20.005728033472586","500","250","pz","36","2","46","","","54"
"","psychophysics","150","963101","0.0-150.0","5f5eb22e58c9fb7782a6e90c","64dbc2ac0ce655347ddd5dd7","","","","","4574",""," ","key"," ","20.00569736842105","500","250","pz","32","2","41","","","39"
"","psychophysics","151","967533","0.0-151.0","5f5eb22e58c9fb7782a6e90c","64dbc2ac0ce655347ddd5dd7","","","","","4431",""," ","key"," ","20.00574208144836","500","250","pz","30","2","38","","","34"
"","psychophysics","152","971677","0.0-152.0","5f5eb22e58c9fb7782a6e90c","64dbc2ac0ce655347ddd5dd7","","","","","4142",""," ","key"," ","20.00568932038845","500","250","pz","18","2","35","","","20"
"","psychophysics","153","976093","0.0-153.0","5f5eb22e58c9fb7782a6e90c","64dbc2ac0ce655347ddd5dd7","","","","","4415",""," ","key"," ","20.00565454545484","500","250","pz","20","2","43","","","23"
"","psychophysics","154","980749","0.0-154.0","5f5eb22e58c9fb7782a6e90c","64dbc2ac0ce655347ddd5dd7","","","","","4653",""," ","key"," ","20.005826839826923","500","250","pz","26","2","60","","","34"
"","psychophysics","155","986093","0.0-155.0","5f5eb22e58c9fb7782a6e90c","64dbc2ac0ce655347ddd5dd7","","","","","5342",""," ","key"," ","20.00569548872186","500","250","pz","32","2","29","","","50"
"","psychophysics","156","990589","0.0-156.0","5f5eb22e58c9fb7782a6e90c","64dbc2ac0ce655347ddd5dd7","","","","","4494",""," ","key"," ","20.00577678571426","500","250","pz","32","2","20","","","54"
"","psychophysics","157","994125","0.0-157.0","5f5eb22e58c9fb7782a6e90c","64dbc2ac0ce655347ddd5dd7","","","","","3535",""," ","key"," ","20.00562499999995","500","250","pz","34","2","46","","","41"
"","psychophysics","158","998701","0.0-158.0","5f5eb22e58c9fb7782a6e90c","64dbc2ac0ce655347ddd5dd7","","","","","4574",""," ","key"," ","20.005807017543447","500","250","pz","33","2","48","","","43"
"","psychophysics","159","1001853","0.0-159.0","5f5eb22e58c9fb7782a6e90c","64dbc2ac0ce655347ddd5dd7","","","","","3150",""," ","key"," ","20.00576923076938","500","250","pz","24","2","21","","","30"
"","psychophysics","160","1005453","0.0-160.0","5f5eb22e58c9fb7782a6e90c","64dbc2ac0ce655347ddd5dd7","","","","","3598",""," ","key"," ","20.005776536313416","500","250","pz","38","2","35","","","52"
"","psychophysics","161","1007341","0.0-161.0","5f5eb22e58c9fb7782a6e90c","64dbc2ac0ce655347ddd5dd7","","","","","1887",""," ","key"," ","20.005709677420167","500","250","inst","","","","","",""
"","psychophysics","162","1012877","0.0-162.0","5f5eb22e58c9fb7782a6e90c","64dbc2ac0ce655347ddd5dd7","","","","","5534",""," ","key"," ","20.005706521739384","500","250","instEB4","40","2","40","0","0","40"
"","psychophysics","163","1016669","0.0-163.0","5f5eb22e58c9fb7782a6e90c","64dbc2ac0ce655347ddd5dd7","","","","","3791",""," ","key"," ","20.005693121693128","500","250","inst","","","","","",""
"","psychophysics","164","1022749","0.0-164.0","5f5eb22e58c9fb7782a6e90c","64dbc2ac0ce655347ddd5dd7","","","","","6078",""," ","key"," ","20.00571947194722","500","250","eb","34","2","35","0","0","24"
"","psychophysics","165","1025101","0.0-165.0","5f5eb22e58c9fb7782a6e90c","64dbc2ac0ce655347ddd5dd7","","","","","2351",""," ","key"," ","20.00568103448263","500","250","eb","33","2","33","0","0","27"
"","psychophysics","166","1027661","0.0-166.0","5f5eb22e58c9fb7782a6e90c","64dbc2ac0ce655347ddd5dd7","","","","","2558",""," ","key"," ","20.00578740157561","500","250","eb","35","2","26","0","0","30"
"","psychophysics","167","1030909","0.0-167.0","5f5eb22e58c9fb7782a6e90c","64dbc2ac0ce655347ddd5dd7","","","","","3246",""," ","key"," ","20.00561111111102","500","250","eb","61","2","50","0","0","54"
"","psychophysics","168","1033885","0.0-168.0","5f5eb22e58c9fb7782a6e90c","64dbc2ac0ce655347ddd5dd7","","","","","2975",""," ","key"," ","20.005612244898433","500","250","eb","39","2","29","0","0","37"
"","psychophysics","169","1037117","0.0-169.0","5f5eb22e58c9fb7782a6e90c","64dbc2ac0ce655347ddd5dd7","","","","","3231",""," ","key"," ","20.005813664596193","500","250","eb","35","2","30","0","0","30"
"","psychophysics","170","1039565","0.0-170.0","5f5eb22e58c9fb7782a6e90c","64dbc2ac0ce655347ddd5dd7","","","","","2446",""," ","key"," ","20.00573553719023","500","250","eb","33","2","30","0","0","31"
"","psychophysics","171","1043757","0.0-171.0","5f5eb22e58c9fb7782a6e90c","64dbc2ac0ce655347ddd5dd7","","","","","4191",""," ","key"," ","20.005602870813824","500","250","eb","51","2","37","0","0","47"
"","psychophysics","172","1048253","0.0-172.0","5f5eb22e58c9fb7782a6e90c","64dbc2ac0ce655347ddd5dd7","","","","","4493",""," ","key"," ","20.005775784753627","500","250","eb","51","2","41","0","0","40"
"","psychophysics","173","1053341","0.0-173.0","5f5eb22e58c9fb7782a6e90c","64dbc2ac0ce655347ddd5dd7","","","","","5086",""," ","key"," ","20.0058503937","500","250","eb","31","2","51","0","0","26"
"","psychophysics","174","1057693","0.0-174.0","5f5eb22e58c9fb7782a6e90c","64dbc2ac0ce655347ddd5dd7","","","","","4351",""," ","key"," ","20.0055185185187","500","250","eb","55","2","26","0","0","52"
"","psychophysics","175","1062029","0.0-175.0","5f5eb22e58c9fb7782a6e90c","64dbc2ac0ce655347ddd5dd7","","","","","4335",""," ","key"," ","20.005657407407718","500","250","eb","34","2","54","0","0","30"
"","psychophysics","176","1065293","0.0-176.0","5f5eb22e58c9fb7782a6e90c","64dbc2ac0ce655347ddd5dd7","","","","","3262",""," ","key"," ","20.005413580246064","500","250","eb","32","2","39","0","0","30"
"","psychophysics","177","1068925","0.0-177.0","5f5eb22e58c9fb7782a6e90c","64dbc2ac0ce655347ddd5dd7","","","","","3630",""," ","key"," ","20.005651933701905","500","250","eb","33","2","38","0","0","28"
"","psychophysics","178","1071693","0.0-178.0","5f5eb22e58c9fb7782a6e90c","64dbc2ac0ce655347ddd5dd7","","","","","2766",""," ","key"," ","20.00566423357716","500","250","eb","36","2","40","0","0","28"
"","psychophysics","179","1074669","0.0-179.0","5f5eb22e58c9fb7782a6e90c","64dbc2ac0ce655347ddd5dd7","","","","","2975",""," ","key"," ","20.005608108107037","500","250","inst","","","","","",""
"","psychophysics","180","1087549","0.0-180.0","5f5eb22e58c9fb7782a6e90c","64dbc2ac0ce655347ddd5dd7","","","","","12879",""," ","key"," ","20.005752721617455","500","250","instPog0","340","2","370","0","0","340"
"","psychophysics","181","1097437","0.0-181.0","5f5eb22e58c9fb7782a6e90c","64dbc2ac0ce655347ddd5dd7","","","","","9887",""," ","key"," ","20.005738336713815","500","250","instPog1","350","2","370","0","0","340"
"","psychophysics","182","1104189","0.0-182.0","5f5eb22e58c9fb7782a6e90c","64dbc2ac0ce655347ddd5dd7","","","","","6750",""," ","key"," ","20.00570833333283","500","250","instPog2","330","2","340","0","0","340"
"","psychophysics","183","1106381","0.0-183.0","5f5eb22e58c9fb7782a6e90c","64dbc2ac0ce655347ddd5dd7","","","","","2190",""," ","key"," ","20.006256880734217","500","250","inst","","","","","",""
"","psychophysics","184","1111053","0.0-184.0","5f5eb22e58c9fb7782a6e90c","64dbc2ac0ce655347ddd5dd7","","","","","4671",""," ","key"," ","20.005785407725313","500","250","pog","331","2","377","0","0","345"
"","psychophysics","185","1115005","0.0-185.0","5f5eb22e58c9fb7782a6e90c","64dbc2ac0ce655347ddd5dd7","","","","","3951",""," ","key"," ","20.108235897436643","500","250","pog","324","2","356","0","0","338"
"","psychophysics","186","1119293","0.0-186.0","5f5eb22e58c9fb7782a6e90c","64dbc2ac0ce655347ddd5dd7","","","","","4286",""," ","key"," ","20.005723004695028","500","250","pog","307","2","291","0","0","327"
"","psychophysics","187","1123613","0.0-187.0","5f5eb22e58c9fb7782a6e90c","64dbc2ac0ce655347ddd5dd7","","","","","4318",""," ","key"," ","20.00566976744205","500","250","pog","332","2","366","0","0","346"
"","psychophysics","188","1125645","0.0-188.0","5f5eb22e58c9fb7782a6e90c","64dbc2ac0ce655347ddd5dd7","","","","","2029",""," ","key"," ","20.005415841584362","500","250","pog","317","2","321","0","0","332"
"","psychophysics","189","1129485","0.0-189.0","5f5eb22e58c9fb7782a6e90c","64dbc2ac0ce655347ddd5dd7","","","","","3839",""," ","key"," ","20.005732984293047","500","250","pog","306","2","396","0","0","324"
"","psychophysics","190","1132349","0.0-190.0","5f5eb22e58c9fb7782a6e90c","64dbc2ac0ce655347ddd5dd7","","","","","2862",""," ","key"," ","20.005661971831014","500","250","pog","304","2","314","0","0","315"
"","psychophysics","191","1135069","0.0-191.0","5f5eb22e58c9fb7782a6e90c","64dbc2ac0ce655347ddd5dd7","","","","","2719",""," ","key"," ","20.005748148148673","500","250","pog","330","2","332","0","0","340"
"","psychophysics","192","1139629","0.0-192.0","5f5eb22e58c9fb7782a6e90c","64dbc2ac0ce655347ddd5dd7","","","","","4558",""," ","key"," ","20.00574008810502","500","250","pog","331","2","389","0","0","344"
"","psychophysics","193","1144845","0.0-193.0","5f5eb22e58c9fb7782a6e90c","64dbc2ac0ce655347ddd5dd7","","","","","5215",""," ","key"," ","20.005769230769232","500","250","pog","320","2","314","0","0","336"
"","psychophysics","194","1148717","0.0-194.0","5f5eb22e58c9fb7782a6e90c","64dbc2ac0ce655347ddd5dd7","","","","","3871",""," ","key"," ","20.005562499999844","500","250","pog","352","2","364","0","0","362"
"","psychophysics","195","1151517","0.0-195.0","5f5eb22e58c9fb7782a6e90c","64dbc2ac0ce655347ddd5dd7","","","","","2799",""," ","key"," ","20.005604316545785","500","250","pog","350","2","340","0","0","363"
"","psychophysics","196","1156413","0.0-196.0","5f5eb22e58c9fb7782a6e90c","64dbc2ac0ce655347ddd5dd7","","","","","4895",""," ","key"," ","20.005713114754457","500","250","pog","333","2","355","0","0","349"
"","psychophysics","197","1161261","0.0-197.0","5f5eb22e58c9fb7782a6e90c","64dbc2ac0ce655347ddd5dd7","","","","","4846",""," ","key"," ","20.00574273858857","500","250","pog","331","2","303","0","0","349"
"","psychophysics","198","1166109","0.0-198.0","5f5eb22e58c9fb7782a6e90c","64dbc2ac0ce655347ddd5dd7","","","","","4847",""," ","key"," ","20.005615702479083","500","250","pog","302","2","328","0","0","310"
"","psychophysics","199","1167565","0.0-199.0","5f5eb22e58c9fb7782a6e90c","64dbc2ac0ce655347ddd5dd7","","","","","1454",""," ","key"," ","20.005577464788026","500","250","inst","","","","","",""
"","psychophysics","200","1173533","0.0-200.0","5f5eb22e58c9fb7782a6e90c","64dbc2ac0ce655347ddd5dd7","","","","","5967",""," ","key"," ","20.005748322147614","500","250","instBr3","40","1","40","0","0","300"
"","psychophysics","201","1175149","0.0-201.0","5f5eb22e58c9fb7782a6e90c","64dbc2ac0ce655347ddd5dd7","","","","","1614",""," ","key"," ","20.005810126579732","500","250","inst","","","","","",""
"","psychophysics","202","1178605","0.0-202.0","5f5eb22e58c9fb7782a6e90c","64dbc2ac0ce655347ddd5dd7","","","","","3454",""," ","key"," ","20.005988372093185","500","250","br","-22","1","-27","-4","18","250"
"","psychophysics","203","1179917","0.0-203.0","5f5eb22e58c9fb7782a6e90c","64dbc2ac0ce655347ddd5dd7","","","","","1310",""," ","key"," ","20.005938461537543","500","250","br","-26","1","-26","10","27","221"
"","psychophysics","204","1181037","0.0-204.0","5f5eb22e58c9fb7782a6e90c","64dbc2ac0ce655347ddd5dd7","","","","","1119",""," ","key"," ","20.00530909090726","500","250","br","-15","1","-15","29","-21","203"
"","psychophysics","205","1183517","0.0-205.0","5f5eb22e58c9fb7782a6e90c","64dbc2ac0ce655347ddd5dd7","","","","","2478",""," ","key"," ","20.0057154471562","500","250","br","-13","1","-13","18","6","243"
"","psychophysics","206","1190573","0.0-206.0","5f5eb22e58c9fb7782a6e90c","64dbc2ac0ce655347ddd5dd7","","","","","7055",""," ","key"," ","20.005649572649595","500","250","br","-13","1","23","1","-4","227"
"","psychophysics","207","1194109","0.0-207.0","5f5eb22e58c9fb7782a6e90c","64dbc2ac0ce655347ddd5dd7","","","","","3533",""," ","key"," ","20.005823863635836","500","250","br","-16","1","6","13","30","225"
"","psychophysics","208","1196269","0.0-208.0","5f5eb22e58c9fb7782a6e90c","64dbc2ac0ce655347ddd5dd7","","","","","2159",""," ","key"," ","20.005196261683167","500","250","br","-22","1","-22","-12","15","268"
"","psychophysics","209","1201069","0.0-209.0","5f5eb22e58c9fb7782a6e90c","64dbc2ac0ce655347ddd5dd7","","","","","4798",""," ","key"," ","20.005723849372455","500","250","br","-12","1","10","9","-30","236"
"","psychophysics","210","1203693","0.0-210.0","5f5eb22e58c9fb7782a6e90c","64dbc2ac0ce655347ddd5dd7","","","","","2623",""," ","key"," ","20.005415384614697","500","250","br","-20","1","-21","-18","-7","266"
"","psychophysics","211","1207229","0.0-211.0","5f5eb22e58c9fb7782a6e90c","64dbc2ac0ce655347ddd5dd7","","","","","3534",""," ","key"," ","20.005772727273076","500","250","br","-16","1","-9","-15","-13","215"
"","psychophysics","212","1210589","0.0-212.0","5f5eb22e58c9fb7782a6e90c","64dbc2ac0ce655347ddd5dd7","","","","","3359",""," ","key"," ","20.00558083832214","500","250","br","-19","1","-15","2","25","246"
"","psychophysics","213","1213197","0.0-213.0","5f5eb22e58c9fb7782a6e90c","64dbc2ac0ce655347ddd5dd7","","","","","2606",""," ","key"," ","20.005542635659566","500","250","br","-27","1","-30","11","-30","218"
"","psychophysics","214","1218413","0.0-214.0","5f5eb22e58c9fb7782a6e90c","64dbc2ac0ce655347ddd5dd7","","","","","5215",""," ","key"," ","20.00573846153879","500","250","br","-14","1","6","24","15","220"
"","psychophysics","215","1221885","0.0-215.0","5f5eb22e58c9fb7782a6e90c","64dbc2ac0ce655347ddd5dd7","","","","","3470",""," ","key"," ","20.00589017341091","500","250","br","-18","1","-10","21","9","279"
"","psychophysics","216","1226173","0.0-216.0","5f5eb22e58c9fb7782a6e90c","64dbc2ac0ce655347ddd5dd7","","","","","4287",""," ","key"," ","20.005652582160298","500","250","br","-16","1","8","4","-15","264"
