"success","trial_type","trial_index","time_elapsed","internal_node_id","pid","sid","timeout","failed_images","failed_audio","failed_video","rt","stimulus","response","response_type","key_press","avg_frame_time","center_x","center_y","task","resp","version","jitterX","jitterY","start","parA"
"true","fullscreen","0","2887","0.0-0.0","604227d56f34b50536d0df92","64cab2577ddd9b23578781bf","","","","","","","","","","","","","","","","","","",""
"true","preload","1","3186","0.0-1.0","604227d56f34b50536d0df92","64cab2577ddd9b23578781bf","false","[]","[]","[]","","","","","","","","","","","","","","",""
"","html-button-response","2","4390","0.0-2.0","604227d56f34b50536d0df92","64cab2577ddd9b23578781bf","","","","","1193","Please Make Sure Your Audio Is On.","0","","","","","","","","","","","",""
"","psychophysics","3","9165","0.0-3.0","604227d56f34b50536d0df92","64cab2577ddd9b23578781bf","","","","","4715",""," ","key"," ","16.84102816901408","683","250","","","","","","",""
"","psychophysics","4","13213","0.0-4.0","604227d56f34b50536d0df92","64cab2577ddd9b23578781bf","","","","","4042",""," ","key"," ","16.80380416666667","500","250","inst","","","","","",""
"","psychophysics","5","26165","0.0-5.0","604227d56f34b50536d0df92","64cab2577ddd9b23578781bf","","","","","12944",""," ","key"," ","16.708045278137128","500","250","sample0","","","","","",""
"","psychophysics","6","29587","0.0-6.0","604227d56f34b50536d0df92","64cab2577ddd9b23578781bf","","","","","3407",""," ","key"," ","16.66498039215686","500","250","sample1","","","","","",""
"","psychophysics","7","40310","0.0-7.0","604227d56f34b50536d0df92","64cab2577ddd9b23578781bf","","","","","10709",""," ","key"," ","16.664942457231728","500","250","sample2","98","","","","",""
"","psychophysics","8","48757","0.0-8.0","604227d56f34b50536d0df92","64cab2577ddd9b23578781bf","","","","","8440",""," ","key"," ","16.664952569169962","500","250","sample3","100","","","","",""
"","psychophysics","9","56122","0.0-9.0","604227d56f34b50536d0df92","64cab2577ddd9b23578781bf","","","","","7357",""," ","key"," ","16.664929545454537","500","250","sample4","100","","","","",""
"","psychophysics","10","61021","0.0-10.0","604227d56f34b50536d0df92","64cab2577ddd9b23578781bf","","","","","4882",""," ","key"," ","16.722051369863014","500","250","sample5","","","","","",""
"","psychophysics","11","69611","0.0-11.0","604227d56f34b50536d0df92","64cab2577ddd9b23578781bf","","","","","8576",""," ","key"," ","16.7299142300195","500","250","sample6","498","","","","",""
"","psychophysics","12","74657","0.0-12.0","604227d56f34b50536d0df92","64cab2577ddd9b23578781bf","","","","","5031",""," ","key"," ","16.664927152317848","500","250","inst","","","","","",""
"","psychophysics","13","77373","0.0-13.0","604227d56f34b50536d0df92","64cab2577ddd9b23578781bf","","","","","2708",""," ","key"," ","16.664969135802504","500","250","inst","","","","","",""
"","psychophysics","14","80211","0.0-14.0","604227d56f34b50536d0df92","64cab2577ddd9b23578781bf","","","","","2833",""," ","key"," ","16.664899408284036","500","250","inst","","","","","",""
"","psychophysics","15","81542","0.0-15.0","604227d56f34b50536d0df92","64cab2577ddd9b23578781bf","","","","","1318",""," ","key"," ","16.665025316455655","500","250","inst","","","","","",""
"","psychophysics","16","82955","0.0-16.0","604227d56f34b50536d0df92","64cab2577ddd9b23578781bf","","","","","1401",""," ","key"," ","16.66486904761907","500","250","inst","","","","","",""
"","psychophysics","17","87715","0.0-17.0","604227d56f34b50536d0df92","64cab2577ddd9b23578781bf","","","","","4754",""," ","key"," ","16.66497887323946","500","250","instBr0","NaN","","0","0","0","300"
"","psychophysics","18","92975","0.0-18.0","604227d56f34b50536d0df92","64cab2577ddd9b23578781bf","","","","","5249",""," ","key"," ","16.664923809523813","500","250","instBr1","NaN","","0","0","-40","300"
"","psychophysics","19","102011","0.0-19.0","604227d56f34b50536d0df92","64cab2577ddd9b23578781bf","","","","","9023",""," ","key"," ","16.726794063079776","500","250","instBr","27","2","0","0","40","300"
"","psychophysics","20","104218","0.0-20.0","604227d56f34b50536d0df92","64cab2577ddd9b23578781bf","","","","","2197",""," ","key"," ","16.664863636363656","500","250","inst","","","","","",""
"","psychophysics","21","108855","0.0-21.0","604227d56f34b50536d0df92","64cab2577ddd9b23578781bf","","","","","4628",""," ","key"," ","16.664949458483726","500","250","br","23","2","-9","-27","47","205"
"","psychophysics","22","114021","0.0-22.0","604227d56f34b50536d0df92","64cab2577ddd9b23578781bf","","","","","5152",""," ","key"," ","16.66490614886733","500","250","br","24","2","4","28","28","259"
"","psychophysics","23","120390","0.0-23.0","604227d56f34b50536d0df92","64cab2577ddd9b23578781bf","","","","","6363",""," ","key"," ","16.66494225721787","500","250","br","27","2","15","21","-49","300"
"","psychophysics","24","126266","0.0-24.0","604227d56f34b50536d0df92","64cab2577ddd9b23578781bf","","","","","5862",""," ","key"," ","16.664920227920195","500","250","br","29","2","-12","-17","-33","271"
"","psychophysics","25","132280","0.0-25.0","604227d56f34b50536d0df92","64cab2577ddd9b23578781bf","","","","","5997",""," ","key"," ","16.664980609418254","500","250","br","27","2","9","-4","-25","262"
"","psychophysics","26","135073","0.0-26.0","604227d56f34b50536d0df92","64cab2577ddd9b23578781bf","","","","","2786",""," ","key"," ","16.664909638554217","500","250","br","26","2","-23","-1","30","267"
"","psychophysics","27","138252","0.0-27.0","604227d56f34b50536d0df92","64cab2577ddd9b23578781bf","","","","","3166",""," ","key"," ","16.842191489361674","500","250","br","23","2","-2","27","25","247"
"","psychophysics","28","143132","0.0-28.0","604227d56f34b50536d0df92","64cab2577ddd9b23578781bf","","","","","4864",""," ","key"," ","16.66499657534238","500","250","br","28","2","10","16","10","285"
"","psychophysics","29","148319","0.0-29.0","604227d56f34b50536d0df92","64cab2577ddd9b23578781bf","","","","","5179",""," ","key"," ","16.664948387096747","500","250","br","24","2","18","22","38","251"
"","psychophysics","30","154798","0.0-30.0","604227d56f34b50536d0df92","64cab2577ddd9b23578781bf","","","","","6467",""," ","key"," ","16.664969072164954","500","250","br","29","2","3","13","10","278"
"","psychophysics","31","160982","0.0-31.0","604227d56f34b50536d0df92","64cab2577ddd9b23578781bf","","","","","6175",""," ","key"," ","16.66496756756757","500","250","br","27","2","29","-3","15","253"
"","psychophysics","32","168436","0.0-32.0","604227d56f34b50536d0df92","64cab2577ddd9b23578781bf","","","","","7439",""," ","key"," ","16.66495739910313","500","250","br","24","2","26","-25","-37","272"
"","psychophysics","33","173416","0.0-33.0","604227d56f34b50536d0df92","64cab2577ddd9b23578781bf","","","","","4967",""," ","key"," ","16.664922818791936","500","250","br","24","2","25","-5","46","283"
"","psychophysics","34","178392","0.0-34.0","604227d56f34b50536d0df92","64cab2577ddd9b23578781bf","","","","","4965",""," ","key"," ","16.66496644295303","500","250","br","23","2","-9","24","-26","216"
"","psychophysics","35","185748","0.0-35.0","604227d56f34b50536d0df92","64cab2577ddd9b23578781bf","","","","","7349",""," ","key"," ","16.702908883826858","500","250","br","25","2","22","6","-46","222"
"","psychophysics","36","189000","0.0-36.0","604227d56f34b50536d0df92","64cab2577ddd9b23578781bf","","","","","3247",""," ","key"," ","16.664932989690737","500","250","inst","","","","","",""
"","psychophysics","37","216951","0.0-37.0","604227d56f34b50536d0df92","64cab2577ddd9b23578781bf","","","","","27941",""," ","key"," ","16.664939140811452","500","250","instZol0","0","","0","0","0",""
"","psychophysics","38","227195","0.0-38.0","604227d56f34b50536d0df92","64cab2577ddd9b23578781bf","","","","","10231",""," ","key"," ","16.664941368078185","500","250","instZol1","-1.942890293094024e-16","","0","0","-1.3",""
"","psychophysics","39","263290","0.0-39.0","604227d56f34b50536d0df92","64cab2577ddd9b23578781bf","","","","","36079",""," ","key"," ","16.664941801385687","500","250","instZol2","0.4000000000000007","1","0","0","2",""
"","psychophysics","40","264897","0.0-40.0","604227d56f34b50536d0df92","64cab2577ddd9b23578781bf","","","","","1600",""," ","key"," ","16.66492631578953","500","250","inst","","","","","",""
"","psychophysics","41","272913","0.0-41.0","604227d56f34b50536d0df92","64cab2577ddd9b23578781bf","","","","","null","","null","key","null","16.664920833333234","500","250","zol","0.8200000000000001","1","-13","-13","-0.32",""
"","psychophysics","42","273001","0.0-42.0","604227d56f34b50536d0df92","64cab2577ddd9b23578781bf","","","","","68",""," ","key"," ","16.66339999999618","500","250","zol","-0.47","1","-27","4","0.47",""
"","psychophysics","43","276314","0.0-43.0","604227d56f34b50536d0df92","64cab2577ddd9b23578781bf","","","","","3300",""," ","key"," ","16.66497461928934","500","250","zol","0.9899999999999999","1","8","-11","0.71",""
"","psychophysics","44","280050","0.0-44.0","604227d56f34b50536d0df92","64cab2577ddd9b23578781bf","","","","","3721",""," ","key"," ","16.664883928571466","500","250","zol","1.2800000000000002","1","4","3","0.42",""
"","psychophysics","45","284883","0.0-45.0","604227d56f34b50536d0df92","64cab2577ddd9b23578781bf","","","","","4795",""," ","key"," ","16.664986159169487","500","250","zol","1.8900000000000006","1","0","14","-0.49",""
"","psychophysics","46","288795","0.0-46.0","604227d56f34b50536d0df92","64cab2577ddd9b23578781bf","","","","","3886",""," ","key"," ","16.66494849785416","500","250","zol","1.19","1","-20","-1","0.11",""
"","psychophysics","47","292570","0.0-47.0","604227d56f34b50536d0df92","64cab2577ddd9b23578781bf","","","","","3758",""," ","key"," ","16.664924778761","500","250","zol","0.8999999999999999","1","-17","-6","0.7",""
"","psychophysics","48","295928","0.0-48.0","604227d56f34b50536d0df92","64cab2577ddd9b23578781bf","","","","","3333",""," ","key"," ","16.66489500000025","500","250","zol","1.27","1","-28","21","0.33",""
"","psychophysics","49","298269","0.0-49.0","604227d56f34b50536d0df92","64cab2577ddd9b23578781bf","","","","","2325",""," ","key"," ","16.664992857143183","500","250","zol","1.0699999999999998","1","-9","16","-0.47",""
"","psychophysics","50","301764","0.0-50.0","604227d56f34b50536d0df92","64cab2577ddd9b23578781bf","","","","","3478",""," ","key"," ","16.66490384615379","500","250","zol","1.3200000000000003","1","3","-14","-0.12",""
"","psychophysics","51","304885","0.0-51.0","604227d56f34b50536d0df92","64cab2577ddd9b23578781bf","","","","","3096",""," ","key"," ","16.664930481283445","500","250","zol","1.7000000000000004","1","-26","1","-0.6",""
"","psychophysics","52","307688","0.0-52.0","604227d56f34b50536d0df92","64cab2577ddd9b23578781bf","","","","","2786",""," ","key"," ","16.66491616766448","500","250","zol","1.0899999999999999","1","28","-25","0.11",""
"","psychophysics","53","311604","0.0-53.0","604227d56f34b50536d0df92","64cab2577ddd9b23578781bf","","","","","3892",""," ","key"," ","16.664884615384548","500","250","zol","1.2300000000000002","1","-13","-10","0.57",""
"","psychophysics","54","317274","0.0-54.0","604227d56f34b50536d0df92","64cab2577ddd9b23578781bf","","","","","5655",""," ","key"," ","16.664932153392364","500","250","zol","1.6400000000000006","1","20","24","0.46",""
"","psychophysics","55","323030","0.0-55.0","604227d56f34b50536d0df92","64cab2577ddd9b23578781bf","","","","","5737",""," ","key"," ","16.664921739130396","500","250","zol","1.37","1","7","-6","0.03",""
"","psychophysics","56","324095","0.0-56.0","604227d56f34b50536d0df92","64cab2577ddd9b23578781bf","","","","","1060",""," ","key"," ","16.66506349206311","500","250","inst","","","","","",""
"","psychophysics","57","326315","0.0-57.0","604227d56f34b50536d0df92","64cab2577ddd9b23578781bf","","","","","2213",""," ","key"," ","16.66496969696935","500","250","instEB0","40","","0","0","40","40"
"","psychophysics","58","332250","0.0-58.0","604227d56f34b50536d0df92","64cab2577ddd9b23578781bf","","","","","5931",""," ","key"," ","16.759354107648797","500","250","instEB1","71","2","0","0","30","70"
"","psychophysics","59","339929","0.0-59.0","604227d56f34b50536d0df92","64cab2577ddd9b23578781bf","","","","","7663",""," ","key"," ","16.66493695652183","500","250","instEB2","42","2","0","0","60","40"
"","psychophysics","60","351681","0.0-60.0","604227d56f34b50536d0df92","64cab2577ddd9b23578781bf","","","","","11745",""," ","key"," ","16.66495596590911","500","250","instEB3","69","2","0","0","45","65"
"","psychophysics","61","361715","0.0-61.0","604227d56f34b50536d0df92","64cab2577ddd9b23578781bf","","","","","10019",""," ","key"," ","16.664946755407705","500","250","instEB4","45","2","0","0","40","40"
"","psychophysics","62","363074","0.0-62.0","604227d56f34b50536d0df92","64cab2577ddd9b23578781bf","","","","","1348",""," ","key"," ","16.665012345678765","500","250","inst","","","","","",""
"","psychophysics","63","367679","0.0-63.0","604227d56f34b50536d0df92","64cab2577ddd9b23578781bf","","","","","4596",""," ","key"," ","16.664883636363612","500","250","eb","28","2","0","0","49","25"
"","psychophysics","64","373952","0.0-64.0","604227d56f34b50536d0df92","64cab2577ddd9b23578781bf","","","","","6250",""," ","key"," ","16.664949333333254","500","250","eb","51","2","0","0","34","46"
"","psychophysics","65","377003","0.0-65.0","604227d56f34b50536d0df92","64cab2577ddd9b23578781bf","","","","","3032",""," ","key"," ","16.6649395604394","500","250","eb","48","2","0","0","51","42"
"","psychophysics","66","382593","0.0-66.0","604227d56f34b50536d0df92","64cab2577ddd9b23578781bf","","","","","5571",""," ","key"," ","16.764993993994043","500","250","eb","56","2","0","0","34","51"
"","psychophysics","67","388284","0.0-67.0","604227d56f34b50536d0df92","64cab2577ddd9b23578781bf","","","","","5674",""," ","key"," ","16.66496470588232","500","250","eb","38","2","0","0","51","32"
"","psychophysics","68","392329","0.0-68.0","604227d56f34b50536d0df92","64cab2577ddd9b23578781bf","","","","","4029",""," ","key"," ","16.664950413223163","500","250","eb","42","2","0","0","33","37"
"","psychophysics","69","397578","0.0-69.0","604227d56f34b50536d0df92","64cab2577ddd9b23578781bf","","","","","5231",""," ","key"," ","16.664964968152862","500","250","eb","51","2","0","0","52","46"
"","psychophysics","70","402373","0.0-70.0","604227d56f34b50536d0df92","64cab2577ddd9b23578781bf","","","","","4773",""," ","key"," ","16.66487456445979","500","250","eb","56","2","0","0","53","51"
"","psychophysics","71","409491","0.0-71.0","604227d56f34b50536d0df92","64cab2577ddd9b23578781bf","","","","","7111",""," ","key"," ","16.664941314553886","500","250","eb","52","2","0","0","45","47"
"","psychophysics","72","416261","0.0-72.0","604227d56f34b50536d0df92","64cab2577ddd9b23578781bf","","","","","6756",""," ","key"," ","16.664938271605052","500","250","eb","47","2","0","0","31","41"
"","psychophysics","73","423428","0.0-73.0","604227d56f34b50536d0df92","64cab2577ddd9b23578781bf","","","","","7147",""," ","key"," ","16.66493006993008","500","250","eb","53","2","0","0","45","48"
"","psychophysics","74","428276","0.0-74.0","604227d56f34b50536d0df92","64cab2577ddd9b23578781bf","","","","","4833",""," ","key"," ","16.78065972222228","500","250","eb","43","2","0","0","44","37"
"","psychophysics","75","431924","0.0-75.0","604227d56f34b50536d0df92","64cab2577ddd9b23578781bf","","","","","3631",""," ","key"," ","16.66490825688052","500","250","eb","48","2","0","0","50","42"
"","psychophysics","76","439937","0.0-76.0","604227d56f34b50536d0df92","64cab2577ddd9b23578781bf","","","","","null","","null","key","null","16.66495833333332","500","250","eb","51","2","0","0","32","47"
"","psychophysics","77","440102","0.0-77.0","604227d56f34b50536d0df92","64cab2577ddd9b23578781bf","","","","","158",""," ","key"," ","16.664222222222534","500","250","eb","48","2","0","0","48","42"
"","psychophysics","78","441251","0.0-78.0","604227d56f34b50536d0df92","64cab2577ddd9b23578781bf","","","","","1145",""," ","key"," ","16.66501470588264","500","250","inst","","","","","",""
"","psychophysics","79","443560","0.0-79.0","604227d56f34b50536d0df92","64cab2577ddd9b23578781bf","","","","","2303",""," ","key"," ","16.66491970802907","500","250","instPz0","50","1","","","50","50"
"","psychophysics","80","454395","0.0-80.0","604227d56f34b50536d0df92","64cab2577ddd9b23578781bf","","","","","10821",""," ","key"," ","16.664947611710378","500","250","instPz1","48","1","","","25","50"
"","psychophysics","81","463004","0.0-81.0","604227d56f34b50536d0df92","64cab2577ddd9b23578781bf","","","","","8597",""," ","key"," ","16.664943798449563","500","250","instPz2","25","1","","","15","25"
"","psychophysics","82","474420","0.0-82.0","604227d56f34b50536d0df92","64cab2577ddd9b23578781bf","","","","","11401",""," ","key"," ","16.71381964809386","500","250","instPz3","52","1","","","25","50"
"","psychophysics","83","480648","0.0-83.0","604227d56f34b50536d0df92","64cab2577ddd9b23578781bf","","","","","6213",""," ","key"," ","16.664957104557743","500","250","instPz4","32","1","","","15","30"
"","psychophysics","84","481970","0.0-84.0","604227d56f34b50536d0df92","64cab2577ddd9b23578781bf","","","","","1316",""," ","key"," ","16.664871794871615","500","250","inst","","","","","",""
"","psychophysics","85","487852","0.0-85.0","604227d56f34b50536d0df92","64cab2577ddd9b23578781bf","","","","","5867",""," ","key"," ","16.66492897727271","500","250","pz","24","1","","","60","20"
"","psychophysics","86","491807","0.0-86.0","604227d56f34b50536d0df92","64cab2577ddd9b23578781bf","","","","","3945",""," ","key"," ","16.664957627118614","500","250","pz","46","1","","","42","40"
"","psychophysics","87","495772","0.0-87.0","604227d56f34b50536d0df92","64cab2577ddd9b23578781bf","","","","","3946",""," ","key"," ","16.66497890295349","500","250","pz","30","1","","","46","25"
"","psychophysics","88","499942","0.0-88.0","604227d56f34b50536d0df92","64cab2577ddd9b23578781bf","","","","","4156",""," ","key"," ","16.664939999999945","500","250","pz","39","1","","","32","34"
"","psychophysics","89","504894","0.0-89.0","604227d56f34b50536d0df92","64cab2577ddd9b23578781bf","","","","","4943",""," ","key"," ","16.6649358108108","500","250","pz","30","1","","","31","25"
"","psychophysics","90","511787","0.0-90.0","604227d56f34b50536d0df92","64cab2577ddd9b23578781bf","","","","","6886",""," ","key"," ","16.705486618004905","500","250","pz","60","1","","","39","49"
"","psychophysics","91","517538","0.0-91.0","604227d56f34b50536d0df92","64cab2577ddd9b23578781bf","","","","","5736",""," ","key"," ","16.66490116279077","500","250","pz","55","1","","","38","42"
"","psychophysics","92","523110","0.0-92.0","604227d56f34b50536d0df92","64cab2577ddd9b23578781bf","","","","","5558",""," ","key"," ","16.664958083832396","500","250","pz","56","1","","","44","47"
"","psychophysics","93","527321","0.0-93.0","604227d56f34b50536d0df92","64cab2577ddd9b23578781bf","","","","","4204",""," ","key"," ","16.66494023904392","500","250","pz","29","1","","","24","25"
"","psychophysics","94","535329","0.0-94.0","604227d56f34b50536d0df92","64cab2577ddd9b23578781bf","","","","","null","","null","key","null","16.664922916666548","500","250","pz","34","1","","","52","30"
"","psychophysics","95","541466","0.0-95.0","604227d56f34b50536d0df92","64cab2577ddd9b23578781bf","","","","","6121",""," ","key"," ","16.664940054495744","500","250","pz","47","1","","","34","40"
"","psychophysics","96","545576","0.0-96.0","604227d56f34b50536d0df92","64cab2577ddd9b23578781bf","","","","","4090",""," ","key"," ","16.66498373983744","500","250","pz","50","1","","","58","43"
"","psychophysics","97","549926","0.0-97.0","604227d56f34b50536d0df92","64cab2577ddd9b23578781bf","","","","","4335",""," ","key"," ","16.66498846153845","500","250","pz","62","1","","","52","53"
"","psychophysics","98","554149","0.0-98.0","604227d56f34b50536d0df92","64cab2577ddd9b23578781bf","","","","","4160",""," ","key"," ","16.664915662650188","500","250","pz","53","1","","","42","42"
"","psychophysics","99","558815","0.0-99.0","604227d56f34b50536d0df92","64cab2577ddd9b23578781bf","","","","","4653",""," ","key"," ","16.784028571428333","500","250","pz","49","1","","","32","40"
"","psychophysics","100","560337","0.0-100.0","604227d56f34b50536d0df92","64cab2577ddd9b23578781bf","","","","","1512",""," ","key"," ","16.66496703296818","500","250","inst","","","","","",""
"","psychophysics","101","567587","0.0-101.0","604227d56f34b50536d0df92","64cab2577ddd9b23578781bf","","","","","7243",""," ","key"," ","16.664923963133752","500","250","instPog0","160","1","0","0","190","160"
"","psychophysics","102","578402","0.0-102.0","604227d56f34b50536d0df92","64cab2577ddd9b23578781bf","","","","","10810",""," ","key"," ","16.664945987654335","500","250","instPog1","166","1","0","0","190","160"
"","psychophysics","103","590410","0.0-103.0","604227d56f34b50536d0df92","64cab2577ddd9b23578781bf","","","","","12002",""," ","key"," ","16.66493741307367","500","250","instPog2","176","1","0","0","160","160"
"","psychophysics","104","591444","0.0-104.0","604227d56f34b50536d0df92","64cab2577ddd9b23578781bf","","","","","1025",""," ","key"," ","16.66511475409908","500","250","inst","","","","","",""
"","psychophysics","105","596095","0.0-105.0","604227d56f34b50536d0df92","64cab2577ddd9b23578781bf","","","","","4641",""," ","key"," ","16.66489568345329","500","250","pog","177","1","0","0","131","158"
"","psychophysics","106","600068","0.0-106.0","604227d56f34b50536d0df92","64cab2577ddd9b23578781bf","","","","","3960",""," ","key"," ","16.735261603375456","500","250","pog","204","1","0","0","170","179"
"","psychophysics","107","601233","0.0-107.0","604227d56f34b50536d0df92","64cab2577ddd9b23578781bf","","","","","1149",""," ","key"," ","16.66507246376832","500","250","pog","142","1","0","0","142","125"
"","psychophysics","108","605383","0.0-108.0","604227d56f34b50536d0df92","64cab2577ddd9b23578781bf","","","","","4146",""," ","key"," ","16.66492338709706","500","250","pog","181","1","0","0","201","151"
"","psychophysics","109","606347","0.0-109.0","604227d56f34b50536d0df92","64cab2577ddd9b23578781bf","","","","","957",""," ","key"," ","16.665157894736662","500","250","pog","176","1","0","0","176","155"
"","psychophysics","110","613940","0.0-110.0","604227d56f34b50536d0df92","64cab2577ddd9b23578781bf","","","","","7584",""," ","key"," ","16.664922907488986","500","250","pog","200","1","0","0","132","175"
"","psychophysics","111","619450","0.0-111.0","604227d56f34b50536d0df92","64cab2577ddd9b23578781bf","","","","","5498",""," ","key"," ","16.664930303030378","500","250","pog","194","1","0","0","144","172"
"","psychophysics","112","625563","0.0-112.0","604227d56f34b50536d0df92","64cab2577ddd9b23578781bf","","","","","6106",""," ","key"," ","16.664953551912628","500","250","pog","198","1","0","0","176","172"
"","psychophysics","113","631494","0.0-113.0","604227d56f34b50536d0df92","64cab2577ddd9b23578781bf","","","","","5925",""," ","key"," ","16.66492112676062","500","250","pog","200","1","0","0","182","181"
"","psychophysics","114","638679","0.0-114.0","604227d56f34b50536d0df92","64cab2577ddd9b23578781bf","","","","","7179",""," ","key"," ","16.664930232557968","500","250","pog","185","1","0","0","117","174"
"","psychophysics","115","644796","0.0-115.0","604227d56f34b50536d0df92","64cab2577ddd9b23578781bf","","","","","6108",""," ","key"," ","16.66492349726766","500","250","pog","135","1","0","0","205","125"
"","psychophysics","116","649104","0.0-116.0","604227d56f34b50536d0df92","64cab2577ddd9b23578781bf","","","","","4297",""," ","key"," ","16.66498443579749","500","250","pog","188","1","0","0","144","177"
"","psychophysics","117","655359","0.0-117.0","604227d56f34b50536d0df92","64cab2577ddd9b23578781bf","","","","","6244",""," ","key"," ","16.6649493333331","500","250","pog","163","1","0","0","187","152"
"","psychophysics","118","661541","0.0-118.0","604227d56f34b50536d0df92","64cab2577ddd9b23578781bf","","","","","6177",""," ","key"," ","16.664897018970372","500","250","pog","170","1","0","0","142","149"
"","psychophysics","119","669280","0.0-119.0","604227d56f34b50536d0df92","64cab2577ddd9b23578781bf","","","","","7725",""," ","key"," ","16.66492887931035","500","250","pog","183","1","0","0","119","168"
"","psychophysics","120","670357","0.0-120.0","604227d56f34b50536d0df92","64cab2577ddd9b23578781bf","","","","","1074",""," ","key"," ","16.664875000000393","500","250","inst","","","","","",""
"","psychophysics","121","677939","0.0-121.0","604227d56f34b50536d0df92","64cab2577ddd9b23578781bf","","","","","7575",""," ","key"," ","16.664927152317752","500","250","instPz4","25","2","","","15","30"
"","psychophysics","122","678856","0.0-122.0","604227d56f34b50536d0df92","64cab2577ddd9b23578781bf","","","","","907",""," ","key"," ","16.665090909090146","500","250","inst","","","","","",""
"","psychophysics","123","684527","0.0-123.0","604227d56f34b50536d0df92","64cab2577ddd9b23578781bf","","","","","5663",""," ","key"," ","16.664941002949618","500","250","pz","49","2","","","60","54"
"","psychophysics","124","688922","0.0-124.0","604227d56f34b50536d0df92","64cab2577ddd9b23578781bf","","","","","4388",""," ","key"," ","16.664988549618595","500","250","pz","24","2","","","43","29"
"","psychophysics","125","692312","0.0-125.0","604227d56f34b50536d0df92","64cab2577ddd9b23578781bf","","","","","3378",""," ","key"," ","16.66491133004904","500","250","pz","31","2","","","24","36"
"","psychophysics","126","697022","0.0-126.0","604227d56f34b50536d0df92","64cab2577ddd9b23578781bf","","","","","4697",""," ","key"," ","16.724249110320578","500","250","pz","23","2","","","44","26"
"","psychophysics","127","701744","0.0-127.0","604227d56f34b50536d0df92","64cab2577ddd9b23578781bf","","","","","4715",""," ","key"," ","16.664921985815297","500","250","pz","21","2","","","43","25"
"","psychophysics","128","707340","0.0-128.0","604227d56f34b50536d0df92","64cab2577ddd9b23578781bf","","","","","5581",""," ","key"," ","16.664964179104583","500","250","pz","16","2","","","41","20"
"","psychophysics","129","712283","0.0-129.0","604227d56f34b50536d0df92","64cab2577ddd9b23578781bf","","","","","4934",""," ","key"," ","16.66497966101693","500","250","pz","49","2","","","39","58"
"","psychophysics","130","716839","0.0-130.0","604227d56f34b50536d0df92","64cab2577ddd9b23578781bf","","","","","4542",""," ","key"," ","16.664945054945157","500","250","pz","47","2","","","26","56"
"","psychophysics","131","722181","0.0-131.0","604227d56f34b50536d0df92","64cab2577ddd9b23578781bf","","","","","5333",""," ","key"," ","16.66494984326039","500","250","pz","31","2","","","41","37"
"","psychophysics","132","724861","0.0-132.0","604227d56f34b50536d0df92","64cab2577ddd9b23578781bf","","","","","2668",""," ","key"," ","16.664968750000117","500","250","pz","34","2","","","30","38"
"","psychophysics","133","728799","0.0-133.0","604227d56f34b50536d0df92","64cab2577ddd9b23578781bf","","","","","3928",""," ","key"," ","17.027186956521348","500","250","pz","31","2","","","41","38"
"","psychophysics","134","732524","0.0-134.0","604227d56f34b50536d0df92","64cab2577ddd9b23578781bf","","","","","3713",""," ","key"," ","16.664955156950818","500","250","pz","31","2","","","43","36"
"","psychophysics","135","734806","0.0-135.0","604227d56f34b50536d0df92","64cab2577ddd9b23578781bf","","","","","2276",""," ","key"," ","16.66494852941233","500","250","pz","32","2","","","32","39"
"","psychophysics","136","740670","0.0-136.0","604227d56f34b50536d0df92","64cab2577ddd9b23578781bf","","","","","5857",""," ","key"," ","16.664954415954348","500","250","pz","19","2","","","35","23"
"","psychophysics","137","745721","0.0-137.0","604227d56f34b50536d0df92","64cab2577ddd9b23578781bf","","","","","5045",""," ","key"," ","16.664887417218452","500","250","pz","34","2","","","37","41"
"","psychophysics","138","746479","0.0-138.0","604227d56f34b50536d0df92","64cab2577ddd9b23578781bf","","","","","739",""," ","key"," ","16.664772727272727","500","250","inst","","","","","",""
"","psychophysics","139","759107","0.0-139.0","604227d56f34b50536d0df92","64cab2577ddd9b23578781bf","","","","","12613",""," ","key"," ","16.686993386243344","500","250","instBr","-21","1","0","0","40","300"
"","psychophysics","140","759734","0.0-140.0","604227d56f34b50536d0df92","64cab2577ddd9b23578781bf","","","","","611",""," ","key"," ","16.664583333334626","500","250","inst","","","","","",""
"","psychophysics","141","764683","0.0-141.0","604227d56f34b50536d0df92","64cab2577ddd9b23578781bf","","","","","4935",""," ","key"," ","16.664976430976502","500","250","br","-18","1","-18","17","-10","268"
"","psychophysics","142","770681","0.0-142.0","604227d56f34b50536d0df92","64cab2577ddd9b23578781bf","","","","","5990",""," ","key"," ","16.66494986072441","500","250","br","-13","1","27","28","35","218"
"","psychophysics","143","776108","0.0-143.0","604227d56f34b50536d0df92","64cab2577ddd9b23578781bf","","","","","5419",""," ","key"," ","16.664950617284006","500","250","br","-18","1","1","-1","3","224"
"","psychophysics","144","781188","0.0-144.0","604227d56f34b50536d0df92","64cab2577ddd9b23578781bf","","","","","5066",""," ","key"," ","16.664927631579065","500","250","br","-15","1","-26","-4","-28","283"
"","psychophysics","145","786779","0.0-145.0","604227d56f34b50536d0df92","64cab2577ddd9b23578781bf","","","","","5581",""," ","key"," ","16.664925373134327","500","250","br","-17","1","27","-6","17","250"
"","psychophysics","146","794256","0.0-146.0","604227d56f34b50536d0df92","64cab2577ddd9b23578781bf","","","","","7470",""," ","key"," ","16.66493288590625","500","250","br","-16","1","-13","27","43","291"
"","psychophysics","147","800223","0.0-147.0","604227d56f34b50536d0df92","64cab2577ddd9b23578781bf","","","","","5953",""," ","key"," ","16.711735955056252","500","250","br","-11","1","-13","2","-16","268"
"","psychophysics","148","807562","0.0-148.0","604227d56f34b50536d0df92","64cab2577ddd9b23578781bf","","","","","7329",""," ","key"," ","16.664961363636326","500","250","br","-18","1","23","30","15","235"
"","psychophysics","149","813113","0.0-149.0","604227d56f34b50536d0df92","64cab2577ddd9b23578781bf","","","","","5536",""," ","key"," ","16.664909638554217","500","250","br","-11","1","11","13","-28","285"
"","psychophysics","150","819062","0.0-150.0","604227d56f34b50536d0df92","64cab2577ddd9b23578781bf","","","","","5943",""," ","key"," ","16.66494382022464","500","250","br","-15","1","-13","4","30","240"
"","psychophysics","151","823186","0.0-151.0","604227d56f34b50536d0df92","64cab2577ddd9b23578781bf","","","","","4111",""," ","key"," ","16.664934959349683","500","250","br","-14","1","-18","-20","-23","243"
"","psychophysics","152","830865","0.0-152.0","604227d56f34b50536d0df92","64cab2577ddd9b23578781bf","","","","","7665",""," ","key"," ","16.66493695652158","500","250","br","-16","1","0","-19","47","245"
"","psychophysics","153","835108","0.0-153.0","604227d56f34b50536d0df92","64cab2577ddd9b23578781bf","","","","","4231",""," ","key"," ","16.664968503937015","500","250","br","-12","1","5","18","-27","295"
"","psychophysics","154","838607","0.0-154.0","604227d56f34b50536d0df92","64cab2577ddd9b23578781bf","","","","","3491",""," ","key"," ","16.664947368420712","500","250","br","-12","1","6","27","-24","241"
"","psychophysics","155","841625","0.0-155.0","604227d56f34b50536d0df92","64cab2577ddd9b23578781bf","","","","","3008",""," ","key"," ","16.75807821229048","500","250","br","-8","1","-10","15","-10","224"
"","psychophysics","156","842195","0.0-156.0","604227d56f34b50536d0df92","64cab2577ddd9b23578781bf","","","","","566",""," ","key"," ","16.664545454547007","500","250","inst","","","","","",""
"","psychophysics","157","851237","0.0-157.0","604227d56f34b50536d0df92","64cab2577ddd9b23578781bf","","","","","9025",""," ","key"," ","16.664950092421464","500","250","instZol2","-1.1999999999999993","2","0","0","2",""
"","psychophysics","158","851816","0.0-158.0","604227d56f34b50536d0df92","64cab2577ddd9b23578781bf","","","","","572",""," ","key"," ","16.665088235294473","500","250","inst","","","","","",""
"","psychophysics","159","856163","0.0-159.0","604227d56f34b50536d0df92","64cab2577ddd9b23578781bf","","","","","4329",""," ","key"," ","16.664923076923095","500","250","zol","-0.8999999999999999","2","-27","23","0.7",""
"","psychophysics","160","859395","0.0-160.0","604227d56f34b50536d0df92","64cab2577ddd9b23578781bf","","","","","3216",""," ","key"," ","16.664989637305666","500","250","zol","-1.5900000000000003","2","-24","10","0.39",""
"","psychophysics","161","862563","0.0-161.0","604227d56f34b50536d0df92","64cab2577ddd9b23578781bf","","","","","3153",""," ","key"," ","16.664915343915315","500","250","zol","-1.7300000000000006","2","-24","-9","0.03",""
"","psychophysics","162","866218","0.0-162.0","604227d56f34b50536d0df92","64cab2577ddd9b23578781bf","","","","","3637",""," ","key"," ","16.664912844036703","500","250","zol","-2.6400000000000015","2","-1","14","0.64",""
"","psychophysics","163","870405","0.0-163.0","604227d56f34b50536d0df92","64cab2577ddd9b23578781bf","","","","","4168",""," ","key"," ","16.731624000000302","500","250","zol","-2.0400000000000005","2","-14","2","-0.66",""
"","psychophysics","164","874376","0.0-164.0","604227d56f34b50536d0df92","64cab2577ddd9b23578781bf","","","","","3951",""," ","key"," ","16.66494936708858","500","250","zol","-2.490000000000001","2","9","-3","-0.51",""
"","psychophysics","165","880924","0.0-165.0","604227d56f34b50536d0df92","64cab2577ddd9b23578781bf","","","","","6528",""," ","key"," ","16.664923469387517","500","250","zol","-2.5200000000000014","2","-10","19","0.42",""
"","psychophysics","166","885306","0.0-166.0","604227d56f34b50536d0df92","64cab2577ddd9b23578781bf","","","","","4364",""," ","key"," ","16.66498854961815","500","250","zol","-1.5100000000000002","2","22","25","-0.49",""
"","psychophysics","167","889339","0.0-167.0","604227d56f34b50536d0df92","64cab2577ddd9b23578781bf","","","","","4017",""," ","key"," ","16.664921161825905","500","250","zol","-1.37","2","2","-9","0.47",""
"","psychophysics","168","893542","0.0-168.0","604227d56f34b50536d0df92","64cab2577ddd9b23578781bf","","","","","4187",""," ","key"," ","16.664908366533833","500","250","zol","-2.0100000000000007","2","-17","-9","-0.09",""
"","psychophysics","169","896298","0.0-169.0","604227d56f34b50536d0df92","64cab2577ddd9b23578781bf","","","","","2739",""," ","key"," ","16.66487195121945","500","250","zol","-2.0000000000000004","2","-30","-8","-0.4",""
"","psychophysics","170","899044","0.0-170.0","604227d56f34b50536d0df92","64cab2577ddd9b23578781bf","","","","","2730",""," ","key"," ","16.664993902439075","500","250","zol","-1.6000000000000003","2","13","9","-0.6",""
"","psychophysics","171","901654","0.0-171.0","604227d56f34b50536d0df92","64cab2577ddd9b23578781bf","","","","","2591",""," ","key"," ","16.66484615384625","500","250","zol","-2.0000000000000004","2","-6","16","-0.1",""
"","psychophysics","172","905855","0.0-172.0","604227d56f34b50536d0df92","64cab2577ddd9b23578781bf","","","","","4187",""," ","key"," ","16.6649043824699","500","250","zol","-1.11","2","2","29","-0.69",""
"","psychophysics","173","912607","0.0-173.0","604227d56f34b50536d0df92","64cab2577ddd9b23578781bf","","","","","6735",""," ","key"," ","16.664930693069266","500","250","zol","-1.4900000000000002","2","-1","-27","0.59",""
"","psychophysics","174","913222","0.0-174.0","604227d56f34b50536d0df92","64cab2577ddd9b23578781bf","","","","","605",""," ","key"," ","16.66494444444349","500","250","inst","","","","","",""
"","psychophysics","175","916734","0.0-175.0","604227d56f34b50536d0df92","64cab2577ddd9b23578781bf","","","","","3505",""," ","key"," ","16.664985714285702","500","250","instPog0","340","2","0","0","370","340"
"","psychophysics","176","919985","0.0-176.0","604227d56f34b50536d0df92","64cab2577ddd9b23578781bf","","","","","3244",""," ","key"," ","16.66497938144357","500","250","instPog1","338","2","0","0","370","340"
"","psychophysics","177","922792","0.0-177.0","604227d56f34b50536d0df92","64cab2577ddd9b23578781bf","","","","","2800",""," ","key"," ","16.665041916167873","500","250","instPog2","322","2","0","0","340","340"
"","psychophysics","178","923335","0.0-178.0","604227d56f34b50536d0df92","64cab2577ddd9b23578781bf","","","","","532",""," ","key"," ","16.664499999998952","500","250","inst","","","","","",""
"","psychophysics","179","927615","0.0-179.0","604227d56f34b50536d0df92","64cab2577ddd9b23578781bf","","","","","4272",""," ","key"," ","16.664894531249956","500","250","pog","284","2","0","0","372","304"
"","psychophysics","180","929418","0.0-180.0","604227d56f34b50536d0df92","64cab2577ddd9b23578781bf","","","","","1796",""," ","key"," ","16.664841121494568","500","250","pog","326","2","0","0","330","345"
"","psychophysics","181","932677","0.0-181.0","604227d56f34b50536d0df92","64cab2577ddd9b23578781bf","","","","","3254",""," ","key"," ","16.66495876288649","500","250","pog","321","2","0","0","351","332"
"","psychophysics","182","935156","0.0-182.0","604227d56f34b50536d0df92","64cab2577ddd9b23578781bf","","","","","2465",""," ","key"," ","16.66502027026994","500","250","pog","327","2","0","0","353","334"
"","psychophysics","183","936324","0.0-183.0","604227d56f34b50536d0df92","64cab2577ddd9b23578781bf","","","","","1157",""," ","key"," ","16.664811594202522","500","250","pog","280","2","0","0","280","306"
"","psychophysics","184","942923","0.0-184.0","604227d56f34b50536d0df92","64cab2577ddd9b23578781bf","","","","","6585",""," ","key"," ","16.664959493671144","500","250","pog","305","2","0","0","391","319"
"","psychophysics","185","945982","0.0-185.0","604227d56f34b50536d0df92","64cab2577ddd9b23578781bf","","","","","3046",""," ","key"," ","16.756461538461416","500","250","pog","352","2","0","0","368","370"
"","psychophysics","186","949132","0.0-186.0","604227d56f34b50536d0df92","64cab2577ddd9b23578781bf","","","","","3131",""," ","key"," ","16.664898936170466","500","250","pog","366","2","0","0","388","373"
"","psychophysics","187","950895","0.0-187.0","604227d56f34b50536d0df92","64cab2577ddd9b23578781bf","","","","","1757",""," ","key"," ","16.665123809523703","500","250","pog","334","2","0","0","340","341"
"","psychophysics","188","956016","0.0-188.0","604227d56f34b50536d0df92","64cab2577ddd9b23578781bf","","","","","5115",""," ","key"," ","16.66494771241807","500","250","pog","337","2","0","0","313","346"
"","psychophysics","189","957184","0.0-189.0","604227d56f34b50536d0df92","64cab2577ddd9b23578781bf","","","","","1163",""," ","key"," ","16.664797101449896","500","250","pog","336","2","0","0","336","349"
"","psychophysics","190","962863","0.0-190.0","604227d56f34b50536d0df92","64cab2577ddd9b23578781bf","","","","","5667",""," ","key"," ","16.664944117647075","500","250","pog","355","2","0","0","291","363"
"","psychophysics","191","965426","0.0-191.0","604227d56f34b50536d0df92","64cab2577ddd9b23578781bf","","","","","2554",""," ","key"," ","16.66499999999997","500","250","pog","295","2","0","0","309","304"
"","psychophysics","192","969741","0.0-192.0","604227d56f34b50536d0df92","64cab2577ddd9b23578781bf","","","","","4306",""," ","key"," ","16.664918287937596","500","250","pog","358","2","0","0","346","369"
"","psychophysics","193","974778","0.0-193.0","604227d56f34b50536d0df92","64cab2577ddd9b23578781bf","","","","","5024",""," ","key"," ","16.720348837209535","500","250","pog","321","2","0","0","353","326"
"","psychophysics","194","975459","0.0-194.0","604227d56f34b50536d0df92","64cab2577ddd9b23578781bf","","","","","675",""," ","key"," ","16.664769230771643","500","250","inst","","","","","",""
"","psychophysics","195","982347","0.0-195.0","604227d56f34b50536d0df92","64cab2577ddd9b23578781bf","","","","","6871",""," ","key"," ","16.664915254237254","500","250","instEB4","49","1","0","0","40","40"
"","psychophysics","196","982856","0.0-196.0","604227d56f34b50536d0df92","64cab2577ddd9b23578781bf","","","","","504",""," ","key"," ","16.665241379310892","500","250","inst","","","","","",""
"","psychophysics","197","986787","0.0-197.0","604227d56f34b50536d0df92","64cab2577ddd9b23578781bf","","","","","3913",""," ","key"," ","16.66497021276613","500","250","eb","40","1","0","0","28","33"
"","psychophysics","198","988727","0.0-198.0","604227d56f34b50536d0df92","64cab2577ddd9b23578781bf","","","","","1921",""," ","key"," ","16.665043103448436","500","250","eb","54","1","0","0","54","48"
"","psychophysics","199","989967","0.0-199.0","604227d56f34b50536d0df92","64cab2577ddd9b23578781bf","","","","","1232",""," ","key"," ","16.664931506849825","500","250","eb","46","1","0","0","46","35"
"","psychophysics","200","994106","0.0-200.0","604227d56f34b50536d0df92","64cab2577ddd9b23578781bf","","","","","4111",""," ","key"," ","16.664975708502304","500","250","eb","41","1","0","0","32","34"
"","psychophysics","201","998977","0.0-201.0","604227d56f34b50536d0df92","64cab2577ddd9b23578781bf","","","","","4853",""," ","key"," ","16.72225429553257","500","250","eb","28","1","0","0","26","24"
"","psychophysics","202","1003609","0.0-202.0","604227d56f34b50536d0df92","64cab2577ddd9b23578781bf","","","","","4623",""," ","key"," ","16.66490613718413","500","250","eb","28","1","0","0","45","25"
"","psychophysics","203","1008664","0.0-203.0","604227d56f34b50536d0df92","64cab2577ddd9b23578781bf","","","","","5047",""," ","key"," ","16.66495033112603","500","250","eb","39","1","0","0","48","32"
"","psychophysics","204","1015194","0.0-204.0","604227d56f34b50536d0df92","64cab2577ddd9b23578781bf","","","","","6515",""," ","key"," ","16.66493861892593","500","250","eb","55","1","0","0","42","48"
"","psychophysics","205","1022711","0.0-205.0","604227d56f34b50536d0df92","64cab2577ddd9b23578781bf","","","","","7498",""," ","key"," ","16.664942222222322","500","250","eb","31","1","0","0","28","27"
"","psychophysics","206","1028717","0.0-206.0","604227d56f34b50536d0df92","64cab2577ddd9b23578781bf","","","","","5986",""," ","key"," ","16.664941504178373","500","250","eb","46","1","0","0","52","41"
"","psychophysics","207","1034678","0.0-207.0","604227d56f34b50536d0df92","64cab2577ddd9b23578781bf","","","","","5944",""," ","key"," ","16.664904761904555","500","250","eb","29","1","0","0","38","26"
"","psychophysics","208","1041643","0.0-208.0","604227d56f34b50536d0df92","64cab2577ddd9b23578781bf","","","","","6947",""," ","key"," ","16.6649568345324","500","250","eb","53","1","0","0","35","47"
"","psychophysics","209","1048245","0.0-209.0","604227d56f34b50536d0df92","64cab2577ddd9b23578781bf","","","","","6584",""," ","key"," ","16.707256345177626","500","250","eb","57","1","0","0","29","49"
"","psychophysics","210","1052708","0.0-210.0","604227d56f34b50536d0df92","64cab2577ddd9b23578781bf","","","","","4443",""," ","key"," ","16.66492134831455","500","250","eb","59","1","0","0","54","51"
"","psychophysics","211","1058528","0.0-211.0","604227d56f34b50536d0df92","64cab2577ddd9b23578781bf","","","","","5805",""," ","key"," ","16.664931034482613","500","250","eb","60","1","0","0","34","53"
