"success","trial_type","trial_index","time_elapsed","internal_node_id","pid","sid","timeout","failed_images","failed_audio","failed_video","rt","stimulus","response","response_type","key_press","avg_frame_time","center_x","center_y","task","resp","start","parA","version","jitterX","jitterY"
"true","fullscreen","0","67502","0.0-0.0","64d95acd2edfa61eca0d3cfb","64dbc169d356e8b420712f9a","","","","","","","","","","","","","","","","","","",""
"true","preload","1","67585","0.0-1.0","64d95acd2edfa61eca0d3cfb","64dbc169d356e8b420712f9a","false","[]","[]","[]","","","","","","","","","","","","","","",""
"","html-button-response","2","69653","0.0-2.0","64d95acd2edfa61eca0d3cfb","64dbc169d356e8b420712f9a","","","","","2067","Please Make Sure Your Audio Is On.","0","","","","","","","","","","","",""
"","psychophysics","3","78909","0.0-3.0","64d95acd2edfa61eca0d3cfb","64dbc169d356e8b420712f9a","","","","","9248",""," ","key"," ","16.66243243243242","683","250","","","","","","",""
"","psychophysics","4","85481","0.0-4.0","64d95acd2edfa61eca0d3cfb","64dbc169d356e8b420712f9a","","","","","6561",""," ","key"," ","16.662439086294388","500","250","inst","","","","","",""
"","psychophysics","5","98381","0.0-5.0","64d95acd2edfa61eca0d3cfb","64dbc169d356e8b420712f9a","","","","","12897",""," ","key"," ","16.662310478654593","500","250","sample0","","","","","",""
"","psychophysics","6","101939","0.0-6.0","64d95acd2edfa61eca0d3cfb","64dbc169d356e8b420712f9a","","","","","3555",""," ","key"," ","16.66217840375591","500","250","sample1","","","","","",""
"","psychophysics","7","129612","0.0-7.0","64d95acd2edfa61eca0d3cfb","64dbc169d356e8b420712f9a","","","","","27668",""," ","key"," ","16.662297166968056","500","250","sample2","120","","","","",""
"","psychophysics","8","143780","0.0-8.0","64d95acd2edfa61eca0d3cfb","64dbc169d356e8b420712f9a","","","","","14160",""," ","key"," ","16.662434117647063","500","250","sample3","98","","","","",""
"","psychophysics","9","163635","0.0-9.0","64d95acd2edfa61eca0d3cfb","64dbc169d356e8b420712f9a","","","","","19854",""," ","key"," ","16.662206722689085","500","250","sample4","100","","","","",""
"","psychophysics","10","172078","0.0-10.0","64d95acd2edfa61eca0d3cfb","64dbc169d356e8b420712f9a","","","","","8434",""," ","key"," ","16.662326086956497","500","250","sample5","","","","","",""
"","psychophysics","11","185961","0.0-11.0","64d95acd2edfa61eca0d3cfb","64dbc169d356e8b420712f9a","","","","","13881",""," ","key"," ","16.66231730769232","500","250","sample6","502","","","","",""
"","psychophysics","12","200048","0.0-12.0","64d95acd2edfa61eca0d3cfb","64dbc169d356e8b420712f9a","","","","","14081",""," ","key"," ","16.66224615384615","500","250","inst","","","","","",""
"","psychophysics","13","211644","0.0-13.0","64d95acd2edfa61eca0d3cfb","64dbc169d356e8b420712f9a","","","","","11594",""," ","key"," ","16.686135446685856","500","250","inst","","","","","",""
"","psychophysics","14","231046","0.0-14.0","64d95acd2edfa61eca0d3cfb","64dbc169d356e8b420712f9a","","","","","19400",""," ","key"," ","16.66235597592434","500","250","inst","","","","","",""
"","psychophysics","15","251458","0.0-15.0","64d95acd2edfa61eca0d3cfb","64dbc169d356e8b420712f9a","","","","","20410",""," ","key"," ","16.662237745098036","500","250","inst","","","","","",""
"","psychophysics","16","254487","0.0-16.0","64d95acd2edfa61eca0d3cfb","64dbc169d356e8b420712f9a","","","","","3026",""," ","key"," ","16.662839779005616","500","250","inst","","","","","",""
"","psychophysics","17","262534","0.0-17.0","64d95acd2edfa61eca0d3cfb","64dbc169d356e8b420712f9a","","","","","8044",""," ","key"," ","16.662232365145222","500","250","instPzPre","50","50","50","0","",""
"","psychophysics","18","277002","0.0-18.0","64d95acd2edfa61eca0d3cfb","64dbc169d356e8b420712f9a","","","","","14464",""," ","key"," ","16.662381776239947","500","250","instPz0","45","50","50","2","",""
"","psychophysics","19","293608","0.0-19.0","64d95acd2edfa61eca0d3cfb","64dbc169d356e8b420712f9a","","","","","16598",""," ","key"," ","16.662272088353376","500","250","instPz1","45","25","50","2","",""
"","psychophysics","20","306177","0.0-20.0","64d95acd2edfa61eca0d3cfb","64dbc169d356e8b420712f9a","","","","","12568",""," ","key"," ","16.662132802124848","500","250","instPz2","34","20","35","2","",""
"","psychophysics","21","318810","0.0-21.0","64d95acd2edfa61eca0d3cfb","64dbc169d356e8b420712f9a","","","","","12629",""," ","key"," ","16.66251519154554","500","250","instPz3","30","30","100","2","",""
"","psychophysics","22","336368","0.0-22.0","64d95acd2edfa61eca0d3cfb","64dbc169d356e8b420712f9a","","","","","17551",""," ","key"," ","16.66249097815765","500","250","instPz4","79","30","100","2","",""
"","psychophysics","23","343013","0.0-23.0","64d95acd2edfa61eca0d3cfb","64dbc169d356e8b420712f9a","","","","","6644",""," ","key"," ","16.662711055276432","500","250","inst","","","","","",""
"","psychophysics","24","351019","0.0-24.0","64d95acd2edfa61eca0d3cfb","64dbc169d356e8b420712f9a","","","","","null","","null","key","null","16.66218580375778","500","250","pz","20","34","26","2","",""
"","psychophysics","25","351105","0.0-25.0","64d95acd2edfa61eca0d3cfb","64dbc169d356e8b420712f9a","","","","","83",""," ","key"," ","16.69220000000205","500","250","pz","22","22","48","2","",""
"","psychophysics","26","359107","0.0-26.0","64d95acd2edfa61eca0d3cfb","64dbc169d356e8b420712f9a","","","","","null","","null","key","null","16.662150313152367","500","250","pz","15","48","20","2","",""
"","psychophysics","27","363564","0.0-27.0","64d95acd2edfa61eca0d3cfb","64dbc169d356e8b420712f9a","","","","","4453",""," ","key"," ","16.6625112781955","500","250","pz","35","45","50","2","",""
"","psychophysics","28","368053","0.0-28.0","64d95acd2edfa61eca0d3cfb","64dbc169d356e8b420712f9a","","","","","4486",""," ","key"," ","16.662646840148618","500","250","pz","26","21","35","2","",""
"","psychophysics","29","373488","0.0-29.0","64d95acd2edfa61eca0d3cfb","64dbc169d356e8b420712f9a","","","","","5433",""," ","key"," ","16.662116923076997","500","250","pz","37","44","49","2","",""
"","psychophysics","30","378662","0.0-30.0","64d95acd2edfa61eca0d3cfb","64dbc169d356e8b420712f9a","","","","","5170",""," ","key"," ","16.662411003236237","500","250","pz","43","52","56","2","",""
"","psychophysics","31","385474","0.0-31.0","64d95acd2edfa61eca0d3cfb","64dbc169d356e8b420712f9a","","","","","6805",""," ","key"," ","16.662137254901964","500","250","pz","24","46","27","2","",""
"","psychophysics","32","391301","0.0-32.0","64d95acd2edfa61eca0d3cfb","64dbc169d356e8b420712f9a","","","","","5819",""," ","key"," ","16.662134670487","500","250","pz","30","48","37","2","",""
"","psychophysics","33","397404","0.0-33.0","64d95acd2edfa61eca0d3cfb","64dbc169d356e8b420712f9a","","","","","6099",""," ","key"," ","16.662361643835744","500","250","pz","36","31","45","2","",""
"","psychophysics","34","404950","0.0-34.0","64d95acd2edfa61eca0d3cfb","64dbc169d356e8b420712f9a","","","","","7540",""," ","key"," ","16.662371681415912","500","250","pz","47","53","59","2","",""
"","psychophysics","35","408924","0.0-35.0","64d95acd2edfa61eca0d3cfb","64dbc169d356e8b420712f9a","","","","","3965",""," ","key"," ","16.661680672269075","500","250","pz","46","53","50","2","",""
"","psychophysics","36","415425","0.0-36.0","64d95acd2edfa61eca0d3cfb","64dbc169d356e8b420712f9a","","","","","6499",""," ","key"," ","16.662380462724855","500","250","pz","37","52","42","2","",""
"","psychophysics","37","420783","0.0-37.0","64d95acd2edfa61eca0d3cfb","64dbc169d356e8b420712f9a","","","","","5353",""," ","key"," ","16.662312500000006","500","250","pz","22","27","23","2","",""
"","psychophysics","38","428789","0.0-38.0","64d95acd2edfa61eca0d3cfb","64dbc169d356e8b420712f9a","","","","","null","","null","key","null","16.662356249999963","500","250","pz","35","50","43","2","",""
"","psychophysics","39","442567","0.0-39.0","64d95acd2edfa61eca0d3cfb","64dbc169d356e8b420712f9a","","","","","13775",""," ","key"," ","16.66205932203387","500","250","inst","","","","","",""
"","psychophysics","40","447719","0.0-40.0","64d95acd2edfa61eca0d3cfb","64dbc169d356e8b420712f9a","","","","","5151",""," ","key"," ","16.66303896103901","500","250","instEB0","40","40","40","","0","0"
"","psychophysics","41","460397","0.0-41.0","64d95acd2edfa61eca0d3cfb","64dbc169d356e8b420712f9a","","","","","12674",""," ","key"," ","16.66224868421054","500","250","instEB1","71","30","70","2","0","0"
"","psychophysics","42","469712","0.0-42.0","64d95acd2edfa61eca0d3cfb","64dbc169d356e8b420712f9a","","","","","9311",""," ","key"," ","16.662320788530486","500","250","instEB2","45","60","40","2","0","0"
"","psychophysics","43","480490","0.0-43.0","64d95acd2edfa61eca0d3cfb","64dbc169d356e8b420712f9a","","","","","10774",""," ","key"," ","16.66208049535608","500","250","instEB3","73","45","65","2","0","0"
"","psychophysics","44","490443","0.0-44.0","64d95acd2edfa61eca0d3cfb","64dbc169d356e8b420712f9a","","","","","9951",""," ","key"," ","16.66204865771813","500","250","instEB4","52","40","40","2","0","0"
"","psychophysics","45","494252","0.0-45.0","64d95acd2edfa61eca0d3cfb","64dbc169d356e8b420712f9a","","","","","3807",""," ","key"," ","16.662131578947434","500","250","inst","","","","","",""
"","psychophysics","46","499908","0.0-46.0","64d95acd2edfa61eca0d3cfb","64dbc169d356e8b420712f9a","","","","","5649",""," ","key"," ","16.66229289940823","500","250","eb","61","25","49","2","0","0"
"","psychophysics","47","504346","0.0-47.0","64d95acd2edfa61eca0d3cfb","64dbc169d356e8b420712f9a","","","","","4434",""," ","key"," ","16.662305660377353","500","250","eb","49","37","42","2","0","0"
"","psychophysics","48","510648","0.0-48.0","64d95acd2edfa61eca0d3cfb","64dbc169d356e8b420712f9a","","","","","6297",""," ","key"," ","16.66214814814819","500","250","eb","39","52","31","2","0","0"
"","psychophysics","49","515997","0.0-49.0","64d95acd2edfa61eca0d3cfb","64dbc169d356e8b420712f9a","","","","","5346",""," ","key"," ","16.662693749999924","500","250","eb","57","41","52","2","0","0"
"","psychophysics","50","520953","0.0-50.0","64d95acd2edfa61eca0d3cfb","64dbc169d356e8b420712f9a","","","","","4953",""," ","key"," ","16.662530405405395","500","250","eb","31","25","27","2","0","0"
"","psychophysics","51","526366","0.0-51.0","64d95acd2edfa61eca0d3cfb","64dbc169d356e8b420712f9a","","","","","5407",""," ","key"," ","16.662111111111038","500","250","eb","53","47","46","2","0","0"
"","psychophysics","52","531642","0.0-52.0","64d95acd2edfa61eca0d3cfb","64dbc169d356e8b420712f9a","","","","","5273",""," ","key"," ","16.66239873417712","500","250","eb","44","33","39","2","0","0"
"","psychophysics","53","536284","0.0-53.0","64d95acd2edfa61eca0d3cfb","64dbc169d356e8b420712f9a","","","","","4640",""," ","key"," ","16.661415162454663","500","250","eb","48","29","43","2","0","0"
"","psychophysics","54","541340","0.0-54.0","64d95acd2edfa61eca0d3cfb","64dbc169d356e8b420712f9a","","","","","5053",""," ","key"," ","16.661980198020046","500","250","eb","54","31","49","2","0","0"
"","psychophysics","55","546983","0.0-55.0","64d95acd2edfa61eca0d3cfb","64dbc169d356e8b420712f9a","","","","","5639",""," ","key"," ","16.6625370919882","500","250","eb","31","35","26","2","0","0"
"","psychophysics","56","550981","0.0-56.0","64d95acd2edfa61eca0d3cfb","64dbc169d356e8b420712f9a","","","","","3996",""," ","key"," ","16.662815899581837","500","250","eb","29","28","25","2","0","0"
"","psychophysics","57","554870","0.0-57.0","64d95acd2edfa61eca0d3cfb","64dbc169d356e8b420712f9a","","","","","3883",""," ","key"," ","16.662527896995982","500","250","eb","55","37","45","2","0","0"
"","psychophysics","58","558796","0.0-58.0","64d95acd2edfa61eca0d3cfb","64dbc169d356e8b420712f9a","","","","","3923",""," ","key"," ","16.662478632478216","500","250","eb","51","50","44","2","0","0"
"","psychophysics","59","564289","0.0-59.0","64d95acd2edfa61eca0d3cfb","64dbc169d356e8b420712f9a","","","","","5491",""," ","key"," ","16.662495440729515","500","250","eb","44","26","39","2","0","0"
"","psychophysics","60","567369","0.0-60.0","64d95acd2edfa61eca0d3cfb","64dbc169d356e8b420712f9a","","","","","3076",""," ","key"," ","16.662706521738944","500","250","eb","43","47","35","2","0","0"
"","psychophysics","61","569408","0.0-61.0","64d95acd2edfa61eca0d3cfb","64dbc169d356e8b420712f9a","","","","","2034",""," ","key"," ","16.662966942149097","500","250","inst","","","","","",""
"","psychophysics","62","572015","0.0-62.0","64d95acd2edfa61eca0d3cfb","64dbc169d356e8b420712f9a","","","","","2603",""," ","key"," ","16.661929487179105","500","250","instZol0","0","0","","","0","0"
"","psychophysics","63","587453","0.0-63.0","64d95acd2edfa61eca0d3cfb","64dbc169d356e8b420712f9a","","","","","15434",""," ","key"," ","16.662338378378443","500","250","instZol1","-2.7755575615628914e-17","-1.3","","","0","0"
"","psychophysics","64","606330","0.0-64.0","64d95acd2edfa61eca0d3cfb","64dbc169d356e8b420712f9a","","","","","18867",""," ","key"," ","16.662363074204983","500","250","instZol2","1.0000000000000007","2","","1","0","0"
"","psychophysics","65","607989","0.0-65.0","64d95acd2edfa61eca0d3cfb","64dbc169d356e8b420712f9a","","","","","1656",""," ","key"," ","16.661181818182353","500","250","inst","","","","","",""
"","psychophysics","66","615993","0.0-66.0","64d95acd2edfa61eca0d3cfb","64dbc169d356e8b420712f9a","","","","","null","","null","key","null","16.662114822547075","500","250","zol","1.3800000000000003","-0.68","","1","-15","-8"
"","psychophysics","67","623996","0.0-67.0","64d95acd2edfa61eca0d3cfb","64dbc169d356e8b420712f9a","","","","","null","","null","key","null","16.661753653444638","500","250","zol","1.4300000000000004","0.47","","1","18","28"
"","psychophysics","68","628561","0.0-68.0","64d95acd2edfa61eca0d3cfb","64dbc169d356e8b420712f9a","","","","","4563",""," ","key"," ","16.662300366300222","500","250","zol","1.4000000000000001","0.7","","1","4","22"
"","psychophysics","69","634841","0.0-69.0","64d95acd2edfa61eca0d3cfb","64dbc169d356e8b420712f9a","","","","","6278",""," ","key"," ","16.66242021276613","500","250","zol","1.2400000000000002","0.16","","1","23","-16"
"","psychophysics","70","640736","0.0-70.0","64d95acd2edfa61eca0d3cfb","64dbc169d356e8b420712f9a","","","","","5892",""," ","key"," ","16.662815864022793","500","250","zol","1.37","-0.37","","1","4","-29"
"","psychophysics","71","646512","0.0-71.0","64d95acd2edfa61eca0d3cfb","64dbc169d356e8b420712f9a","","","","","5768",""," ","key"," ","16.661991329479765","500","250","zol","0.9399999999999998","0.66","","1","-10","11"
"","psychophysics","72","653783","0.0-72.0","64d95acd2edfa61eca0d3cfb","64dbc169d356e8b420712f9a","","","","","7267",""," ","key"," ","16.66230804597686","500","250","zol","1.02","0.38","","1","-14","23"
"","psychophysics","73","660994","0.0-73.0","64d95acd2edfa61eca0d3cfb","64dbc169d356e8b420712f9a","","","","","7209",""," ","key"," ","16.66202546296295","500","250","zol","0.8099999999999999","-0.21","","1","-6","-26"
"","psychophysics","74","668928","0.0-74.0","64d95acd2edfa61eca0d3cfb","64dbc169d356e8b420712f9a","","","","","7925",""," ","key"," ","16.66232000000015","500","250","zol","0.86","0.44","","1","-19","-8"
"","psychophysics","75","675001","0.0-75.0","64d95acd2edfa61eca0d3cfb","64dbc169d356e8b420712f9a","","","","","6065",""," ","key"," ","16.662181818181747","500","250","zol","0.9799999999999999","-0.28","","1","-13","-4"
"","psychophysics","76","679673","0.0-76.0","64d95acd2edfa61eca0d3cfb","64dbc169d356e8b420712f9a","","","","","4667",""," ","key"," ","16.662621428571374","500","250","zol","1.1300000000000001","0.07","","1","-25","-12"
"","psychophysics","77","684486","0.0-77.0","64d95acd2edfa61eca0d3cfb","64dbc169d356e8b420712f9a","","","","","4807",""," ","key"," ","16.662239583333253","500","250","zol","1.2400000000000002","-0.64","","1","-23","10"
"","psychophysics","78","692489","0.0-78.0","64d95acd2edfa61eca0d3cfb","64dbc169d356e8b420712f9a","","","","","null","","null","key","null","16.662478079332043","500","250","zol","1.13","-0.33","","1","-27","-30"
"","psychophysics","79","697732","0.0-79.0","64d95acd2edfa61eca0d3cfb","64dbc169d356e8b420712f9a","","","","","5235",""," ","key"," ","16.66187579617806","500","250","zol","0.93","-0.13","","1","-14","-17"
"","psychophysics","80","705744","0.0-80.0","64d95acd2edfa61eca0d3cfb","64dbc169d356e8b420712f9a","","","","","null","","null","key","null","16.66230688935281","500","250","zol","1.28","-0.28","","1","-15","20"
"","psychophysics","81","708157","0.0-81.0","64d95acd2edfa61eca0d3cfb","64dbc169d356e8b420712f9a","","","","","2410",""," ","key"," ","16.66138194444486","500","250","inst","","","","","",""
"","psychophysics","82","710529","0.0-82.0","64d95acd2edfa61eca0d3cfb","64dbc169d356e8b420712f9a","","","","","2370",""," ","key"," ","16.662873239436802","500","250","instBr0","0","0","300","","0","0"
"","psychophysics","83","720893","0.0-83.0","64d95acd2edfa61eca0d3cfb","64dbc169d356e8b420712f9a","","","","","10362",""," ","key"," ","16.66235426731086","500","250","instBr1","0","-40","300","","0","0"
"","psychophysics","84","735660","0.0-84.0","64d95acd2edfa61eca0d3cfb","64dbc169d356e8b420712f9a","","","","","14762",""," ","key"," ","16.662362711864397","500","250","instBr3","24","40","300","2","0","0"
"","psychophysics","85","740704","0.0-85.0","64d95acd2edfa61eca0d3cfb","64dbc169d356e8b420712f9a","","","","","5041",""," ","key"," ","16.66247350993352","500","250","inst","","","","","",""
"","psychophysics","86","746053","0.0-86.0","64d95acd2edfa61eca0d3cfb","64dbc169d356e8b420712f9a","","","","","5345",""," ","key"," ","16.66280000000006","500","250","br","20","-30","210","2","10","29"
"","psychophysics","87","750685","0.0-87.0","64d95acd2edfa61eca0d3cfb","64dbc169d356e8b420712f9a","","","","","4630",""," ","key"," ","16.66207942238291","500","250","br","20","-26","267","2","11","21"
"","psychophysics","88","755357","0.0-88.0","64d95acd2edfa61eca0d3cfb","64dbc169d356e8b420712f9a","","","","","4669",""," ","key"," ","16.662401433691958","500","250","br","21","1","201","2","-11","-27"
"","psychophysics","89","760710","0.0-89.0","64d95acd2edfa61eca0d3cfb","64dbc169d356e8b420712f9a","","","","","5348",""," ","key"," ","16.661746875000244","500","250","br","18","-7","263","2","-26","-20"
"","psychophysics","90","764901","0.0-90.0","64d95acd2edfa61eca0d3cfb","64dbc169d356e8b420712f9a","","","","","4188",""," ","key"," ","16.662517928286917","500","250","br","25","-4","219","2","-24","17"
"","psychophysics","91","768663","0.0-91.0","64d95acd2edfa61eca0d3cfb","64dbc169d356e8b420712f9a","","","","","3756",""," ","key"," ","16.662284444444296","500","250","br","20","3","275","2","11","-23"
"","psychophysics","92","771030","0.0-92.0","64d95acd2edfa61eca0d3cfb","64dbc169d356e8b420712f9a","","","","","2362",""," ","key"," ","16.662354609929025","500","250","br","22","19","241","2","-19","-12"
"","psychophysics","93","775762","0.0-93.0","64d95acd2edfa61eca0d3cfb","64dbc169d356e8b420712f9a","","","","","4727",""," ","key"," ","16.662406360424065","500","250","br","20","-7","211","2","22","-23"
"","psychophysics","94","778259","0.0-94.0","64d95acd2edfa61eca0d3cfb","64dbc169d356e8b420712f9a","","","","","2493",""," ","key"," ","16.66232214765092","500","250","br","24","22","213","2","-26","21"
"","psychophysics","95","783615","0.0-95.0","64d95acd2edfa61eca0d3cfb","64dbc169d356e8b420712f9a","","","","","5353",""," ","key"," ","16.662481249999836","500","250","br","27","5","290","2","4","22"
"","psychophysics","96","786536","0.0-96.0","64d95acd2edfa61eca0d3cfb","64dbc169d356e8b420712f9a","","","","","2916",""," ","key"," ","16.662545977011135","500","250","br","26","5","277","2","-24","-18"
"","psychophysics","97","791426","0.0-97.0","64d95acd2edfa61eca0d3cfb","64dbc169d356e8b420712f9a","","","","","4886",""," ","key"," ","16.66263139931725","500","250","br","22","3","257","2","26","-5"
"","psychophysics","98","795893","0.0-98.0","64d95acd2edfa61eca0d3cfb","64dbc169d356e8b420712f9a","","","","","4462",""," ","key"," ","16.662505617977402","500","250","br","22","10","274","2","4","26"
"","psychophysics","99","803277","0.0-99.0","64d95acd2edfa61eca0d3cfb","64dbc169d356e8b420712f9a","","","","","7379",""," ","key"," ","16.6622285067875","500","250","br","27","-15","296","2","11","-3"
"","psychophysics","100","808824","0.0-100.0","64d95acd2edfa61eca0d3cfb","64dbc169d356e8b420712f9a","","","","","5546",""," ","key"," ","16.662843373494017","500","250","br","24","17","274","2","-11","-25"
"","psychophysics","101","810645","0.0-101.0","64d95acd2edfa61eca0d3cfb","64dbc169d356e8b420712f9a","","","","","1817",""," ","key"," ","16.6633888888895","500","250","inst","","","","","",""
"","psychophysics","102","827054","0.0-102.0","64d95acd2edfa61eca0d3cfb","64dbc169d356e8b420712f9a","","","","","16408",""," ","key"," ","16.66224288617886","500","250","instPog0","160","190","160","1","0","0"
"","psychophysics","103","840598","0.0-103.0","64d95acd2edfa61eca0d3cfb","64dbc169d356e8b420712f9a","","","","","13541",""," ","key"," ","16.662312807881715","500","250","instPog1","160","190","160","1","0","0"
"","psychophysics","104","850703","0.0-104.0","64d95acd2edfa61eca0d3cfb","64dbc169d356e8b420712f9a","","","","","10102",""," ","key"," ","16.66244958677687","500","250","instPog2","176","160","160","1","0","0"
"","psychophysics","105","861110","0.0-105.0","64d95acd2edfa61eca0d3cfb","64dbc169d356e8b420712f9a","","","","","10401",""," ","key"," ","16.662552884615323","500","250","inst","","","","","",""
"","psychophysics","106","866848","0.0-106.0","64d95acd2edfa61eca0d3cfb","64dbc169d356e8b420712f9a","","","","","5737",""," ","key"," ","16.662099125364364","500","250","pog","209","217","191","1","0","0"
"","psychophysics","107","874851","0.0-107.0","64d95acd2edfa61eca0d3cfb","64dbc169d356e8b420712f9a","","","","","null","","null","key","null","16.662304166666825","500","250","pog","182","134","176","1","0","0"
"","psychophysics","108","879522","0.0-108.0","64d95acd2edfa61eca0d3cfb","64dbc169d356e8b420712f9a","","","","","4665",""," ","key"," ","16.66247670250898","500","250","pog","152","172","131","1","0","0"
"","psychophysics","109","884207","0.0-109.0","64d95acd2edfa61eca0d3cfb","64dbc169d356e8b420712f9a","","","","","4682",""," ","key"," ","16.66245000000012","500","250","pog","196","136","175","1","0","0"
"","psychophysics","110","889719","0.0-110.0","64d95acd2edfa61eca0d3cfb","64dbc169d356e8b420712f9a","","","","","5510",""," ","key"," ","16.66220909090903","500","250","pog","180","194","166","1","0","0"
"","psychophysics","111","895406","0.0-111.0","64d95acd2edfa61eca0d3cfb","64dbc169d356e8b420712f9a","","","","","5681",""," ","key"," ","16.66232941176448","500","250","pog","180","146","180","1","0","0"
"","psychophysics","112","897837","0.0-112.0","64d95acd2edfa61eca0d3cfb","64dbc169d356e8b420712f9a","","","","","2427",""," ","key"," ","16.662620689654883","500","250","pog","179","175","175","1","0","0"
"","psychophysics","113","901485","0.0-113.0","64d95acd2edfa61eca0d3cfb","64dbc169d356e8b420712f9a","","","","","3645",""," ","key"," ","16.66241743119269","500","250","pog","162","126","156","1","0","0"
"","psychophysics","114","906773","0.0-114.0","64d95acd2edfa61eca0d3cfb","64dbc169d356e8b420712f9a","","","","","5284",""," ","key"," ","16.66191455696214","500","250","pog","146","180","137","1","0","0"
"","psychophysics","115","912494","0.0-115.0","64d95acd2edfa61eca0d3cfb","64dbc169d356e8b420712f9a","","","","","5719",""," ","key"," ","16.662795918367113","500","250","pog","172","202","165","1","0","0"
"","psychophysics","116","917623","0.0-116.0","64d95acd2edfa61eca0d3cfb","64dbc169d356e8b420712f9a","","","","","5124",""," ","key"," ","16.662356209150268","500","250","pog","188","104","177","1","0","0"
"","psychophysics","117","920817","0.0-117.0","64d95acd2edfa61eca0d3cfb","64dbc169d356e8b420712f9a","","","","","3188",""," ","key"," ","16.662486910994936","500","250","pog","183","163","174","1","0","0"
"","psychophysics","118","926275","0.0-118.0","64d95acd2edfa61eca0d3cfb","64dbc169d356e8b420712f9a","","","","","5454",""," ","key"," ","16.66229051987773","500","250","pog","161","121","156","1","0","0"
"","psychophysics","119","929572","0.0-119.0","64d95acd2edfa61eca0d3cfb","64dbc169d356e8b420712f9a","","","","","3295",""," ","key"," ","16.66239593908614","500","250","pog","189","193","178","1","0","0"
"","psychophysics","120","936312","0.0-120.0","64d95acd2edfa61eca0d3cfb","64dbc169d356e8b420712f9a","","","","","6735",""," ","key"," ","16.662444168734698","500","250","pog","196","180","184","1","0","0"
"","psychophysics","121","939618","0.0-121.0","64d95acd2edfa61eca0d3cfb","64dbc169d356e8b420712f9a","","","","","3302",""," ","key"," ","16.66305555555572","500","250","inst","","","","","",""
"","psychophysics","122","955343","0.0-122.0","64d95acd2edfa61eca0d3cfb","64dbc169d356e8b420712f9a","","","","","15723",""," ","key"," ","16.66230679405512","500","250","instZol1","0.09999999999999981","-1.3","","","0","0"
"","psychophysics","123","965074","0.0-123.0","64d95acd2edfa61eca0d3cfb","64dbc169d356e8b420712f9a","","","","","9724",""," ","key"," ","16.662478559176634","500","250","instZol2","-1.0999999999999992","2","","2","0","0"
"","psychophysics","124","979667","0.0-124.0","64d95acd2edfa61eca0d3cfb","64dbc169d356e8b420712f9a","","","","","14587",""," ","key"," ","16.662351999999956","500","250","inst","","","","","",""
"","psychophysics","125","985504","0.0-125.0","64d95acd2edfa61eca0d3cfb","64dbc169d356e8b420712f9a","","","","","5829",""," ","key"," ","16.66253868194816","500","250","zol","-0.42999999999999994","0.43","","2","24","18"
"","psychophysics","126","992430","0.0-126.0","64d95acd2edfa61eca0d3cfb","64dbc169d356e8b420712f9a","","","","","6919",""," ","key"," ","16.662672289156816","500","250","zol","-0.81","0.61","","2","-3","26"
"","psychophysics","127","1000272","0.0-127.0","64d95acd2edfa61eca0d3cfb","64dbc169d356e8b420712f9a","","","","","7832",""," ","key"," ","16.662278723404395","500","250","zol","-0.9600000000000001","0.56","","2","-29","7"
"","psychophysics","128","1006171","0.0-128.0","64d95acd2edfa61eca0d3cfb","64dbc169d356e8b420712f9a","","","","","5890",""," ","key"," ","16.662671388101845","500","250","zol","-1.4000000000000001","0.7","","2","-22","21"
"","psychophysics","129","1011116","0.0-129.0","64d95acd2edfa61eca0d3cfb","64dbc169d356e8b420712f9a","","","","","4943",""," ","key"," ","16.66199324324348","500","250","zol","-0.75","-0.25","","2","23","19"
"","psychophysics","130","1018006","0.0-130.0","64d95acd2edfa61eca0d3cfb","64dbc169d356e8b420712f9a","","","","","6886",""," ","key"," ","16.662381067961054","500","250","zol","-0.7400000000000001","0.44","","2","0","-26"
"","psychophysics","131","1024255","0.0-131.0","64d95acd2edfa61eca0d3cfb","64dbc169d356e8b420712f9a","","","","","6237",""," ","key"," ","16.662521390374476","500","250","zol","-1.2400000000000002","0.54","","2","28","-6"
"","psychophysics","132","1029247","0.0-132.0","64d95acd2edfa61eca0d3cfb","64dbc169d356e8b420712f9a","","","","","4982",""," ","key"," ","16.662575250836074","500","250","zol","-1.2600000000000002","0.66","","2","3","24"
"","psychophysics","133","1036534","0.0-133.0","64d95acd2edfa61eca0d3cfb","64dbc169d356e8b420712f9a","","","","","7284",""," ","key"," ","16.66264449541298","500","250","zol","-0.8300000000000001","0.53","","2","17","20"
"","psychophysics","134","1043081","0.0-134.0","64d95acd2edfa61eca0d3cfb","64dbc169d356e8b420712f9a","","","","","6545",""," ","key"," ","16.661892857143005","500","250","zol","-0.9899999999999999","-0.11","","2","-18","18"
"","psychophysics","135","1050171","0.0-135.0","64d95acd2edfa61eca0d3cfb","64dbc169d356e8b420712f9a","","","","","7082",""," ","key"," ","16.66252594339614","500","250","zol","-0.83","-0.47","","2","-17","11"
"","psychophysics","136","1058174","0.0-136.0","64d95acd2edfa61eca0d3cfb","64dbc169d356e8b420712f9a","","","","","null","","null","key","null","16.662504166666864","500","250","zol","-1.27","-0.63","","2","18","-10"
"","psychophysics","137","1066181","0.0-137.0","64d95acd2edfa61eca0d3cfb","64dbc169d356e8b420712f9a","","","","","null","","null","key","null","16.66231524008365","500","250","zol","-1.2100000000000002","0.21","","2","-11","-24"
"","psychophysics","138","1071701","0.0-138.0","64d95acd2edfa61eca0d3cfb","64dbc169d356e8b420712f9a","","","","","5512",""," ","key"," ","16.662438066465235","500","250","zol","-0.73","-0.27","","2","-12","-27"
"","psychophysics","139","1077030","0.0-139.0","64d95acd2edfa61eca0d3cfb","64dbc169d356e8b420712f9a","","","","","5324",""," ","key"," ","16.66238050314498","500","250","zol","-0.47","-0.53","","2","17","18"
"","psychophysics","140","1078191","0.0-140.0","64d95acd2edfa61eca0d3cfb","64dbc169d356e8b420712f9a","","","","","1155",""," ","key"," ","16.66308695652212","500","250","inst","","","","","",""
"","psychophysics","141","1091585","0.0-141.0","64d95acd2edfa61eca0d3cfb","64dbc169d356e8b420712f9a","","","","","13390",""," ","key"," ","16.662306351182984","500","250","instPz1","49","25","50","1","",""
"","psychophysics","142","1100687","0.0-142.0","64d95acd2edfa61eca0d3cfb","64dbc169d356e8b420712f9a","","","","","9098",""," ","key"," ","16.662289908257048","500","250","instPz2","23","35","20","1","",""
"","psychophysics","143","1104305","0.0-143.0","64d95acd2edfa61eca0d3cfb","64dbc169d356e8b420712f9a","","","","","3610",""," ","key"," ","16.662856481482137","500","250","instPz3","100","100","30","1","",""
"","psychophysics","144","1111913","0.0-144.0","64d95acd2edfa61eca0d3cfb","64dbc169d356e8b420712f9a","","","","","7608",""," ","key"," ","16.698452747252944","500","250","instPz4","40","100","30","1","",""
"","psychophysics","145","1113547","0.0-145.0","64d95acd2edfa61eca0d3cfb","64dbc169d356e8b420712f9a","","","","","1632",""," ","key"," ","16.661329896906967","500","250","inst","","","","","",""
"","psychophysics","146","1118928","0.0-146.0","64d95acd2edfa61eca0d3cfb","64dbc169d356e8b420712f9a","","","","","5380",""," ","key"," ","16.66329192546607","500","250","pz","73","38","53","1","",""
"","psychophysics","147","1124921","0.0-147.0","64d95acd2edfa61eca0d3cfb","64dbc169d356e8b420712f9a","","","","","5992",""," ","key"," ","16.662144846796554","500","250","pz","63","34","57","1","",""
"","psychophysics","148","1128987","0.0-148.0","64d95acd2edfa61eca0d3cfb","64dbc169d356e8b420712f9a","","","","","4061",""," ","key"," ","16.662674897119455","500","250","pz","64","60","54","1","",""
"","psychophysics","149","1133224","0.0-149.0","64d95acd2edfa61eca0d3cfb","64dbc169d356e8b420712f9a","","","","","4231",""," ","key"," ","16.66240316205529","500","250","pz","48","26","39","1","",""
"","psychophysics","150","1140274","0.0-150.0","64d95acd2edfa61eca0d3cfb","64dbc169d356e8b420712f9a","","","","","7045",""," ","key"," ","16.66223933649309","500","250","pz","31","51","22","1","",""
"","psychophysics","151","1146768","0.0-151.0","64d95acd2edfa61eca0d3cfb","64dbc169d356e8b420712f9a","","","","","6489",""," ","key"," ","16.662226221080065","500","250","pz","53","54","40","1","",""
"","psychophysics","152","1152535","0.0-152.0","64d95acd2edfa61eca0d3cfb","64dbc169d356e8b420712f9a","","","","","5761",""," ","key"," ","16.66234492753646","500","250","pz","70","60","60","1","",""
"","psychophysics","153","1156954","0.0-153.0","64d95acd2edfa61eca0d3cfb","64dbc169d356e8b420712f9a","","","","","4414",""," ","key"," ","16.662825757575884","500","250","pz","51","36","42","1","",""
"","psychophysics","154","1161787","0.0-154.0","64d95acd2edfa61eca0d3cfb","64dbc169d356e8b420712f9a","","","","","4831",""," ","key"," ","16.66243252595226","500","250","pz","64","55","53","1","",""
"","psychophysics","155","1165901","0.0-155.0","64d95acd2edfa61eca0d3cfb","64dbc169d356e8b420712f9a","","","","","4105",""," ","key"," ","16.662390243901864","500","250","pz","37","22","32","1","",""
"","psychophysics","156","1170397","0.0-156.0","64d95acd2edfa61eca0d3cfb","64dbc169d356e8b420712f9a","","","","","4491",""," ","key"," ","16.66240892193339","500","250","pz","51","52","38","1","",""
"","psychophysics","157","1176624","0.0-157.0","64d95acd2edfa61eca0d3cfb","64dbc169d356e8b420712f9a","","","","","6222",""," ","key"," ","16.66244235924937","500","250","pz","65","59","58","1","",""
"","psychophysics","158","1180767","0.0-158.0","64d95acd2edfa61eca0d3cfb","64dbc169d356e8b420712f9a","","","","","4140",""," ","key"," ","16.662174089068948","500","250","pz","53","36","48","1","",""
"","psychophysics","159","1184826","0.0-159.0","64d95acd2edfa61eca0d3cfb","64dbc169d356e8b420712f9a","","","","","4054",""," ","key"," ","16.662374485597404","500","250","pz","43","57","35","1","",""
"","psychophysics","160","1190924","0.0-160.0","64d95acd2edfa61eca0d3cfb","64dbc169d356e8b420712f9a","","","","","6096",""," ","key"," ","16.66233972602728","500","250","pz","59","20","48","1","",""
"","psychophysics","161","1192013","0.0-161.0","64d95acd2edfa61eca0d3cfb","64dbc169d356e8b420712f9a","","","","","1085",""," ","key"," ","16.66193750000093","500","250","inst","","","","","",""
"","psychophysics","162","1198148","0.0-162.0","64d95acd2edfa61eca0d3cfb","64dbc169d356e8b420712f9a","","","","","6133",""," ","key"," ","16.66207356948205","500","250","instPog0","340","370","340","2","0","0"
"","psychophysics","163","1208640","0.0-163.0","64d95acd2edfa61eca0d3cfb","64dbc169d356e8b420712f9a","","","","","10490",""," ","key"," ","16.662483306836325","500","250","instPog1","344","370","340","2","0","0"
"","psychophysics","164","1213244","0.0-164.0","64d95acd2edfa61eca0d3cfb","64dbc169d356e8b420712f9a","","","","","4602",""," ","key"," ","16.662192727272313","500","250","instPog2","324","340","340","2","0","0"
"","psychophysics","165","1214994","0.0-165.0","64d95acd2edfa61eca0d3cfb","64dbc169d356e8b420712f9a","","","","","1748",""," ","key"," ","16.663586538461878","500","250","inst","","","","","",""
"","psychophysics","166","1219017","0.0-166.0","64d95acd2edfa61eca0d3cfb","64dbc169d356e8b420712f9a","","","","","4016",""," ","key"," ","16.66247717842278","500","250","pog","362","398","369","2","0","0"
"","psychophysics","167","1221587","0.0-167.0","64d95acd2edfa61eca0d3cfb","64dbc169d356e8b420712f9a","","","","","2567",""," ","key"," ","16.662137254902156","500","250","pog","334","358","342","2","0","0"
"","psychophysics","168","1223803","0.0-168.0","64d95acd2edfa61eca0d3cfb","64dbc169d356e8b420712f9a","","","","","2203",""," ","key"," ","16.663045454546314","500","250","pog","328","320","337","2","0","0"
"","psychophysics","169","1229998","0.0-169.0","64d95acd2edfa61eca0d3cfb","64dbc169d356e8b420712f9a","","","","","6193",""," ","key"," ","16.662425876010808","500","250","pog","361","343","377","2","0","0"
"","psychophysics","170","1235022","0.0-170.0","64d95acd2edfa61eca0d3cfb","64dbc169d356e8b420712f9a","","","","","5023",""," ","key"," ","16.662400000000684","500","250","pog","336","312","357","2","0","0"
"","psychophysics","171","1238051","0.0-171.0","64d95acd2edfa61eca0d3cfb","64dbc169d356e8b420712f9a","","","","","3021",""," ","key"," ","16.66194475138205","500","250","pog","320","348","339","2","0","0"
"","psychophysics","172","1241346","0.0-172.0","64d95acd2edfa61eca0d3cfb","64dbc169d356e8b420712f9a","","","","","3291",""," ","key"," ","16.663065989848064","500","250","pog","297","325","318","2","0","0"
"","psychophysics","173","1244135","0.0-173.0","64d95acd2edfa61eca0d3cfb","64dbc169d356e8b420712f9a","","","","","2784",""," ","key"," ","16.662313253011455","500","250","pog","319","319","338","2","0","0"
"","psychophysics","174","1248278","0.0-174.0","64d95acd2edfa61eca0d3cfb","64dbc169d356e8b420712f9a","","","","","4137",""," ","key"," ","16.662858870967607","500","250","pog","345","357","363","2","0","0"
"","psychophysics","175","1252682","0.0-175.0","64d95acd2edfa61eca0d3cfb","64dbc169d356e8b420712f9a","","","","","4400",""," ","key"," ","16.66222813688201","500","250","pog","302","310","321","2","0","0"
"","psychophysics","176","1256893","0.0-176.0","64d95acd2edfa61eca0d3cfb","64dbc169d356e8b420712f9a","","","","","4192",""," ","key"," ","16.662507936508128","500","250","pog","313","299","331","2","0","0"
"","psychophysics","177","1261745","0.0-177.0","64d95acd2edfa61eca0d3cfb","64dbc169d356e8b420712f9a","","","","","4848",""," ","key"," ","16.66223793103488","500","250","pog","301","281","321","2","0","0"
"","psychophysics","178","1265441","0.0-178.0","64d95acd2edfa61eca0d3cfb","64dbc169d356e8b420712f9a","","","","","3690",""," ","key"," ","16.662787330316853","500","250","pog","360","356","371","2","0","0"
"","psychophysics","179","1270143","0.0-179.0","64d95acd2edfa61eca0d3cfb","64dbc169d356e8b420712f9a","","","","","4701",""," ","key"," ","16.66282918149509","500","250","pog","364","336","377","2","0","0"
"","psychophysics","180","1274015","0.0-180.0","64d95acd2edfa61eca0d3cfb","64dbc169d356e8b420712f9a","","","","","3871",""," ","key"," ","16.66284913793086","500","250","pog","375","393","377","2","0","0"
"","psychophysics","181","1275522","0.0-181.0","64d95acd2edfa61eca0d3cfb","64dbc169d356e8b420712f9a","","","","","1506",""," ","key"," ","16.66213483145994","500","250","inst","","","","","",""
"","psychophysics","182","1290489","0.0-182.0","64d95acd2edfa61eca0d3cfb","64dbc169d356e8b420712f9a","","","","","14964",""," ","key"," ","16.66234559643237","500","250","instBr3","-12","40","300","1","0","0"
"","psychophysics","183","1291429","0.0-183.0","64d95acd2edfa61eca0d3cfb","64dbc169d356e8b420712f9a","","","","","934",""," ","key"," ","16.66319642857083","500","250","inst","","","","","",""
"","psychophysics","184","1295903","0.0-184.0","64d95acd2edfa61eca0d3cfb","64dbc169d356e8b420712f9a","","","","","4469",""," ","key"," ","16.66225468164854","500","250","br","-15","17","231","1","-15","29"
"","psychophysics","185","1303907","0.0-185.0","64d95acd2edfa61eca0d3cfb","64dbc169d356e8b420712f9a","","","","","null","","null","key","null","16.662343750000097","500","250","br","-18","-29","226","1","-30","3"
"","psychophysics","186","1308267","0.0-186.0","64d95acd2edfa61eca0d3cfb","64dbc169d356e8b420712f9a","","","","","4354",""," ","key"," ","16.662296153845876","500","250","br","-21","-19","280","1","-30","-24"
"","psychophysics","187","1314321","0.0-187.0","64d95acd2edfa61eca0d3cfb","64dbc169d356e8b420712f9a","","","","","6051",""," ","key"," ","16.66258126721761","500","250","br","-13","-22","259","1","26","-23"
"","psychophysics","188","1318178","0.0-188.0","64d95acd2edfa61eca0d3cfb","64dbc169d356e8b420712f9a","","","","","3850",""," ","key"," ","16.662904347825553","500","250","br","-10","9","224","1","19","-16"
"","psychophysics","189","1320927","0.0-189.0","64d95acd2edfa61eca0d3cfb","64dbc169d356e8b420712f9a","","","","","2744",""," ","key"," ","16.66238414634036","500","250","br","-16","-13","295","1","-10","2"
"","psychophysics","190","1325389","0.0-190.0","64d95acd2edfa61eca0d3cfb","64dbc169d356e8b420712f9a","","","","","4457",""," ","key"," ","16.66222471910117","500","250","br","-7","6","229","1","-2","17"
"","psychophysics","191","1328614","0.0-191.0","64d95acd2edfa61eca0d3cfb","64dbc169d356e8b420712f9a","","","","","3219",""," ","key"," ","16.662083333333914","500","250","br","-19","-30","246","1","-1","21"
"","psychophysics","192","1332569","0.0-192.0","64d95acd2edfa61eca0d3cfb","64dbc169d356e8b420712f9a","","","","","3946",""," ","key"," ","16.66253586497869","500","250","br","-16","-4","282","1","20","13"
"","psychophysics","193","1338631","0.0-193.0","64d95acd2edfa61eca0d3cfb","64dbc169d356e8b420712f9a","","","","","6056",""," ","key"," ","16.66221763085402","500","250","br","-11","27","247","1","13","-9"
"","psychophysics","194","1342314","0.0-194.0","64d95acd2edfa61eca0d3cfb","64dbc169d356e8b420712f9a","","","","","3677",""," ","key"," ","16.662054545454556","500","250","br","-14","-22","286","1","16","-27"
"","psychophysics","195","1347331","0.0-195.0","64d95acd2edfa61eca0d3cfb","64dbc169d356e8b420712f9a","","","","","5012",""," ","key"," ","16.662423333333184","500","250","br","-16","20","288","1","-21","-26"
"","psychophysics","196","1350263","0.0-196.0","64d95acd2edfa61eca0d3cfb","64dbc169d356e8b420712f9a","","","","","2926",""," ","key"," ","16.662502857143327","500","250","br","-16","-18","274","1","-7","-27"
"","psychophysics","197","1355388","0.0-197.0","64d95acd2edfa61eca0d3cfb","64dbc169d356e8b420712f9a","","","","","5120",""," ","key"," ","16.662029411764724","500","250","br","-16","11","208","1","7","-3"
"","psychophysics","198","1359209","0.0-198.0","64d95acd2edfa61eca0d3cfb","64dbc169d356e8b420712f9a","","","","","3816",""," ","key"," ","16.662633187773","500","250","br","-16","15","273","1","-18","-23"
"","psychophysics","199","1360381","0.0-199.0","64d95acd2edfa61eca0d3cfb","64dbc169d356e8b420712f9a","","","","","1169",""," ","key"," ","16.66273913043551","500","250","inst","","","","","",""
"","psychophysics","200","1374295","0.0-200.0","64d95acd2edfa61eca0d3cfb","64dbc169d356e8b420712f9a","","","","","13909",""," ","key"," ","16.6622637889688","500","250","instEB4","52","40","40","1","0","0"
"","psychophysics","201","1380257","0.0-201.0","64d95acd2edfa61eca0d3cfb","64dbc169d356e8b420712f9a","","","","","5959",""," ","key"," ","16.66229691876735","500","250","inst","","","","","",""
"","psychophysics","202","1385121","0.0-202.0","64d95acd2edfa61eca0d3cfb","64dbc169d356e8b420712f9a","","","","","4859",""," ","key"," ","16.662329896907657","500","250","eb","54","34","48","1","0","0"
"","psychophysics","203","1388912","0.0-203.0","64d95acd2edfa61eca0d3cfb","64dbc169d356e8b420712f9a","","","","","3786",""," ","key"," ","16.66360619468965","500","250","eb","50","53","45","1","0","0"
"","psychophysics","204","1395402","0.0-204.0","64d95acd2edfa61eca0d3cfb","64dbc169d356e8b420712f9a","","","","","6489",""," ","key"," ","16.661722365038344","500","250","eb","62","36","54","1","0","0"
"","psychophysics","205","1401122","0.0-205.0","64d95acd2edfa61eca0d3cfb","64dbc169d356e8b420712f9a","","","","","5719",""," ","key"," ","16.661827485380034","500","250","eb","48","48","40","1","0","0"
"","psychophysics","206","1406178","0.0-206.0","64d95acd2edfa61eca0d3cfb","64dbc169d356e8b420712f9a","","","","","5053",""," ","key"," ","16.66229801324492","500","250","eb","57","49","52","1","0","0"
"","psychophysics","207","1410450","0.0-207.0","64d95acd2edfa61eca0d3cfb","64dbc169d356e8b420712f9a","","","","","4266",""," ","key"," ","16.662500000000364","500","250","eb","52","43","39","1","0","0"
"","psychophysics","208","1415808","0.0-208.0","64d95acd2edfa61eca0d3cfb","64dbc169d356e8b420712f9a","","","","","5353",""," ","key"," ","16.66230312500047","500","250","eb","32","42","27","1","0","0"
"","psychophysics","209","1419800","0.0-209.0","64d95acd2edfa61eca0d3cfb","64dbc169d356e8b420712f9a","","","","","3985",""," ","key"," ","16.662384937238727","500","250","eb","50","38","40","1","0","0"
"","psychophysics","210","1422879","0.0-210.0","64d95acd2edfa61eca0d3cfb","64dbc169d356e8b420712f9a","","","","","3073",""," ","key"," ","16.66253804347893","500","250","eb","47","33","32","1","0","0"
"","psychophysics","211","1428082","0.0-211.0","64d95acd2edfa61eca0d3cfb","64dbc169d356e8b420712f9a","","","","","5199",""," ","key"," ","16.661897106109624","500","250","eb","45","32","38","1","0","0"
"","psychophysics","212","1430160","0.0-212.0","64d95acd2edfa61eca0d3cfb","64dbc169d356e8b420712f9a","","","","","2077",""," ","key"," ","16.66134677419341","500","250","eb","47","51","38","1","0","0"
"","psychophysics","213","1434902","0.0-213.0","64d95acd2edfa61eca0d3cfb","64dbc169d356e8b420712f9a","","","","","4738",""," ","key"," ","16.662162544169586","500","250","eb","61","38","54","1","0","0"
"","psychophysics","214","1439268","0.0-214.0","64d95acd2edfa61eca0d3cfb","64dbc169d356e8b420712f9a","","","","","4361",""," ","key"," ","16.662800766283226","500","250","eb","32","28","26","1","0","0"
"","psychophysics","215","1443411","0.0-215.0","64d95acd2edfa61eca0d3cfb","64dbc169d356e8b420712f9a","","","","","4134",""," ","key"," ","16.66216129032264","500","250","eb","59","35","46","1","0","0"
"","psychophysics","216","1447271","0.0-216.0","64d95acd2edfa61eca0d3cfb","64dbc169d356e8b420712f9a","","","","","3857",""," ","key"," ","16.662593073593612","500","250","eb","49","29","36","1","0","0"
