"success","trial_type","trial_index","time_elapsed","internal_node_id","pid","sid","timeout","failed_images","failed_audio","failed_video","rt","stimulus","response","response_type","key_press","avg_frame_time","center_x","center_y","task","resp","jitterX","jitterY","start","version","parA"
"true","fullscreen","0","3199","0.0-0.0","60fdd69df07af0302d9ce2de","64dbc2fe0ce655347ddd5dff","","","","","","","","","","","","","","","","","","",""
"true","preload","1","3296","0.0-1.0","60fdd69df07af0302d9ce2de","64dbc2fe0ce655347ddd5dff","false","[]","[]","[]","","","","","","","","","","","","","","",""
"","html-button-response","2","7167","0.0-2.0","60fdd69df07af0302d9ce2de","64dbc2fe0ce655347ddd5dff","","","","","3870","Please Make Sure Your Audio Is On.","0","","","","","","","","","","","",""
"","psychophysics","3","15380","0.0-3.0","60fdd69df07af0302d9ce2de","64dbc2fe0ce655347ddd5dff","","","","","8210",""," ","key"," ","16.659791075050705","768","250","","","","","","",""
"","psychophysics","4","17457","0.0-4.0","60fdd69df07af0302d9ce2de","64dbc2fe0ce655347ddd5dff","","","","","2075",""," ","key"," ","16.661774193548396","500","250","inst","","","","","",""
"","psychophysics","5","21271","0.0-5.0","60fdd69df07af0302d9ce2de","64dbc2fe0ce655347ddd5dff","","","","","3812",""," ","key"," ","16.65996929824562","500","250","sample0","","","","","",""
"","psychophysics","6","22970","0.0-6.0","60fdd69df07af0302d9ce2de","64dbc2fe0ce655347ddd5dff","","","","","1698",""," ","key"," ","16.661247524752476","500","250","sample1","","","","","",""
"","psychophysics","7","32829","0.0-7.0","60fdd69df07af0302d9ce2de","64dbc2fe0ce655347ddd5dff","","","","","9856",""," ","key"," ","16.661369491525427","500","250","sample2","114","","","","",""
"","psychophysics","8","36057","0.0-8.0","60fdd69df07af0302d9ce2de","64dbc2fe0ce655347ddd5dff","","","","","3227",""," ","key"," ","16.6617823834197","500","250","sample3","82","","","","",""
"","psychophysics","9","46980","0.0-9.0","60fdd69df07af0302d9ce2de","64dbc2fe0ce655347ddd5dff","","","","","10919",""," ","key"," ","16.661183206106866","500","250","sample4","102","","","","",""
"","psychophysics","10","52619","0.0-10.0","60fdd69df07af0302d9ce2de","64dbc2fe0ce655347ddd5dff","","","","","5636",""," ","key"," ","16.660270029673587","500","250","sample5","","","","","",""
"","psychophysics","11","59330","0.0-11.0","60fdd69df07af0302d9ce2de","64dbc2fe0ce655347ddd5dff","","","","","6710",""," ","key"," ","16.66160945273633","500","250","sample6","504","","","","",""
"","psychophysics","12","61110","0.0-12.0","60fdd69df07af0302d9ce2de","64dbc2fe0ce655347ddd5dff","","","","","1779",""," ","key"," ","16.659028301886757","500","250","inst","","","","","",""
"","psychophysics","13","65743","0.0-13.0","60fdd69df07af0302d9ce2de","64dbc2fe0ce655347ddd5dff","","","","","4632",""," ","key"," ","16.66103610108302","500","250","inst","","","","","",""
"","psychophysics","14","67191","0.0-14.0","60fdd69df07af0302d9ce2de","64dbc2fe0ce655347ddd5dff","","","","","1447",""," ","key"," ","16.66372093023258","500","250","inst","","","","","",""
"","psychophysics","15","68031","0.0-15.0","60fdd69df07af0302d9ce2de","64dbc2fe0ce655347ddd5dff","","","","","839",""," ","key"," ","16.664428571428587","500","250","inst","","","","","",""
"","psychophysics","16","69693","0.0-16.0","60fdd69df07af0302d9ce2de","64dbc2fe0ce655347ddd5dff","","","","","1661",""," ","key"," ","16.66370707070702","500","250","inst","","","","","",""
"","psychophysics","17","72723","0.0-17.0","60fdd69df07af0302d9ce2de","64dbc2fe0ce655347ddd5dff","","","","","3028",""," ","key"," ","16.661928176795627","500","250","instZol0","0","0","0","0","",""
"","psychophysics","18","88153","0.0-18.0","60fdd69df07af0302d9ce2de","64dbc2fe0ce655347ddd5dff","","","","","15427",""," ","key"," ","16.661020540540527","500","250","instZol1","-0.09999999999999998","0","0","-1.3","",""
"","psychophysics","19","105020","0.0-19.0","60fdd69df07af0302d9ce2de","64dbc2fe0ce655347ddd5dff","","","","","16866",""," ","key"," ","16.661032640949557","500","250","instZol2","-0.6999999999999993","0","0","2","2",""
"","psychophysics","20","107118","0.0-20.0","60fdd69df07af0302d9ce2de","64dbc2fe0ce655347ddd5dff","","","","","2097",""," ","key"," ","16.661951999999932","500","250","inst","","","","","",""
"","psychophysics","21","115123","0.0-21.0","60fdd69df07af0302d9ce2de","64dbc2fe0ce655347ddd5dff","","","","","null","","null","key","null","16.66155208333333","500","250","zol","0.9699999999999999","19","28","-0.37","2",""
"","psychophysics","22","122459","0.0-22.0","60fdd69df07af0302d9ce2de","64dbc2fe0ce655347ddd5dff","","","","","7334",""," ","key"," ","16.661070615034184","500","250","zol","-0.57","-5","-22","0.37","2",""
"","psychophysics","23","130461","0.0-23.0","60fdd69df07af0302d9ce2de","64dbc2fe0ce655347ddd5dff","","","","","null","","null","key","null","16.66150939457202","500","250","zol","-0.24999999999999992","-12","-21","-0.45","2",""
"","psychophysics","24","135841","0.0-24.0","60fdd69df07af0302d9ce2de","64dbc2fe0ce655347ddd5dff","","","","","5379",""," ","key"," ","16.661419254658338","500","250","zol","-0.12","19","6","-0.58","2",""
"","psychophysics","25","143061","0.0-25.0","60fdd69df07af0302d9ce2de","64dbc2fe0ce655347ddd5dff","","","","","7218",""," ","key"," ","16.661694444444407","500","250","zol","-0.56","2","9","-0.24","2",""
"","psychophysics","26","146508","0.0-26.0","60fdd69df07af0302d9ce2de","64dbc2fe0ce655347ddd5dff","","","","","3441",""," ","key"," ","16.662271844660122","500","250","zol","-0.58","-18","29","-0.02","2",""
"","psychophysics","27","150283","0.0-27.0","60fdd69df07af0302d9ce2de","64dbc2fe0ce655347ddd5dff","","","","","3770",""," ","key"," ","16.66215044247778","500","250","zol","-0.9799999999999999","-10","2","0.18","2",""
"","psychophysics","28","158017","0.0-28.0","60fdd69df07af0302d9ce2de","64dbc2fe0ce655347ddd5dff","","","","","7732",""," ","key"," ","16.662006479481686","500","250","zol","-0.7899999999999999","27","19","-0.21","2",""
"","psychophysics","29","161721","0.0-29.0","60fdd69df07af0302d9ce2de","64dbc2fe0ce655347ddd5dff","","","","","3702",""," ","key"," ","16.6625113122171","500","250","zol","-0.6499999999999999","-26","13","0.25","2",""
"","psychophysics","30","167500","0.0-30.0","60fdd69df07af0302d9ce2de","64dbc2fe0ce655347ddd5dff","","","","","5775",""," ","key"," ","16.661439306358403","500","250","zol","-0.6","18","1","-0.2","2",""
"","psychophysics","31","172056","0.0-31.0","60fdd69df07af0302d9ce2de","64dbc2fe0ce655347ddd5dff","","","","","4555",""," ","key"," ","16.662728937729003","500","250","zol","-0.8799999999999999","-12","-2","0.48","2",""
"","psychophysics","32","178786","0.0-32.0","60fdd69df07af0302d9ce2de","64dbc2fe0ce655347ddd5dff","","","","","6724",""," ","key"," ","16.661032258064463","500","250","zol","-0.9199999999999999","-30","-11","0.22","2",""
"","psychophysics","33","183210","0.0-33.0","60fdd69df07af0302d9ce2de","64dbc2fe0ce655347ddd5dff","","","","","4420",""," ","key"," ","16.661170454545452","500","250","zol","-1.0799999999999998","6","18","0.28","2",""
"","psychophysics","34","187634","0.0-34.0","60fdd69df07af0302d9ce2de","64dbc2fe0ce655347ddd5dff","","","","","4421",""," ","key"," ","16.66211320754725","500","250","zol","-0.9199999999999999","-26","22","0.22","2",""
"","psychophysics","35","193034","0.0-35.0","60fdd69df07af0302d9ce2de","64dbc2fe0ce655347ddd5dff","","","","","5398",""," ","key"," ","16.660678018575865","500","250","zol","-1.2700000000000002","8","7","0.67","2",""
"","psychophysics","36","195239","0.0-36.0","60fdd69df07af0302d9ce2de","64dbc2fe0ce655347ddd5dff","","","","","2204",""," ","key"," ","16.662022900763404","500","250","inst","","","","","",""
"","psychophysics","37","200932","0.0-37.0","60fdd69df07af0302d9ce2de","64dbc2fe0ce655347ddd5dff","","","","","5691",""," ","key"," ","16.661187683284446","500","250","instPzPre","50","","","50","0","50"
"","psychophysics","38","202691","0.0-38.0","60fdd69df07af0302d9ce2de","64dbc2fe0ce655347ddd5dff","","","","","1757",""," ","key"," ","16.66169230769251","500","250","instPz0","50","","","50","2","50"
"","psychophysics","39","220846","0.0-39.0","60fdd69df07af0302d9ce2de","64dbc2fe0ce655347ddd5dff","","","","","18152",""," ","key"," ","16.661166207529853","500","250","instPz1","44","","","25","2","50"
"","psychophysics","40","221007","0.0-40.0","60fdd69df07af0302d9ce2de","64dbc2fe0ce655347ddd5dff","","","","","159",""," ","key"," ","16.681000000001706","500","250","instPz2","20","","","20","2","35"
"","psychophysics","41","242595","0.0-41.0","60fdd69df07af0302d9ce2de","64dbc2fe0ce655347ddd5dff","","","","","21587",""," ","key"," ","16.66120772200774","500","250","instPz3","68","","","30","2","100"
"","psychophysics","42","254185","0.0-42.0","60fdd69df07af0302d9ce2de","64dbc2fe0ce655347ddd5dff","","","","","11588",""," ","key"," ","16.66120605187321","500","250","instPz4","68","","","30","2","100"
"","psychophysics","43","255507","0.0-43.0","60fdd69df07af0302d9ce2de","64dbc2fe0ce655347ddd5dff","","","","","1320",""," ","key"," ","16.66255696202537","500","250","inst","","","","","",""
"","psychophysics","44","262270","0.0-44.0","60fdd69df07af0302d9ce2de","64dbc2fe0ce655347ddd5dff","","","","","6760",""," ","key"," ","16.661349009900984","500","250","pz","32","","","48","2","52"
"","psychophysics","45","268988","0.0-45.0","60fdd69df07af0302d9ce2de","64dbc2fe0ce655347ddd5dff","","","","","6714",""," ","key"," ","16.66214143920594","500","250","pz","34","","","55","2","50"
"","psychophysics","46","273774","0.0-46.0","60fdd69df07af0302d9ce2de","64dbc2fe0ce655347ddd5dff","","","","","4783",""," ","key"," ","16.66087762237762","500","250","pz","26","","","42","2","42"
"","psychophysics","47","277728","0.0-47.0","60fdd69df07af0302d9ce2de","64dbc2fe0ce655347ddd5dff","","","","","3952",""," ","key"," ","16.6617076271184","500","250","pz","16","","","34","2","24"
"","psychophysics","48","282443","0.0-48.0","60fdd69df07af0302d9ce2de","64dbc2fe0ce655347ddd5dff","","","","","4712",""," ","key"," ","16.661893617021207","500","250","pz","30","","","43","2","47"
"","psychophysics","49","286849","0.0-49.0","60fdd69df07af0302d9ce2de","64dbc2fe0ce655347ddd5dff","","","","","4403",""," ","key"," ","16.661738636363722","500","250","pz","32","","","26","2","59"
"","psychophysics","50","290528","0.0-50.0","60fdd69df07af0302d9ce2de","64dbc2fe0ce655347ddd5dff","","","","","3677",""," ","key"," ","16.66149315068479","500","250","pz","18","","","22","2","25"
"","psychophysics","51","293256","0.0-51.0","60fdd69df07af0302d9ce2de","64dbc2fe0ce655347ddd5dff","","","","","2721",""," ","key"," ","16.663018404907888","500","250","pz","26","","","25","2","49"
"","psychophysics","52","297321","0.0-52.0","60fdd69df07af0302d9ce2de","64dbc2fe0ce655347ddd5dff","","","","","4064",""," ","key"," ","16.662670781893162","500","250","pz","22","","","36","2","28"
"","psychophysics","53","301207","0.0-53.0","60fdd69df07af0302d9ce2de","64dbc2fe0ce655347ddd5dff","","","","","3884",""," ","key"," ","16.663168103448196","500","250","pz","20","","","35","2","22"
"","psychophysics","54","304202","0.0-54.0","60fdd69df07af0302d9ce2de","64dbc2fe0ce655347ddd5dff","","","","","2992",""," ","key"," ","16.663681564245806","500","250","pz","26","","","29","2","39"
"","psychophysics","55","306536","0.0-55.0","60fdd69df07af0302d9ce2de","64dbc2fe0ce655347ddd5dff","","","","","2331",""," ","key"," ","16.663122302158268","500","250","pz","24","","","20","2","55"
"","psychophysics","56","308849","0.0-56.0","60fdd69df07af0302d9ce2de","64dbc2fe0ce655347ddd5dff","","","","","2311",""," ","key"," ","16.664326086956702","500","250","pz","38","","","46","2","57"
"","psychophysics","57","313210","0.0-57.0","60fdd69df07af0302d9ce2de","64dbc2fe0ce655347ddd5dff","","","","","4360",""," ","key"," ","16.66101149425278","500","250","pz","31","","","23","2","53"
"","psychophysics","58","316378","0.0-58.0","60fdd69df07af0302d9ce2de","64dbc2fe0ce655347ddd5dff","","","","","3165",""," ","key"," ","16.661994708994545","500","250","pz","31","","","29","2","44"
"","psychophysics","59","317867","0.0-59.0","60fdd69df07af0302d9ce2de","64dbc2fe0ce655347ddd5dff","","","","","1488",""," ","key"," ","16.66298863636356","500","250","inst","","","","","",""
"","psychophysics","60","319518","0.0-60.0","60fdd69df07af0302d9ce2de","64dbc2fe0ce655347ddd5dff","","","","","1647",""," ","key"," ","16.66309183673477","500","250","instEB0","40","0","0","40","","40"
"","psychophysics","61","330819","0.0-61.0","60fdd69df07af0302d9ce2de","64dbc2fe0ce655347ddd5dff","","","","","11298",""," ","key"," ","16.661200589970495","500","250","instEB1","73","0","0","30","2","70"
"","psychophysics","62","338476","0.0-62.0","60fdd69df07af0302d9ce2de","64dbc2fe0ce655347ddd5dff","","","","","7655",""," ","key"," ","16.661270742358127","500","250","instEB2","43","0","0","60","2","40"
"","psychophysics","63","345645","0.0-63.0","60fdd69df07af0302d9ce2de","64dbc2fe0ce655347ddd5dff","","","","","7163",""," ","key"," ","16.662076744185978","500","250","instEB3","74","0","0","45","2","65"
"","psychophysics","64","351936","0.0-64.0","60fdd69df07af0302d9ce2de","64dbc2fe0ce655347ddd5dff","","","","","6287",""," ","key"," ","16.661090425531935","500","250","instEB4","56","0","0","40","2","40"
"","psychophysics","65","353034","0.0-65.0","60fdd69df07af0302d9ce2de","64dbc2fe0ce655347ddd5dff","","","","","1096",""," ","key"," ","16.66621538461544","500","250","inst","","","","","",""
"","psychophysics","66","356429","0.0-66.0","60fdd69df07af0302d9ce2de","64dbc2fe0ce655347ddd5dff","","","","","3392",""," ","key"," ","16.662433497536885","500","250","eb","39","0","0","29","2","26"
"","psychophysics","67","359525","0.0-67.0","60fdd69df07af0302d9ce2de","64dbc2fe0ce655347ddd5dff","","","","","3095",""," ","key"," ","16.65913513513515","500","250","eb","33","0","0","27","2","28"
"","psychophysics","68","363840","0.0-68.0","60fdd69df07af0302d9ce2de","64dbc2fe0ce655347ddd5dff","","","","","4312",""," ","key"," ","16.662612403100653","500","250","eb","57","0","0","42","2","53"
"","psychophysics","69","366016","0.0-69.0","60fdd69df07af0302d9ce2de","64dbc2fe0ce655347ddd5dff","","","","","2173",""," ","key"," ","16.662457364341044","500","250","eb","37","0","0","37","2","25"
"","psychophysics","70","368295","0.0-70.0","60fdd69df07af0302d9ce2de","64dbc2fe0ce655347ddd5dff","","","","","2276",""," ","key"," ","16.663889705882706","500","250","eb","32","0","0","35","2","24"
"","psychophysics","71","371591","0.0-71.0","60fdd69df07af0302d9ce2de","64dbc2fe0ce655347ddd5dff","","","","","3295",""," ","key"," ","16.66260913705576","500","250","eb","50","0","0","46","2","40"
"","psychophysics","72","378044","0.0-72.0","60fdd69df07af0302d9ce2de","64dbc2fe0ce655347ddd5dff","","","","","6452",""," ","key"," ","16.661694300518107","500","250","eb","46","0","0","25","2","46"
"","psychophysics","73","381168","0.0-73.0","60fdd69df07af0302d9ce2de","64dbc2fe0ce655347ddd5dff","","","","","3122",""," ","key"," ","16.66241176470611","500","250","eb","38","0","0","54","2","34"
"","psychophysics","74","384266","0.0-74.0","60fdd69df07af0302d9ce2de","64dbc2fe0ce655347ddd5dff","","","","","3097",""," ","key"," ","16.660589189189047","500","250","eb","57","0","0","48","2","49"
"","psychophysics","75","389786","0.0-75.0","60fdd69df07af0302d9ce2de","64dbc2fe0ce655347ddd5dff","","","","","5517",""," ","key"," ","16.660472727272566","500","250","eb","37","0","0","28","2","33"
"","psychophysics","76","393400","0.0-76.0","60fdd69df07af0302d9ce2de","64dbc2fe0ce655347ddd5dff","","","","","3613",""," ","key"," ","16.66259259259257","500","250","eb","33","0","0","46","2","28"
"","psychophysics","77","395268","0.0-77.0","60fdd69df07af0302d9ce2de","64dbc2fe0ce655347ddd5dff","","","","","1867",""," ","key"," ","16.661972972973427","500","250","eb","38","0","0","41","2","30"
"","psychophysics","78","397494","0.0-78.0","60fdd69df07af0302d9ce2de","64dbc2fe0ce655347ddd5dff","","","","","2224",""," ","key"," ","16.659165413533792","500","250","eb","37","0","0","43","2","27"
"","psychophysics","79","401651","0.0-79.0","60fdd69df07af0302d9ce2de","64dbc2fe0ce655347ddd5dff","","","","","4155",""," ","key"," ","16.661806451613007","500","250","eb","45","0","0","29","2","44"
"","psychophysics","80","403603","0.0-80.0","60fdd69df07af0302d9ce2de","64dbc2fe0ce655347ddd5dff","","","","","1950",""," ","key"," ","16.661612068965795","500","250","eb","38","0","0","43","2","32"
"","psychophysics","81","404530","0.0-81.0","60fdd69df07af0302d9ce2de","64dbc2fe0ce655347ddd5dff","","","","","926",""," ","key"," ","16.66236363636351","500","250","inst","","","","","",""
"","psychophysics","82","405814","0.0-82.0","60fdd69df07af0302d9ce2de","64dbc2fe0ce655347ddd5dff","","","","","1282",""," ","key"," ","16.66280263157846","500","250","instBr0","0","0","0","0","","300"
"","psychophysics","83","412035","0.0-83.0","60fdd69df07af0302d9ce2de","64dbc2fe0ce655347ddd5dff","","","","","6219",""," ","key"," ","16.661311827956915","500","250","instBr1","4","0","0","-40","","300"
"","psychophysics","84","416973","0.0-84.0","60fdd69df07af0302d9ce2de","64dbc2fe0ce655347ddd5dff","","","","","4934",""," ","key"," ","16.66142905405404","500","250","instBr3","-21","0","0","40","1","300"
"","psychophysics","85","417622","0.0-85.0","60fdd69df07af0302d9ce2de","64dbc2fe0ce655347ddd5dff","","","","","648",""," ","key"," ","16.659710526316257","500","250","inst","","","","","",""
"","psychophysics","86","420797","0.0-86.0","60fdd69df07af0302d9ce2de","64dbc2fe0ce655347ddd5dff","","","","","3172",""," ","key"," ","16.659005291005425","500","250","br","-20","-5","-14","12","1","239"
"","psychophysics","87","424497","0.0-87.0","60fdd69df07af0302d9ce2de","64dbc2fe0ce655347ddd5dff","","","","","3698",""," ","key"," ","16.660751131221513","500","250","br","-18","5","28","13","1","269"
"","psychophysics","88","429101","0.0-88.0","60fdd69df07af0302d9ce2de","64dbc2fe0ce655347ddd5dff","","","","","4601",""," ","key"," ","16.66147463768109","500","250","br","-19","5","22","7","1","299"
"","psychophysics","89","431949","0.0-89.0","60fdd69df07af0302d9ce2de","64dbc2fe0ce655347ddd5dff","","","","","2846",""," ","key"," ","16.660511764705948","500","250","br","-20","1","21","15","1","266"
"","psychophysics","90","434511","0.0-90.0","60fdd69df07af0302d9ce2de","64dbc2fe0ce655347ddd5dff","","","","","2559",""," ","key"," ","16.659697368420893","500","250","br","-16","-2","-17","13","1","256"
"","psychophysics","91","436801","0.0-91.0","60fdd69df07af0302d9ce2de","64dbc2fe0ce655347ddd5dff","","","","","2290",""," ","key"," ","16.66371532846718","500","250","br","-20","-22","11","11","1","286"
"","psychophysics","92","440837","0.0-92.0","60fdd69df07af0302d9ce2de","64dbc2fe0ce655347ddd5dff","","","","","4035",""," ","key"," ","16.661539419087305","500","250","br","-21","-2","-29","-19","1","206"
"","psychophysics","93","442287","0.0-93.0","60fdd69df07af0302d9ce2de","64dbc2fe0ce655347ddd5dff","","","","","1448",""," ","key"," ","16.664186046511574","500","250","br","-16","-13","16","-16","1","202"
"","psychophysics","94","445273","0.0-94.0","60fdd69df07af0302d9ce2de","64dbc2fe0ce655347ddd5dff","","","","","2985",""," ","key"," ","16.66248314606753","500","250","br","-9","-24","-10","30","1","230"
"","psychophysics","95","446806","0.0-95.0","60fdd69df07af0302d9ce2de","64dbc2fe0ce655347ddd5dff","","","","","1532",""," ","key"," ","16.663527472527406","500","250","br","-13","-13","4","-13","1","205"
"","psychophysics","96","450090","0.0-96.0","60fdd69df07af0302d9ce2de","64dbc2fe0ce655347ddd5dff","","","","","3282",""," ","key"," ","16.662984693877586","500","250","br","-14","-20","-6","-23","1","225"
"","psychophysics","97","452878","0.0-97.0","60fdd69df07af0302d9ce2de","64dbc2fe0ce655347ddd5dff","","","","","2787",""," ","key"," ","16.66370059880233","500","250","br","-14","25","-4","1","1","296"
"","psychophysics","98","456238","0.0-98.0","60fdd69df07af0302d9ce2de","64dbc2fe0ce655347ddd5dff","","","","","3357",""," ","key"," ","16.661165000000036","500","250","br","-12","-10","-1","-15","1","244"
"","psychophysics","99","458795","0.0-99.0","60fdd69df07af0302d9ce2de","64dbc2fe0ce655347ddd5dff","","","","","2556",""," ","key"," ","16.660594771241804","500","250","br","-13","-18","13","-4","1","215"
"","psychophysics","100","463470","0.0-100.0","60fdd69df07af0302d9ce2de","64dbc2fe0ce655347ddd5dff","","","","","4674",""," ","key"," ","16.66072043010758","500","250","br","-13","28","18","9","1","232"
"","psychophysics","101","464259","0.0-101.0","60fdd69df07af0302d9ce2de","64dbc2fe0ce655347ddd5dff","","","","","788",""," ","key"," ","16.66421276595731","500","250","inst","","","","","",""
"","psychophysics","102","467650","0.0-102.0","60fdd69df07af0302d9ce2de","64dbc2fe0ce655347ddd5dff","","","","","3390",""," ","key"," ","16.66188118811887","500","250","instPog0","190","0","0","190","1","160"
"","psychophysics","103","475935","0.0-103.0","60fdd69df07af0302d9ce2de","64dbc2fe0ce655347ddd5dff","","","","","8284",""," ","key"," ","16.660599597585453","500","250","instPog1","176","0","0","190","1","160"
"","psychophysics","104","481400","0.0-104.0","60fdd69df07af0302d9ce2de","64dbc2fe0ce655347ddd5dff","","","","","5463",""," ","key"," ","16.661501529052124","500","250","instPog2","190","0","0","160","1","160"
"","psychophysics","105","481951","0.0-105.0","60fdd69df07af0302d9ce2de","64dbc2fe0ce655347ddd5dff","","","","","549",""," ","key"," ","16.66240624999955","500","250","inst","","","","","",""
"","psychophysics","106","487077","0.0-106.0","60fdd69df07af0302d9ce2de","64dbc2fe0ce655347ddd5dff","","","","","5125",""," ","key"," ","16.661120915032537","500","250","pog","230","0","0","102","1","193"
"","psychophysics","107","490201","0.0-107.0","60fdd69df07af0302d9ce2de","64dbc2fe0ce655347ddd5dff","","","","","3123",""," ","key"," ","16.66176470588235","500","250","pog","221","0","0","143","1","191"
"","psychophysics","108","492536","0.0-108.0","60fdd69df07af0302d9ce2de","64dbc2fe0ce655347ddd5dff","","","","","2334",""," ","key"," ","16.662589928057386","500","250","pog","190","0","0","190","1","171"
"","psychophysics","109","498909","0.0-109.0","60fdd69df07af0302d9ce2de","64dbc2fe0ce655347ddd5dff","","","","","6371",""," ","key"," ","16.661269633507803","500","250","pog","166","0","0","130","1","147"
"","psychophysics","110","503428","0.0-110.0","60fdd69df07af0302d9ce2de","64dbc2fe0ce655347ddd5dff","","","","","4516",""," ","key"," ","16.66017407407398","500","250","pog","216","0","0","178","1","191"
"","psychophysics","111","504717","0.0-111.0","60fdd69df07af0302d9ce2de","64dbc2fe0ce655347ddd5dff","","","","","1288",""," ","key"," ","16.662223684210115","500","250","pog","167","0","0","167","1","157"
"","psychophysics","112","510960","0.0-112.0","60fdd69df07af0302d9ce2de","64dbc2fe0ce655347ddd5dff","","","","","6242",""," ","key"," ","16.66143850267371","500","250","pog","193","0","0","111","1","171"
"","psychophysics","113","513538","0.0-113.0","60fdd69df07af0302d9ce2de","64dbc2fe0ce655347ddd5dff","","","","","2577",""," ","key"," ","16.66001948051974","500","250","pog","205","0","0","155","1","185"
"","psychophysics","114","516090","0.0-114.0","60fdd69df07af0302d9ce2de","64dbc2fe0ce655347ddd5dff","","","","","2550",""," ","key"," ","16.658736842105053","500","250","pog","147","0","0","111","1","128"
"","psychophysics","115","519487","0.0-115.0","60fdd69df07af0302d9ce2de","64dbc2fe0ce655347ddd5dff","","","","","3395",""," ","key"," ","16.661975369458386","500","250","pog","153","0","0","191","1","120"
"","psychophysics","116","522820","0.0-116.0","60fdd69df07af0302d9ce2de","64dbc2fe0ce655347ddd5dff","","","","","3331",""," ","key"," ","16.662718592964794","500","250","pog","186","0","0","208","1","148"
"","psychophysics","117","526004","0.0-117.0","60fdd69df07af0302d9ce2de","64dbc2fe0ce655347ddd5dff","","","","","3182",""," ","key"," ","16.659142105262973","500","250","pog","193","0","0","213","1","159"
"","psychophysics","118","529476","0.0-118.0","60fdd69df07af0302d9ce2de","64dbc2fe0ce655347ddd5dff","","","","","3472",""," ","key"," ","16.660082125603807","500","250","pog","189","0","0","135","1","170"
"","psychophysics","119","535158","0.0-119.0","60fdd69df07af0302d9ce2de","64dbc2fe0ce655347ddd5dff","","","","","5681",""," ","key"," ","16.662352941176334","500","250","pog","175","0","0","111","1","150"
"","psychophysics","120","540146","0.0-120.0","60fdd69df07af0302d9ce2de","64dbc2fe0ce655347ddd5dff","","","","","4987",""," ","key"," ","16.661321070234067","500","250","pog","184","0","0","128","1","170"
"","psychophysics","121","540798","0.0-121.0","60fdd69df07af0302d9ce2de","64dbc2fe0ce655347ddd5dff","","","","","650",""," ","key"," ","16.66457894737036","500","250","inst","","","","","",""
"","psychophysics","122","582609","0.0-122.0","60fdd69df07af0302d9ce2de","64dbc2fe0ce655347ddd5dff","","","","","41810",""," ","key"," ","16.661125598086127","500","250","instZol1","-0.1000000000000002","0","0","-1.3","",""
"","psychophysics","123","587996","0.0-123.0","60fdd69df07af0302d9ce2de","64dbc2fe0ce655347ddd5dff","","","","","5385",""," ","key"," ","16.66106811145518","500","250","instZol2","-0.2999999999999994","0","0","2","1",""
"","psychophysics","124","588580","0.0-124.0","60fdd69df07af0302d9ce2de","64dbc2fe0ce655347ddd5dff","","","","","582",""," ","key"," ","16.662705882353134","500","250","inst","","","","","",""
"","psychophysics","125","590031","0.0-125.0","60fdd69df07af0302d9ce2de","64dbc2fe0ce655347ddd5dff","","","","","1447",""," ","key"," ","16.65890697674382","500","250","zol","1.2700000000000002","10","21","-0.67","1",""
"","psychophysics","126","591783","0.0-126.0","60fdd69df07af0302d9ce2de","64dbc2fe0ce655347ddd5dff","","","","","1751",""," ","key"," ","16.661153846152818","500","250","zol","1.29","-17","-22","0.21","1",""
"","psychophysics","127","593716","0.0-127.0","60fdd69df07af0302d9ce2de","64dbc2fe0ce655347ddd5dff","","","","","1932",""," ","key"," ","16.66013913043451","500","250","zol","1.7300000000000006","-18","21","0.07","1",""
"","psychophysics","128","595262","0.0-128.0","60fdd69df07af0302d9ce2de","64dbc2fe0ce655347ddd5dff","","","","","1544",""," ","key"," ","16.661978260869585","500","250","zol","1.6800000000000006","19","-27","-0.68","1",""
"","psychophysics","129","596848","0.0-129.0","60fdd69df07af0302d9ce2de","64dbc2fe0ce655347ddd5dff","","","","","1585",""," ","key"," ","16.661478723404294","500","250","zol","0.9799999999999999","16","-27","-0.58","1",""
"","psychophysics","130","598639","0.0-130.0","60fdd69df07af0302d9ce2de","64dbc2fe0ce655347ddd5dff","","","","","1790",""," ","key"," ","16.663443396225976","500","250","zol","0.8699999999999999","-24","25","0.23","1",""
"","psychophysics","131","600301","0.0-131.0","60fdd69df07af0302d9ce2de","64dbc2fe0ce655347ddd5dff","","","","","1659",""," ","key"," ","16.663515151514805","500","250","zol","1.4100000000000004","-20","29","-0.41","1",""
"","psychophysics","132","601969","0.0-132.0","60fdd69df07af0302d9ce2de","64dbc2fe0ce655347ddd5dff","","","","","1664",""," ","key"," ","16.662949494949327","500","250","zol","1.7200000000000006","-3","6","-0.72","1",""
"","psychophysics","133","603433","0.0-133.0","60fdd69df07af0302d9ce2de","64dbc2fe0ce655347ddd5dff","","","","","1463",""," ","key"," ","16.66590804597711","500","250","zol","1.29","24","21","-0.29","1",""
"","psychophysics","134","604871","0.0-134.0","60fdd69df07af0302d9ce2de","64dbc2fe0ce655347ddd5dff","","","","","1437",""," ","key"," ","16.65807058823514","500","250","zol","0.62","22","19","0.38","1",""
"","psychophysics","135","606696","0.0-135.0","60fdd69df07af0302d9ce2de","64dbc2fe0ce655347ddd5dff","","","","","1821",""," ","key"," ","16.660055045871527","500","250","zol","0.73","-16","1","0.57","1",""
"","psychophysics","136","608356","0.0-136.0","60fdd69df07af0302d9ce2de","64dbc2fe0ce655347ddd5dff","","","","","1659",""," ","key"," ","16.661737373737253","500","250","zol","0.7499999999999999","3","-17","0.55","1",""
"","psychophysics","137","609855","0.0-137.0","60fdd69df07af0302d9ce2de","64dbc2fe0ce655347ddd5dff","","","","","1496",""," ","key"," ","16.657651685394107","500","250","zol","0.44999999999999996","29","13","0.65","1",""
"","psychophysics","138","612364","0.0-138.0","60fdd69df07af0302d9ce2de","64dbc2fe0ce655347ddd5dff","","","","","2506",""," ","key"," ","16.660194630872134","500","250","zol","0.8099999999999999","-1","-23","0.39","1",""
"","psychophysics","139","614169","0.0-139.0","60fdd69df07af0302d9ce2de","64dbc2fe0ce655347ddd5dff","","","","","1803",""," ","key"," ","16.663607476634912","500","250","zol","1.3900000000000001","-9","-21","0.01","1",""
"","psychophysics","140","614892","0.0-140.0","60fdd69df07af0302d9ce2de","64dbc2fe0ce655347ddd5dff","","","","","720",""," ","key"," ","16.659441860465787","500","250","inst","","","","","",""
"","psychophysics","141","620163","0.0-141.0","60fdd69df07af0302d9ce2de","64dbc2fe0ce655347ddd5dff","","","","","5269",""," ","key"," ","16.661244444444495","500","250","instEB4","53","0","0","40","1","40"
"","psychophysics","142","620739","0.0-142.0","60fdd69df07af0302d9ce2de","64dbc2fe0ce655347ddd5dff","","","","","576",""," ","key"," ","16.6624411764719","500","250","inst","","","","","",""
"","psychophysics","143","623385","0.0-143.0","60fdd69df07af0302d9ce2de","64dbc2fe0ce655347ddd5dff","","","","","2643",""," ","key"," ","16.66161392405084","500","250","eb","44","0","0","53","1","31"
"","psychophysics","144","625578","0.0-144.0","60fdd69df07af0302d9ce2de","64dbc2fe0ce655347ddd5dff","","","","","2191",""," ","key"," ","16.660784615384628","500","250","eb","34","0","0","48","1","24"
"","psychophysics","145","627801","0.0-145.0","60fdd69df07af0302d9ce2de","64dbc2fe0ce655347ddd5dff","","","","","2223",""," ","key"," ","16.66415789473672","500","250","eb","50","0","0","44","1","39"
"","psychophysics","146","629847","0.0-146.0","60fdd69df07af0302d9ce2de","64dbc2fe0ce655347ddd5dff","","","","","2045",""," ","key"," ","16.66334710743813","500","250","eb","43","0","0","25","1","41"
"","psychophysics","147","631602","0.0-147.0","60fdd69df07af0302d9ce2de","64dbc2fe0ce655347ddd5dff","","","","","1751",""," ","key"," ","16.663380952381218","500","250","eb","44","0","0","36","1","38"
"","psychophysics","148","633395","0.0-148.0","60fdd69df07af0302d9ce2de","64dbc2fe0ce655347ddd5dff","","","","","1792",""," ","key"," ","16.658613207546846","500","250","eb","43","0","0","31","1","33"
"","psychophysics","149","635260","0.0-149.0","60fdd69df07af0302d9ce2de","64dbc2fe0ce655347ddd5dff","","","","","1863",""," ","key"," ","16.663225225224327","500","250","eb","65","0","0","54","1","51"
"","psychophysics","150","637087","0.0-150.0","60fdd69df07af0302d9ce2de","64dbc2fe0ce655347ddd5dff","","","","","1827",""," ","key"," ","16.663073394495626","500","250","eb","35","0","0","43","1","26"
"","psychophysics","151","639720","0.0-151.0","60fdd69df07af0302d9ce2de","64dbc2fe0ce655347ddd5dff","","","","","2632",""," ","key"," ","16.66295541401294","500","250","eb","42","0","0","49","1","32"
"","psychophysics","152","642033","0.0-152.0","60fdd69df07af0302d9ce2de","64dbc2fe0ce655347ddd5dff","","","","","2312",""," ","key"," ","16.66055797101454","500","250","eb","38","0","0","26","1","32"
"","psychophysics","153","644170","0.0-153.0","60fdd69df07af0302d9ce2de","64dbc2fe0ce655347ddd5dff","","","","","2135",""," ","key"," ","16.660881889764013","500","250","eb","42","0","0","38","1","31"
"","psychophysics","154","646194","0.0-154.0","60fdd69df07af0302d9ce2de","64dbc2fe0ce655347ddd5dff","","","","","2022",""," ","key"," ","16.665066115702462","500","250","eb","55","0","0","33","1","39"
"","psychophysics","155","647677","0.0-155.0","60fdd69df07af0302d9ce2de","64dbc2fe0ce655347ddd5dff","","","","","1481",""," ","key"," ","16.661829545453656","500","250","eb","39","0","0","39","1","31"
"","psychophysics","156","649625","0.0-156.0","60fdd69df07af0302d9ce2de","64dbc2fe0ce655347ddd5dff","","","","","1946",""," ","key"," ","16.659422413792246","500","250","eb","48","0","0","31","1","51"
"","psychophysics","157","651453","0.0-157.0","60fdd69df07af0302d9ce2de","64dbc2fe0ce655347ddd5dff","","","","","1826",""," ","key"," ","16.65994444444422","500","250","eb","47","0","0","53","1","35"
"","psychophysics","158","652028","0.0-158.0","60fdd69df07af0302d9ce2de","64dbc2fe0ce655347ddd5dff","","","","","574",""," ","key"," ","16.666588235293816","500","250","inst","","","","","",""
"","psychophysics","159","657491","0.0-159.0","60fdd69df07af0302d9ce2de","64dbc2fe0ce655347ddd5dff","","","","","5462",""," ","key"," ","16.660418960244456","500","250","instPz1","54","","","25","1","50"
"","psychophysics","160","660415","0.0-160.0","60fdd69df07af0302d9ce2de","64dbc2fe0ce655347ddd5dff","","","","","2923",""," ","key"," ","16.66120689655199","500","250","instPz2","26","","","35","1","20"
"","psychophysics","161","667339","0.0-161.0","60fdd69df07af0302d9ce2de","64dbc2fe0ce655347ddd5dff","","","","","6922",""," ","key"," ","16.661766265060034","500","250","instPz3","54","","","100","1","30"
"","psychophysics","162","671003","0.0-162.0","60fdd69df07af0302d9ce2de","64dbc2fe0ce655347ddd5dff","","","","","3662",""," ","key"," ","16.663337899543148","500","250","instPz4","37","","","100","1","30"
"","psychophysics","163","671846","0.0-163.0","60fdd69df07af0302d9ce2de","64dbc2fe0ce655347ddd5dff","","","","","841",""," ","key"," ","16.653061224489797","500","250","inst","","","","","",""
"","psychophysics","164","675026","0.0-164.0","60fdd69df07af0302d9ce2de","64dbc2fe0ce655347ddd5dff","","","","","3177",""," ","key"," ","16.661089473684","500","250","pz","67","","","43","1","34"
"","psychophysics","165","676634","0.0-165.0","60fdd69df07af0302d9ce2de","64dbc2fe0ce655347ddd5dff","","","","","1607",""," ","key"," ","16.66344791666658","500","250","pz","44","","","52","1","28"
"","psychophysics","166","679413","0.0-166.0","60fdd69df07af0302d9ce2de","64dbc2fe0ce655347ddd5dff","","","","","2776",""," ","key"," ","16.6623818181822","500","250","pz","70","","","55","1","46"
"","psychophysics","167","681517","0.0-167.0","60fdd69df07af0302d9ce2de","64dbc2fe0ce655347ddd5dff","","","","","2103",""," ","key"," ","16.66280952380926","500","250","pz","62","","","51","1","39"
"","psychophysics","168","684500","0.0-168.0","60fdd69df07af0302d9ce2de","64dbc2fe0ce655347ddd5dff","","","","","2982",""," ","key"," ","16.661213483146046","500","250","pz","67","","","26","1","47"
"","psychophysics","169","687225","0.0-169.0","60fdd69df07af0302d9ce2de","64dbc2fe0ce655347ddd5dff","","","","","2724",""," ","key"," ","16.66090740740765","500","250","pz","72","","","37","1","54"
"","psychophysics","170","689115","0.0-170.0","60fdd69df07af0302d9ce2de","64dbc2fe0ce655347ddd5dff","","","","","1889",""," ","key"," ","16.66257522123932","500","250","pz","66","","","48","1","42"
"","psychophysics","171","691563","0.0-171.0","60fdd69df07af0302d9ce2de","64dbc2fe0ce655347ddd5dff","","","","","2447",""," ","key"," ","16.661589041096317","500","250","pz","92","","","57","1","53"
"","psychophysics","172","693998","0.0-172.0","60fdd69df07af0302d9ce2de","64dbc2fe0ce655347ddd5dff","","","","","2434",""," ","key"," ","16.661331034483034","500","250","pz","71","","","37","1","37"
"","psychophysics","173","697219","0.0-173.0","60fdd69df07af0302d9ce2de","64dbc2fe0ce655347ddd5dff","","","","","3220",""," ","key"," ","16.662109375","500","250","pz","69","","","24","1","49"
"","psychophysics","174","699779","0.0-174.0","60fdd69df07af0302d9ce2de","64dbc2fe0ce655347ddd5dff","","","","","2558",""," ","key"," ","16.661071895424648","500","250","pz","30","","","41","1","22"
"","psychophysics","175","701699","0.0-175.0","60fdd69df07af0302d9ce2de","64dbc2fe0ce655347ddd5dff","","","","","1919",""," ","key"," ","16.663017543859926","500","250","pz","69","","","47","1","36"
"","psychophysics","176","704764","0.0-176.0","60fdd69df07af0302d9ce2de","64dbc2fe0ce655347ddd5dff","","","","","3064",""," ","key"," ","16.662426229508448","500","250","pz","83","","","34","1","55"
"","psychophysics","177","706619","0.0-177.0","60fdd69df07af0302d9ce2de","64dbc2fe0ce655347ddd5dff","","","","","1854",""," ","key"," ","16.6643818181823","500","250","pz","39","","","33","1","22"
"","psychophysics","178","709274","0.0-178.0","60fdd69df07af0302d9ce2de","64dbc2fe0ce655347ddd5dff","","","","","2653",""," ","key"," ","16.661704402515056","500","250","pz","59","","","20","1","38"
"","psychophysics","179","709840","0.0-179.0","60fdd69df07af0302d9ce2de","64dbc2fe0ce655347ddd5dff","","","","","565",""," ","key"," ","16.65430303030492","500","250","inst","","","","","",""
"","psychophysics","180","713917","0.0-180.0","60fdd69df07af0302d9ce2de","64dbc2fe0ce655347ddd5dff","","","","","4076",""," ","key"," ","16.661987654321038","500","250","instPog0","340","0","0","370","2","340"
"","psychophysics","181","716720","0.0-181.0","60fdd69df07af0302d9ce2de","64dbc2fe0ce655347ddd5dff","","","","","2802",""," ","key"," ","16.66255357142862","500","250","instPog1","362","0","0","370","2","340"
"","psychophysics","182","718936","0.0-182.0","60fdd69df07af0302d9ce2de","64dbc2fe0ce655347ddd5dff","","","","","2215",""," ","key"," ","16.661931818181817","500","250","instPog2","330","0","0","340","2","340"
"","psychophysics","183","719444","0.0-183.0","60fdd69df07af0302d9ce2de","64dbc2fe0ce655347ddd5dff","","","","","507",""," ","key"," ","16.66189655172237","500","250","inst","","","","","",""
"","psychophysics","184","720892","0.0-184.0","60fdd69df07af0302d9ce2de","64dbc2fe0ce655347ddd5dff","","","","","1445",""," ","key"," ","16.66347674418479","500","250","pog","313","0","0","327","2","329"
"","psychophysics","185","721865","0.0-185.0","60fdd69df07af0302d9ce2de","64dbc2fe0ce655347ddd5dff","","","","","972",""," ","key"," ","16.66175438596442","500","250","pog","323","0","0","325","2","345"
"","psychophysics","186","725055","0.0-186.0","60fdd69df07af0302d9ce2de","64dbc2fe0ce655347ddd5dff","","","","","3187",""," ","key"," ","16.661162303664955","500","250","pog","285","0","0","377","2","305"
"","psychophysics","187","726957","0.0-187.0","60fdd69df07af0302d9ce2de","64dbc2fe0ce655347ddd5dff","","","","","1900",""," ","key"," ","16.661150442477545","500","250","pog","321","0","0","345","2","318"
"","psychophysics","188","728411","0.0-188.0","60fdd69df07af0302d9ce2de","64dbc2fe0ce655347ddd5dff","","","","","1453",""," ","key"," ","16.665046511628113","500","250","pog","288","0","0","306","2","304"
"","psychophysics","189","729849","0.0-189.0","60fdd69df07af0302d9ce2de","64dbc2fe0ce655347ddd5dff","","","","","1437",""," ","key"," ","16.665651162789842","500","250","pog","345","0","0","359","2","344"
"","psychophysics","190","731527","0.0-190.0","60fdd69df07af0302d9ce2de","64dbc2fe0ce655347ddd5dff","","","","","1677",""," ","key"," ","16.65868686868649","500","250","pog","332","0","0","364","2","334"
"","psychophysics","191","732534","0.0-191.0","60fdd69df07af0302d9ce2de","64dbc2fe0ce655347ddd5dff","","","","","1006",""," ","key"," ","16.663266666666217","500","250","pog","295","0","0","299","2","300"
"","psychophysics","192","734634","0.0-192.0","60fdd69df07af0302d9ce2de","64dbc2fe0ce655347ddd5dff","","","","","2099",""," ","key"," ","16.66043200000003","500","250","pog","293","0","0","281","2","318"
"","psychophysics","193","739273","0.0-193.0","60fdd69df07af0302d9ce2de","64dbc2fe0ce655347ddd5dff","","","","","4637",""," ","key"," ","16.66239350180508","500","250","pog","335","0","0","283","2","366"
"","psychophysics","194","742091","0.0-194.0","60fdd69df07af0302d9ce2de","64dbc2fe0ce655347ddd5dff","","","","","2816",""," ","key"," ","16.66254166666615","500","250","pog","309","0","0","363","2","316"
"","psychophysics","195","744396","0.0-195.0","60fdd69df07af0302d9ce2de","64dbc2fe0ce655347ddd5dff","","","","","2303",""," ","key"," ","16.662855072464097","500","250","pog","322","0","0","362","2","327"
"","psychophysics","196","746127","0.0-196.0","60fdd69df07af0302d9ce2de","64dbc2fe0ce655347ddd5dff","","","","","1731",""," ","key"," ","16.665194174757417","500","250","pog","305","0","0","331","2","318"
"","psychophysics","197","748814","0.0-197.0","60fdd69df07af0302d9ce2de","64dbc2fe0ce655347ddd5dff","","","","","2684",""," ","key"," ","16.65893750000032","500","250","pog","315","0","0","367","2","314"
"","psychophysics","198","750529","0.0-198.0","60fdd69df07af0302d9ce2de","64dbc2fe0ce655347ddd5dff","","","","","1714",""," ","key"," ","16.664460784313953","500","250","pog","342","0","0","370","2","359"
"","psychophysics","199","751066","0.0-199.0","60fdd69df07af0302d9ce2de","64dbc2fe0ce655347ddd5dff","","","","","537",""," ","key"," ","16.66812903225617","500","250","inst","","","","","",""
"","psychophysics","200","755026","0.0-200.0","60fdd69df07af0302d9ce2de","64dbc2fe0ce655347ddd5dff","","","","","3959",""," ","key"," ","16.6614219409282","500","250","instBr3","23","0","0","40","2","300"
"","psychophysics","201","755574","0.0-201.0","60fdd69df07af0302d9ce2de","64dbc2fe0ce655347ddd5dff","","","","","547",""," ","key"," ","16.660749999999098","500","250","inst","","","","","",""
"","psychophysics","202","757377","0.0-202.0","60fdd69df07af0302d9ce2de","64dbc2fe0ce655347ddd5dff","","","","","1801",""," ","key"," ","16.66042990654176","500","250","br","15","-15","13","27","2","205"
"","psychophysics","203","759338","0.0-203.0","60fdd69df07af0302d9ce2de","64dbc2fe0ce655347ddd5dff","","","","","1960",""," ","key"," ","16.666008547008133","500","250","br","1","27","17","24","2","282"
"","psychophysics","204","761498","0.0-204.0","60fdd69df07af0302d9ce2de","64dbc2fe0ce655347ddd5dff","","","","","2159",""," ","key"," ","16.660867187500116","500","250","br","7","25","-25","2","2","294"
"","psychophysics","205","763123","0.0-205.0","60fdd69df07af0302d9ce2de","64dbc2fe0ce655347ddd5dff","","","","","1624",""," ","key"," ","16.66095876288672","500","250","br","16","-12","-13","26","2","231"
"","psychophysics","206","765019","0.0-206.0","60fdd69df07af0302d9ce2de","64dbc2fe0ce655347ddd5dff","","","","","1895",""," ","key"," ","16.66231858407032","500","250","br","9","-17","-19","1","2","208"
"","psychophysics","207","767206","0.0-207.0","60fdd69df07af0302d9ce2de","64dbc2fe0ce655347ddd5dff","","","","","2185",""," ","key"," ","16.661807692307942","500","250","br","13","-28","12","-9","2","245"
"","psychophysics","208","769777","0.0-208.0","60fdd69df07af0302d9ce2de","64dbc2fe0ce655347ddd5dff","","","","","2571",""," ","key"," ","16.662320261438428","500","250","br","12","-2","-19","-2","2","213"
"","psychophysics","209","771716","0.0-209.0","60fdd69df07af0302d9ce2de","64dbc2fe0ce655347ddd5dff","","","","","1937",""," ","key"," ","16.65926724137911","500","250","br","13","19","11","-6","2","235"
"","psychophysics","210","773279","0.0-210.0","60fdd69df07af0302d9ce2de","64dbc2fe0ce655347ddd5dff","","","","","1562",""," ","key"," ","16.661380434783336","500","250","br","8","16","-21","7","2","255"
"","psychophysics","211","774480","0.0-211.0","60fdd69df07af0302d9ce2de","64dbc2fe0ce655347ddd5dff","","","","","1200",""," ","key"," ","16.66366197183092","500","250","br","15","-6","13","17","2","241"
"","psychophysics","212","776663","0.0-212.0","60fdd69df07af0302d9ce2de","64dbc2fe0ce655347ddd5dff","","","","","2182",""," ","key"," ","16.663230769230555","500","250","br","16","29","-12","24","2","237"
"","psychophysics","213","778667","0.0-213.0","60fdd69df07af0302d9ce2de","64dbc2fe0ce655347ddd5dff","","","","","2001",""," ","key"," ","16.662908333333327","500","250","br","22","13","14","29","2","237"
"","psychophysics","214","780675","0.0-214.0","60fdd69df07af0302d9ce2de","64dbc2fe0ce655347ddd5dff","","","","","2006",""," ","key"," ","16.658630252101638","500","250","br","17","-3","-23","25","2","228"
"","psychophysics","215","782942","0.0-215.0","60fdd69df07af0302d9ce2de","64dbc2fe0ce655347ddd5dff","","","","","2265",""," ","key"," ","16.661355555555094","500","250","br","8","-25","-22","30","2","244"
"","psychophysics","216","785527","0.0-216.0","60fdd69df07af0302d9ce2de","64dbc2fe0ce655347ddd5dff","","","","","2584",""," ","key"," ","16.662805194804722","500","250","br","7","-11","11","26","2","248"
