"success","trial_type","trial_index","time_elapsed","internal_node_id","pid","sid","timeout","failed_images","failed_audio","failed_video","rt","stimulus","response","response_type","key_press","avg_frame_time","center_x","center_y","task","resp","version","jitterX","jitterY","start","parA"
"true","fullscreen","0","4377","0.0-0.0","60f1fa8f73bf9815c88dc8cb","64cab9df5be02cbe291a0187","","","","","","","","","","","","","","","","","","",""
"true","preload","1","4463","0.0-1.0","60f1fa8f73bf9815c88dc8cb","64cab9df5be02cbe291a0187","false","[]","[]","[]","","","","","","","","","","","","","","",""
"","html-button-response","2","48510","0.0-2.0","60f1fa8f73bf9815c88dc8cb","64cab9df5be02cbe291a0187","","","","","44045","Please Make Sure Your Audio Is On.","0","","","","","","","","","","","",""
"","psychophysics","3","101555","0.0-3.0","60f1fa8f73bf9815c88dc8cb","64cab9df5be02cbe291a0187","","","","","53040",""," ","key"," ","16.698172175007866","640","250","","","","","","",""
"","psychophysics","4","119500","0.0-4.0","60f1fa8f73bf9815c88dc8cb","64cab9df5be02cbe291a0187","","","","","17943",""," ","key"," ","16.667606511627902","500","250","inst","","","","","",""
"","psychophysics","5","132725","0.0-5.0","60f1fa8f73bf9815c88dc8cb","64cab9df5be02cbe291a0187","","","","","13220",""," ","key"," ","16.667527112232015","500","250","sample0","","","","","",""
"","psychophysics","6","137948","0.0-6.0","60f1fa8f73bf9815c88dc8cb","64cab9df5be02cbe291a0187","","","","","5223",""," ","key"," ","16.668830128205183","500","250","sample1","","","","","",""
"","psychophysics","7","169590","0.0-7.0","60f1fa8f73bf9815c88dc8cb","64cab9df5be02cbe291a0187","","","","","31636",""," ","key"," ","16.666712328767115","500","250","sample2","102","","","","",""
"","psychophysics","8","182527","0.0-8.0","60f1fa8f73bf9815c88dc8cb","64cab9df5be02cbe291a0187","","","","","12935",""," ","key"," ","16.6673122580645","500","250","sample3","102","","","","",""
"","psychophysics","9","201239","0.0-9.0","60f1fa8f73bf9815c88dc8cb","64cab9df5be02cbe291a0187","","","","","18708",""," ","key"," ","16.667517825311958","500","250","sample4","100","","","","",""
"","psychophysics","10","219655","0.0-10.0","60f1fa8f73bf9815c88dc8cb","64cab9df5be02cbe291a0187","","","","","18415",""," ","key"," ","16.666115036231886","500","250","sample5","","","","","",""
"","psychophysics","11","232912","0.0-11.0","60f1fa8f73bf9815c88dc8cb","64cab9df5be02cbe291a0187","","","","","13256",""," ","key"," ","16.667638539042834","500","250","sample6","498","","","","",""
"","psychophysics","12","275713","0.0-12.0","60f1fa8f73bf9815c88dc8cb","64cab9df5be02cbe291a0187","","","","","42800",""," ","key"," ","16.666455784963","500","250","inst","","","","","",""
"","psychophysics","13","283498","0.0-13.0","60f1fa8f73bf9815c88dc8cb","64cab9df5be02cbe291a0187","","","","","7784",""," ","key"," ","16.668221030042925","500","250","inst","","","","","",""
"","psychophysics","14","289946","0.0-14.0","60f1fa8f73bf9815c88dc8cb","64cab9df5be02cbe291a0187","","","","","6447",""," ","key"," ","16.66936787564764","500","250","inst","","","","","",""
"","psychophysics","15","304986","0.0-15.0","60f1fa8f73bf9815c88dc8cb","64cab9df5be02cbe291a0187","","","","","15039",""," ","key"," ","16.66669401330378","500","250","inst","","","","","",""
"","psychophysics","16","309162","0.0-16.0","60f1fa8f73bf9815c88dc8cb","64cab9df5be02cbe291a0187","","","","","4174",""," ","key"," ","16.669216867469917","500","250","inst","","","","","",""
"","psychophysics","17","321627","0.0-17.0","60f1fa8f73bf9815c88dc8cb","64cab9df5be02cbe291a0187","","","","","12463",""," ","key"," ","16.667547523427114","500","250","instBr0","NaN","","0","0","0","300"
"","psychophysics","18","336508","0.0-18.0","60f1fa8f73bf9815c88dc8cb","64cab9df5be02cbe291a0187","","","","","14880",""," ","key"," ","16.665936098654658","500","250","instBr1","NaN","","0","0","-40","300"
"","psychophysics","19","345436","0.0-19.0","60f1fa8f73bf9815c88dc8cb","64cab9df5be02cbe291a0187","","","","","8926",""," ","key"," ","16.66791028037382","500","250","instBr","40","2","0","0","40","300"
"","psychophysics","20","351204","0.0-20.0","60f1fa8f73bf9815c88dc8cb","64cab9df5be02cbe291a0187","","","","","5767",""," ","key"," ","16.66601449275369","500","250","inst","","","","","",""
"","psychophysics","21","359207","0.0-21.0","60f1fa8f73bf9815c88dc8cb","64cab9df5be02cbe291a0187","","","","","null","","null","key","null","16.666703549060593","500","250","br","24","2","-27","-3","29","223"
"","psychophysics","22","367208","0.0-22.0","60f1fa8f73bf9815c88dc8cb","64cab9df5be02cbe291a0187","","","","","null","","null","key","null","16.666741127348534","500","250","br","2","2","16","-12","-31","246"
"","psychophysics","23","375210","0.0-23.0","60f1fa8f73bf9815c88dc8cb","64cab9df5be02cbe291a0187","","","","","null","","null","key","null","16.666726513569863","500","250","br","18","2","-21","-12","-37","230"
"","psychophysics","24","383211","0.0-24.0","60f1fa8f73bf9815c88dc8cb","64cab9df5be02cbe291a0187","","","","","null","","null","key","null","16.666759916492627","500","250","br","18","2","-16","-1","-2","221"
"","psychophysics","25","391212","0.0-25.0","60f1fa8f73bf9815c88dc8cb","64cab9df5be02cbe291a0187","","","","","null","","null","key","null","16.666755741127325","500","250","br","18","2","21","22","-45","211"
"","psychophysics","26","396934","0.0-26.0","60f1fa8f73bf9815c88dc8cb","64cab9df5be02cbe291a0187","","","","","5717",""," ","key"," ","16.66668128654972","500","250","br","17","2","2","3","-41","226"
"","psychophysics","27","402918","0.0-27.0","60f1fa8f73bf9815c88dc8cb","64cab9df5be02cbe291a0187","","","","","5983",""," ","key"," ","16.668537604456837","500","250","br","18","2","18","6","-4","300"
"","psychophysics","28","409646","0.0-28.0","60f1fa8f73bf9815c88dc8cb","64cab9df5be02cbe291a0187","","","","","6726",""," ","key"," ","16.66826368159202","500","250","br","22","2","24","28","-11","265"
"","psychophysics","29","417062","0.0-29.0","60f1fa8f73bf9815c88dc8cb","64cab9df5be02cbe291a0187","","","","","7415",""," ","key"," ","16.666617117117124","500","250","br","21","2","-29","-19","-42","213"
"","psychophysics","30","424486","0.0-30.0","60f1fa8f73bf9815c88dc8cb","64cab9df5be02cbe291a0187","","","","","7423",""," ","key"," ","16.66639550561805","500","250","br","16","2","14","18","-44","221"
"","psychophysics","31","431608","0.0-31.0","60f1fa8f73bf9815c88dc8cb","64cab9df5be02cbe291a0187","","","","","7120",""," ","key"," ","16.665368544600906","500","250","br","23","2","-14","12","-47","267"
"","psychophysics","32","439119","0.0-32.0","60f1fa8f73bf9815c88dc8cb","64cab9df5be02cbe291a0187","","","","","7510",""," ","key"," ","16.666762222222232","500","250","br","22","2","-17","18","26","295"
"","psychophysics","33","447063","0.0-33.0","60f1fa8f73bf9815c88dc8cb","64cab9df5be02cbe291a0187","","","","","7943",""," ","key"," ","16.666667368421084","500","250","br","20","2","-9","-7","-24","248"
"","psychophysics","34","452920","0.0-34.0","60f1fa8f73bf9815c88dc8cb","64cab9df5be02cbe291a0187","","","","","5855",""," ","key"," ","16.66852706552704","500","250","br","22","2","-27","2","-23","233"
"","psychophysics","35","458873","0.0-35.0","60f1fa8f73bf9815c88dc8cb","64cab9df5be02cbe291a0187","","","","","5952",""," ","key"," ","16.6688904494382","500","250","br","22","2","22","7","-9","226"
"","psychophysics","36","462192","0.0-36.0","60f1fa8f73bf9815c88dc8cb","64cab9df5be02cbe291a0187","","","","","3318",""," ","key"," ","16.667040404040517","500","250","inst","","","","","",""
"","psychophysics","37","468041","0.0-37.0","60f1fa8f73bf9815c88dc8cb","64cab9df5be02cbe291a0187","","","","","5848",""," ","key"," ","16.66469142857141","500","250","instEB0","40","","0","0","40","40"
"","psychophysics","38","479442","0.0-38.0","60f1fa8f73bf9815c88dc8cb","64cab9df5be02cbe291a0187","","","","","11400",""," ","key"," ","16.66669106881402","500","250","instEB1","30","1","0","0","30","70"
"","psychophysics","39","492346","0.0-39.0","60f1fa8f73bf9815c88dc8cb","64cab9df5be02cbe291a0187","","","","","12903",""," ","key"," ","16.667117723156572","500","250","instEB2","60","1","0","0","60","40"
"","psychophysics","40","506786","0.0-40.0","60f1fa8f73bf9815c88dc8cb","64cab9df5be02cbe291a0187","","","","","14438",""," ","key"," ","16.667413394919215","500","250","instEB3","45","1","0","0","45","65"
"","psychophysics","41","519219","0.0-41.0","60f1fa8f73bf9815c88dc8cb","64cab9df5be02cbe291a0187","","","","","12431",""," ","key"," ","16.66688590604029","500","250","instEB4","40","1","0","0","40","40"
"","psychophysics","42","522602","0.0-42.0","60f1fa8f73bf9815c88dc8cb","64cab9df5be02cbe291a0187","","","","","3382",""," ","key"," ","16.665613861385985","500","250","inst","","","","","",""
"","psychophysics","43","530604","0.0-43.0","60f1fa8f73bf9815c88dc8cb","64cab9df5be02cbe291a0187","","","","","null","","null","key","null","16.665814196242145","500","250","eb","46","1","0","0","30","40"
"","psychophysics","44","538606","0.0-44.0","60f1fa8f73bf9815c88dc8cb","64cab9df5be02cbe291a0187","","","","","null","","null","key","null","16.66663674321507","500","250","eb","44","1","0","0","47","40"
"","psychophysics","45","546608","0.0-45.0","60f1fa8f73bf9815c88dc8cb","64cab9df5be02cbe291a0187","","","","","null","","null","key","null","16.666204592901806","500","250","eb","49","1","0","0","39","45"
"","psychophysics","46","554611","0.0-46.0","60f1fa8f73bf9815c88dc8cb","64cab9df5be02cbe291a0187","","","","","null","","null","key","null","16.66731106471815","500","250","eb","31","1","0","0","44","28"
"","psychophysics","47","562613","0.0-47.0","60f1fa8f73bf9815c88dc8cb","64cab9df5be02cbe291a0187","","","","","null","","null","key","null","16.666594989561585","500","250","eb","57","1","0","0","43","52"
"","psychophysics","48","570614","0.0-48.0","60f1fa8f73bf9815c88dc8cb","64cab9df5be02cbe291a0187","","","","","null","","null","key","null","16.66721920668058","500","250","eb","54","1","0","0","43","49"
"","psychophysics","49","578616","0.0-49.0","60f1fa8f73bf9815c88dc8cb","64cab9df5be02cbe291a0187","","","","","null","","null","key","null","16.666672233820236","500","250","eb","35","1","0","0","34","30"
"","psychophysics","50","584789","0.0-50.0","60f1fa8f73bf9815c88dc8cb","64cab9df5be02cbe291a0187","","","","","6168",""," ","key"," ","16.66667567567579","500","250","eb","42","1","0","0","36","39"
"","psychophysics","51","592790","0.0-51.0","60f1fa8f73bf9815c88dc8cb","64cab9df5be02cbe291a0187","","","","","null","","null","key","null","16.666686847599152","500","250","eb","44","1","0","0","54","41"
"","psychophysics","52","600792","0.0-52.0","60f1fa8f73bf9815c88dc8cb","64cab9df5be02cbe291a0187","","","","","null","","null","key","null","16.66804592901868","500","250","eb","34","1","0","0","46","31"
"","psychophysics","53","608794","0.0-53.0","60f1fa8f73bf9815c88dc8cb","64cab9df5be02cbe291a0187","","","","","null","","null","key","null","16.666732776617934","500","250","eb","56","1","0","0","30","49"
"","psychophysics","54","613438","0.0-54.0","60f1fa8f73bf9815c88dc8cb","64cab9df5be02cbe291a0187","","","","","4642",""," ","key"," ","16.66678776978406","500","250","eb","39","1","0","0","48","34"
"","psychophysics","55","620054","0.0-55.0","60f1fa8f73bf9815c88dc8cb","64cab9df5be02cbe291a0187","","","","","6614",""," ","key"," ","16.6667424242422","500","250","eb","37","1","0","0","24","35"
"","psychophysics","56","624702","0.0-56.0","60f1fa8f73bf9815c88dc8cb","64cab9df5be02cbe291a0187","","","","","4647",""," ","key"," ","16.6643129496403","500","250","eb","50","1","0","0","45","44"
"","psychophysics","57","629127","0.0-57.0","60f1fa8f73bf9815c88dc8cb","64cab9df5be02cbe291a0187","","","","","4423",""," ","key"," ","16.669568181818416","500","250","eb","27","1","0","0","29","25"
"","psychophysics","58","631375","0.0-58.0","60f1fa8f73bf9815c88dc8cb","64cab9df5be02cbe291a0187","","","","","2247",""," ","key"," ","16.668694029850606","500","250","inst","","","","","",""
"","psychophysics","59","634646","0.0-59.0","60f1fa8f73bf9815c88dc8cb","64cab9df5be02cbe291a0187","","","","","3270",""," ","key"," ","16.666666666666668","500","250","instZol0","0","","0","0","0",""
"","psychophysics","60","639559","0.0-60.0","60f1fa8f73bf9815c88dc8cb","64cab9df5be02cbe291a0187","","","","","4911",""," ","key"," ","16.66711224489774","500","250","instZol1","1.3","","0","0","-1.3",""
"","psychophysics","61","644967","0.0-61.0","60f1fa8f73bf9815c88dc8cb","64cab9df5be02cbe291a0187","","","","","5406",""," ","key"," ","16.666482972136148","500","250","instZol2","-2","1","0","0","2",""
"","psychophysics","62","648023","0.0-62.0","60f1fa8f73bf9815c88dc8cb","64cab9df5be02cbe291a0187","","","","","3054",""," ","key"," ","16.670300546448292","500","250","inst","","","","","",""
"","psychophysics","63","656025","0.0-63.0","60f1fa8f73bf9815c88dc8cb","64cab9df5be02cbe291a0187","","","","","null","","null","key","null","16.666693110647223","500","250","zol","1.8200000000000007","1","0","13","-0.22",""
"","psychophysics","64","664027","0.0-64.0","60f1fa8f73bf9815c88dc8cb","64cab9df5be02cbe291a0187","","","","","null","","null","key","null","16.667912317327872","500","250","zol","1.3600000000000003","1","-18","-9","-0.66",""
"","psychophysics","65","672031","0.0-65.0","60f1fa8f73bf9815c88dc8cb","64cab9df5be02cbe291a0187","","","","","null","","null","key","null","16.664801670146023","500","250","zol","2.410000000000001","1","-5","-6","-0.11",""
"","psychophysics","66","679600","0.0-66.0","60f1fa8f73bf9815c88dc8cb","64cab9df5be02cbe291a0187","","","","","7567",""," ","key"," ","16.66676379690948","500","250","zol","2.310000000000001","1","24","23","-0.61",""
"","psychophysics","67","687602","0.0-67.0","60f1fa8f73bf9815c88dc8cb","64cab9df5be02cbe291a0187","","","","","null","","null","key","null","16.668062630480122","500","250","zol","2.0600000000000005","1","-6","-7","-0.06",""
"","psychophysics","68","695604","0.0-68.0","60f1fa8f73bf9815c88dc8cb","64cab9df5be02cbe291a0187","","","","","null","","null","key","null","16.66693750000001","500","250","zol","2.0500000000000007","1","-19","30","0.75",""
"","psychophysics","69","702298","0.0-69.0","60f1fa8f73bf9815c88dc8cb","64cab9df5be02cbe291a0187","","","","","6692",""," ","key"," ","16.666689999999946","500","250","zol","1.7000000000000002","1","2","30","-0.3",""
"","psychophysics","70","708410","0.0-70.0","60f1fa8f73bf9815c88dc8cb","64cab9df5be02cbe291a0187","","","","","6109",""," ","key"," ","16.66786065573748","500","250","zol","2.0700000000000007","1","16","-26","0.03",""
"","psychophysics","71","716412","0.0-71.0","60f1fa8f73bf9815c88dc8cb","64cab9df5be02cbe291a0187","","","","","null","","null","key","null","16.665922755741033","500","250","zol","1.6600000000000001","1","28","22","0.74",""
"","psychophysics","72","724414","0.0-72.0","60f1fa8f73bf9815c88dc8cb","64cab9df5be02cbe291a0187","","","","","null","","null","key","null","16.666701461377823","500","250","zol","1.27","1","10","9","-0.57",""
"","psychophysics","73","731538","0.0-73.0","60f1fa8f73bf9815c88dc8cb","64cab9df5be02cbe291a0187","","","","","7122",""," ","key"," ","16.668168618266886","500","250","zol","1.4800000000000002","1","29","14","0.22",""
"","psychophysics","74","739541","0.0-74.0","60f1fa8f73bf9815c88dc8cb","64cab9df5be02cbe291a0187","","","","","null","","null","key","null","16.666711899791192","500","250","zol","1.4800000000000002","1","-15","-15","0.32",""
"","psychophysics","75","747543","0.0-75.0","60f1fa8f73bf9815c88dc8cb","64cab9df5be02cbe291a0187","","","","","null","","null","key","null","16.66667432150325","500","250","zol","1.58","1","16","9","-0.18",""
"","psychophysics","76","755546","0.0-76.0","60f1fa8f73bf9815c88dc8cb","64cab9df5be02cbe291a0187","","","","","null","","null","key","null","16.666753653444676","500","250","zol","1.5300000000000002","1","-21","18","-0.13",""
"","psychophysics","77","761275","0.0-77.0","60f1fa8f73bf9815c88dc8cb","64cab9df5be02cbe291a0187","","","","","5727",""," ","key"," ","16.666609329446057","500","250","zol","1.6200000000000006","1","28","-12","-0.22",""
"","psychophysics","78","763587","0.0-78.0","60f1fa8f73bf9815c88dc8cb","64cab9df5be02cbe291a0187","","","","","2311",""," ","key"," ","16.666673913042978","500","250","inst","","","","","",""
"","psychophysics","79","777229","0.0-79.0","60f1fa8f73bf9815c88dc8cb","64cab9df5be02cbe291a0187","","","","","13640",""," ","key"," ","16.666739290085708","500","250","instPog0","190","1","0","0","190","160"
"","psychophysics","80","784445","0.0-80.0","60f1fa8f73bf9815c88dc8cb","64cab9df5be02cbe291a0187","","","","","7215",""," ","key"," ","16.66821296296284","500","250","instPog1","190","1","0","0","190","160"
"","psychophysics","81","790253","0.0-81.0","60f1fa8f73bf9815c88dc8cb","64cab9df5be02cbe291a0187","","","","","5807",""," ","key"," ","16.667896551724347","500","250","instPog2","160","1","0","0","160","160"
"","psychophysics","82","792549","0.0-82.0","60f1fa8f73bf9815c88dc8cb","64cab9df5be02cbe291a0187","","","","","2295",""," ","key"," ","16.668911764706376","500","250","inst","","","","","",""
"","psychophysics","83","800551","0.0-83.0","60f1fa8f73bf9815c88dc8cb","64cab9df5be02cbe291a0187","","","","","null","","null","key","null","16.667943632567987","500","250","pog","173","1","0","0","187","160"
"","psychophysics","84","807590","0.0-84.0","60f1fa8f73bf9815c88dc8cb","64cab9df5be02cbe291a0187","","","","","7038",""," ","key"," ","16.666670616113933","500","250","pog","219","1","0","0","125","200"
"","psychophysics","85","812509","0.0-85.0","60f1fa8f73bf9815c88dc8cb","64cab9df5be02cbe291a0187","","","","","4918",""," ","key"," ","16.66670068027214","500","250","pog","154","1","0","0","150","144"
"","psychophysics","86","820511","0.0-86.0","60f1fa8f73bf9815c88dc8cb","64cab9df5be02cbe291a0187","","","","","null","","null","key","null","16.665400835072976","500","250","pog","145","1","0","0","177","128"
"","psychophysics","87","826710","0.0-87.0","60f1fa8f73bf9815c88dc8cb","64cab9df5be02cbe291a0187","","","","","6198",""," ","key"," ","16.66500269541783","500","250","pog","199","1","0","0","171","187"
"","psychophysics","88","834230","0.0-88.0","60f1fa8f73bf9815c88dc8cb","64cab9df5be02cbe291a0187","","","","","7518",""," ","key"," ","16.668177777777892","500","250","pog","197","1","0","0","103","185"
"","psychophysics","89","841615","0.0-89.0","60f1fa8f73bf9815c88dc8cb","64cab9df5be02cbe291a0187","","","","","7383",""," ","key"," ","16.667092760180953","500","250","pog","192","1","0","0","136","180"
"","psychophysics","90","849616","0.0-90.0","60f1fa8f73bf9815c88dc8cb","64cab9df5be02cbe291a0187","","","","","null","","null","key","null","16.66665135699374","500","250","pog","140","1","0","0","208","126"
"","psychophysics","91","853167","0.0-91.0","60f1fa8f73bf9815c88dc8cb","64cab9df5be02cbe291a0187","","","","","3549",""," ","key"," ","16.666693396226037","500","250","pog","139","1","0","0","139","120"
"","psychophysics","92","858839","0.0-92.0","60f1fa8f73bf9815c88dc8cb","64cab9df5be02cbe291a0187","","","","","5671",""," ","key"," ","16.66912941176492","500","250","pog","189","1","0","0","153","172"
"","psychophysics","93","863408","0.0-93.0","60f1fa8f73bf9815c88dc8cb","64cab9df5be02cbe291a0187","","","","","4568",""," ","key"," ","16.666677655677326","500","250","pog","173","1","0","0","147","159"
"","psychophysics","94","867711","0.0-94.0","60f1fa8f73bf9815c88dc8cb","64cab9df5be02cbe291a0187","","","","","4302",""," ","key"," ","16.66671595330747","500","250","pog","157","1","0","0","163","141"
"","psychophysics","95","874479","0.0-95.0","60f1fa8f73bf9815c88dc8cb","64cab9df5be02cbe291a0187","","","","","6767",""," ","key"," ","16.66864938271623","500","250","pog","173","1","0","0","191","159"
"","psychophysics","96","882481","0.0-96.0","60f1fa8f73bf9815c88dc8cb","64cab9df5be02cbe291a0187","","","","","null","","null","key","null","16.66665762004181","500","250","pog","183","1","0","0","181","166"
"","psychophysics","97","888480","0.0-97.0","60f1fa8f73bf9815c88dc8cb","64cab9df5be02cbe291a0187","","","","","5997",""," ","key"," ","16.66829526462413","500","250","pog","151","1","0","0","207","131"
"","psychophysics","98","891384","0.0-98.0","60f1fa8f73bf9815c88dc8cb","64cab9df5be02cbe291a0187","","","","","2903",""," ","key"," ","16.665878612717016","500","250","inst","","","","","",""
"","psychophysics","99","896712","0.0-99.0","60f1fa8f73bf9815c88dc8cb","64cab9df5be02cbe291a0187","","","","","5326",""," ","key"," ","16.66681504702206","500","250","instPz0","50","2","","","50","50"
"","psychophysics","100","905441","0.0-100.0","60f1fa8f73bf9815c88dc8cb","64cab9df5be02cbe291a0187","","","","","8728",""," ","key"," ","16.664866156787717","500","250","instPz1","25","2","","","25","50"
"","psychophysics","101","911313","0.0-101.0","60f1fa8f73bf9815c88dc8cb","64cab9df5be02cbe291a0187","","","","","5870",""," ","key"," ","16.666703703703803","500","250","instPz2","15","2","","","15","25"
"","psychophysics","102","922593","0.0-102.0","60f1fa8f73bf9815c88dc8cb","64cab9df5be02cbe291a0187","","","","","11278",""," ","key"," ","16.668137573964614","500","250","instPz3","25","2","","","25","50"
"","psychophysics","103","928842","0.0-103.0","60f1fa8f73bf9815c88dc8cb","64cab9df5be02cbe291a0187","","","","","6247",""," ","key"," ","16.665775401069517","500","250","instPz4","15","2","","","15","30"
"","psychophysics","104","930897","0.0-104.0","60f1fa8f73bf9815c88dc8cb","64cab9df5be02cbe291a0187","","","","","2054",""," ","key"," ","16.67199180327875","500","250","inst","","","","","",""
"","psychophysics","105","938899","0.0-105.0","60f1fa8f73bf9815c88dc8cb","64cab9df5be02cbe291a0187","","","","","null","","null","key","null","16.66665762004181","500","250","pz","26","2","","","39","56"
"","psychophysics","106","946900","0.0-106.0","60f1fa8f73bf9815c88dc8cb","64cab9df5be02cbe291a0187","","","","","null","","null","key","null","16.668096033403007","500","250","pz","43","2","","","29","58"
"","psychophysics","107","954902","0.0-107.0","60f1fa8f73bf9815c88dc8cb","64cab9df5be02cbe291a0187","","","","","null","","null","key","null","16.666736951983477","500","250","pz","19","2","","","41","26"
"","psychophysics","108","962903","0.0-108.0","60f1fa8f73bf9815c88dc8cb","64cab9df5be02cbe291a0187","","","","","null","","null","key","null","16.666718749999806","500","250","pz","22","2","","","52","32"
"","psychophysics","109","970904","0.0-109.0","60f1fa8f73bf9815c88dc8cb","64cab9df5be02cbe291a0187","","","","","null","","null","key","null","16.700424686192378","500","250","pz","23","2","","","50","28"
"","psychophysics","110","978907","0.0-110.0","60f1fa8f73bf9815c88dc8cb","64cab9df5be02cbe291a0187","","","","","null","","null","key","null","16.66667223382048","500","250","pz","14","2","","","57","20"
"","psychophysics","111","986227","0.0-111.0","60f1fa8f73bf9815c88dc8cb","64cab9df5be02cbe291a0187","","","","","7316",""," ","key"," ","16.666696347032044","500","250","pz","25","2","","","22","35"
"","psychophysics","112","993412","0.0-112.0","60f1fa8f73bf9815c88dc8cb","64cab9df5be02cbe291a0187","","","","","7183",""," ","key"," ","16.66659534883707","500","250","pz","22","2","","","56","29"
"","psychophysics","113","1000500","0.0-113.0","60f1fa8f73bf9815c88dc8cb","64cab9df5be02cbe291a0187","","","","","7086",""," ","key"," ","16.666745283019033","500","250","pz","24","2","","","31","33"
"","psychophysics","114","1008501","0.0-114.0","60f1fa8f73bf9815c88dc8cb","64cab9df5be02cbe291a0187","","","","","null","","null","key","null","16.668423799582317","500","250","pz","36","2","","","52","48"
"","psychophysics","115","1016503","0.0-115.0","60f1fa8f73bf9815c88dc8cb","64cab9df5be02cbe291a0187","","","","","null","","null","key","null","16.6666833333334","500","250","pz","22","2","","","52","28"
"","psychophysics","116","1024504","0.0-116.0","60f1fa8f73bf9815c88dc8cb","64cab9df5be02cbe291a0187","","","","","null","","null","key","null","16.66532359081432","500","250","pz","33","2","","","52","45"
"","psychophysics","117","1032505","0.0-117.0","60f1fa8f73bf9815c88dc8cb","64cab9df5be02cbe291a0187","","","","","null","","null","key","null","16.666730688935406","500","250","pz","23","2","","","56","32"
"","psychophysics","118","1038862","0.0-118.0","60f1fa8f73bf9815c88dc8cb","64cab9df5be02cbe291a0187","","","","","6351",""," ","key"," ","16.666671052631788","500","250","pz","19","2","","","39","25"
"","psychophysics","119","1042390","0.0-119.0","60f1fa8f73bf9815c88dc8cb","64cab9df5be02cbe291a0187","","","","","3526",""," ","key"," ","16.667317535545042","500","250","pz","19","2","","","20","26"
"","psychophysics","120","1048206","0.0-120.0","60f1fa8f73bf9815c88dc8cb","64cab9df5be02cbe291a0187","","","","","5816",""," ","key"," ","16.666741379310213","500","250","inst","","","","","",""
"","psychophysics","121","1056687","0.0-121.0","60f1fa8f73bf9815c88dc8cb","64cab9df5be02cbe291a0187","","","","","8478",""," ","key"," ","16.66669488188996","500","250","instZol2","-2","2","0","0","2",""
"","psychophysics","122","1061702","0.0-122.0","60f1fa8f73bf9815c88dc8cb","64cab9df5be02cbe291a0187","","","","","5015",""," ","key"," ","16.66658999999985","500","250","inst","","","","","",""
"","psychophysics","123","1069705","0.0-123.0","60f1fa8f73bf9815c88dc8cb","64cab9df5be02cbe291a0187","","","","","null","","null","key","null","16.665112734864135","500","250","zol","-2.210000000000001","2","-7","-22","0.11",""
"","psychophysics","124","1076511","0.0-124.0","60f1fa8f73bf9815c88dc8cb","64cab9df5be02cbe291a0187","","","","","6804",""," ","key"," ","16.66476904176901","500","250","zol","-1.36","2","-14","27","-0.54",""
"","psychophysics","125","1082567","0.0-125.0","60f1fa8f73bf9815c88dc8cb","64cab9df5be02cbe291a0187","","","","","6054",""," ","key"," ","16.664919889502443","500","250","zol","-1.5800000000000003","2","22","3","-0.12",""
"","psychophysics","126","1090570","0.0-126.0","60f1fa8f73bf9815c88dc8cb","64cab9df5be02cbe291a0187","","","","","null","","null","key","null","16.666727083333534","500","250","zol","-1.3200000000000003","2","-8","7","-0.18",""
"","psychophysics","127","1098572","0.0-127.0","60f1fa8f73bf9815c88dc8cb","64cab9df5be02cbe291a0187","","","","","null","","null","key","null","16.665530271398968","500","250","zol","-1.1800000000000002","2","1","11","-0.42",""
"","psychophysics","128","1106575","0.0-128.0","60f1fa8f73bf9815c88dc8cb","64cab9df5be02cbe291a0187","","","","","null","","null","key","null","16.666739039666005","500","250","zol","-0.7900000000000001","2","-1","6","-0.21",""
"","psychophysics","129","1114577","0.0-129.0","60f1fa8f73bf9815c88dc8cb","64cab9df5be02cbe291a0187","","","","","null","","null","key","null","16.667096033403144","500","250","zol","-1.11","2","-6","27","0.11",""
"","psychophysics","130","1118808","0.0-130.0","60f1fa8f73bf9815c88dc8cb","64cab9df5be02cbe291a0187","","","","","4225",""," ","key"," ","16.663928853754662","500","250","zol","-1.4700000000000002","2","9","25","-0.23",""
"","psychophysics","131","1126810","0.0-131.0","60f1fa8f73bf9815c88dc8cb","64cab9df5be02cbe291a0187","","","","","null","","null","key","null","16.66552818371644","500","250","zol","-1.1300000000000001","2","-16","-5","0.03",""
"","psychophysics","132","1134812","0.0-132.0","60f1fa8f73bf9815c88dc8cb","64cab9df5be02cbe291a0187","","","","","null","","null","key","null","16.66532150313155","500","250","zol","-1.1999999999999997","2","18","21","0",""
"","psychophysics","133","1142814","0.0-133.0","60f1fa8f73bf9815c88dc8cb","64cab9df5be02cbe291a0187","","","","","null","","null","key","null","16.66665970772458","500","250","zol","-0.7799999999999999","2","21","-30","-0.62",""
"","psychophysics","134","1150816","0.0-134.0","60f1fa8f73bf9815c88dc8cb","64cab9df5be02cbe291a0187","","","","","null","","null","key","null","16.666640918580367","500","250","zol","-1.4300000000000004","2","-11","6","-0.37",""
"","psychophysics","135","1158818","0.0-135.0","60f1fa8f73bf9815c88dc8cb","64cab9df5be02cbe291a0187","","","","","null","","null","key","null","16.66672860125239","500","250","zol","-1.37","2","10","8","0.57",""
"","psychophysics","136","1166821","0.0-136.0","60f1fa8f73bf9815c88dc8cb","64cab9df5be02cbe291a0187","","","","","null","","null","key","null","16.666706250000182","500","250","zol","-0.9399999999999998","2","4","26","-0.66",""
"","psychophysics","137","1174823","0.0-137.0","60f1fa8f73bf9815c88dc8cb","64cab9df5be02cbe291a0187","","","","","null","","null","key","null","16.66672025052179","500","250","zol","-1.21","2","17","5","0.51",""
"","psychophysics","138","1176899","0.0-138.0","60f1fa8f73bf9815c88dc8cb","64cab9df5be02cbe291a0187","","","","","2071",""," ","key"," ","16.66661788618033","500","250","inst","","","","","",""
"","psychophysics","139","1186635","0.0-139.0","60f1fa8f73bf9815c88dc8cb","64cab9df5be02cbe291a0187","","","","","9735",""," ","key"," ","16.72410843373483","500","250","instEB4","40","2","0","0","40","40"
"","psychophysics","140","1189548","0.0-140.0","60f1fa8f73bf9815c88dc8cb","64cab9df5be02cbe291a0187","","","","","2911",""," ","key"," ","16.66685632183939","500","250","inst","","","","","",""
"","psychophysics","141","1194628","0.0-141.0","60f1fa8f73bf9815c88dc8cb","64cab9df5be02cbe291a0187","","","","","5079",""," ","key"," ","16.66827631578934","500","250","eb","48","2","0","0","46","43"
"","psychophysics","142","1198596","0.0-142.0","60f1fa8f73bf9815c88dc8cb","64cab9df5be02cbe291a0187","","","","","3966",""," ","key"," ","16.739118644067922","500","250","eb","31","2","0","0","28","29"
"","psychophysics","143","1205803","0.0-143.0","60f1fa8f73bf9815c88dc8cb","64cab9df5be02cbe291a0187","","","","","7206",""," ","key"," ","16.66671990740697","500","250","eb","52","2","0","0","47","50"
"","psychophysics","144","1211115","0.0-144.0","60f1fa8f73bf9815c88dc8cb","64cab9df5be02cbe291a0187","","","","","5311",""," ","key"," ","16.668798107255768","500","250","eb","38","2","0","0","40","35"
"","psychophysics","145","1219118","0.0-145.0","60f1fa8f73bf9815c88dc8cb","64cab9df5be02cbe291a0187","","","","","null","","null","key","null","16.66672025052179","500","250","eb","27","2","0","0","49","26"
"","psychophysics","146","1219164","0.0-146.0","60f1fa8f73bf9815c88dc8cb","64cab9df5be02cbe291a0187","","","","","44",""," ","key"," ","16.677499999990687","500","250","eb","28","2","0","0","28","48"
"","psychophysics","147","1224196","0.0-147.0","60f1fa8f73bf9815c88dc8cb","64cab9df5be02cbe291a0187","","","","","5031",""," ","key"," ","16.66675415282382","500","250","eb","42","2","0","0","43","39"
"","psychophysics","148","1231141","0.0-148.0","60f1fa8f73bf9815c88dc8cb","64cab9df5be02cbe291a0187","","","","","6943",""," ","key"," ","16.668050480769196","500","250","eb","44","2","0","0","36","42"
"","psychophysics","149","1237700","0.0-149.0","60f1fa8f73bf9815c88dc8cb","64cab9df5be02cbe291a0187","","","","","6558",""," ","key"," ","16.666637755101856","500","250","eb","28","2","0","0","32","26"
"","psychophysics","150","1245702","0.0-150.0","60f1fa8f73bf9815c88dc8cb","64cab9df5be02cbe291a0187","","","","","null","","null","key","null","16.666739039666005","500","250","eb","53","2","0","0","31","49"
"","psychophysics","151","1252517","0.0-151.0","60f1fa8f73bf9815c88dc8cb","64cab9df5be02cbe291a0187","","","","","6812",""," ","key"," ","16.66668382352937","500","250","eb","27","2","0","0","42","25"
"","psychophysics","152","1260519","0.0-152.0","60f1fa8f73bf9815c88dc8cb","64cab9df5be02cbe291a0187","","","","","null","","null","key","null","16.701596234309893","500","250","eb","58","2","0","0","35","53"
"","psychophysics","153","1268070","0.0-153.0","60f1fa8f73bf9815c88dc8cb","64cab9df5be02cbe291a0187","","","","","7549",""," ","key"," ","16.703584070796502","500","250","eb","41","2","0","0","46","39"
"","psychophysics","154","1275582","0.0-154.0","60f1fa8f73bf9815c88dc8cb","64cab9df5be02cbe291a0187","","","","","7510",""," ","key"," ","16.66667037861907","500","250","eb","57","2","0","0","28","52"
"","psychophysics","155","1282542","0.0-155.0","60f1fa8f73bf9815c88dc8cb","64cab9df5be02cbe291a0187","","","","","6959",""," ","key"," ","16.666690647482035","500","250","eb","58","2","0","0","30","54"
"","psychophysics","156","1284478","0.0-156.0","60f1fa8f73bf9815c88dc8cb","64cab9df5be02cbe291a0187","","","","","1935",""," ","key"," ","16.67209565217364","500","250","inst","","","","","",""
"","psychophysics","157","1287438","0.0-157.0","60f1fa8f73bf9815c88dc8cb","64cab9df5be02cbe291a0187","","","","","2959",""," ","key"," ","16.670276836158003","500","250","instPog0","370","2","0","0","370","340"
"","psychophysics","158","1288118","0.0-158.0","60f1fa8f73bf9815c88dc8cb","64cab9df5be02cbe291a0187","","","","","679",""," ","key"," ","16.66648717948761","500","250","instPog1","370","2","0","0","370","340"
"","psychophysics","159","1289335","0.0-159.0","60f1fa8f73bf9815c88dc8cb","64cab9df5be02cbe291a0187","","","","","1215",""," ","key"," ","16.67375000000013","500","250","instPog2","340","2","0","0","340","340"
"","psychophysics","160","1291238","0.0-160.0","60f1fa8f73bf9815c88dc8cb","64cab9df5be02cbe291a0187","","","","","1901",""," ","key"," ","16.672447368420922","500","250","inst","","","","","",""
"","psychophysics","161","1297175","0.0-161.0","60f1fa8f73bf9815c88dc8cb","64cab9df5be02cbe291a0187","","","","","5935",""," ","key"," ","16.668450704225485","500","250","pog","330","2","0","0","320","349"
"","psychophysics","162","1303360","0.0-162.0","60f1fa8f73bf9815c88dc8cb","64cab9df5be02cbe291a0187","","","","","6183",""," ","key"," ","16.664586486486165","500","250","pog","366","2","0","0","342","378"
"","psychophysics","163","1309295","0.0-163.0","60f1fa8f73bf9815c88dc8cb","64cab9df5be02cbe291a0187","","","","","5934",""," ","key"," ","16.6666985915495","500","250","pog","327","2","0","0","323","338"
"","psychophysics","164","1315144","0.0-164.0","60f1fa8f73bf9815c88dc8cb","64cab9df5be02cbe291a0187","","","","","5847",""," ","key"," ","16.66847714285699","500","250","pog","365","2","0","0","363","377"
"","psychophysics","165","1323146","0.0-165.0","60f1fa8f73bf9815c88dc8cb","64cab9df5be02cbe291a0187","","","","","null","","null","key","null","16.667933194154372","500","250","pog","292","2","0","0","358","304"
"","psychophysics","166","1330785","0.0-166.0","60f1fa8f73bf9815c88dc8cb","64cab9df5be02cbe291a0187","","","","","7638",""," ","key"," ","16.6666542669586","500","250","pog","320","2","0","0","394","331"
"","psychophysics","167","1337977","0.0-167.0","60f1fa8f73bf9815c88dc8cb","64cab9df5be02cbe291a0187","","","","","7189",""," ","key"," ","16.66669605568423","500","250","pog","305","2","0","0","385","315"
"","psychophysics","168","1345593","0.0-168.0","60f1fa8f73bf9815c88dc8cb","64cab9df5be02cbe291a0187","","","","","7615",""," ","key"," ","16.667177631578962","500","250","pog","373","2","0","0","363","379"
"","psychophysics","169","1349249","0.0-169.0","60f1fa8f73bf9815c88dc8cb","64cab9df5be02cbe291a0187","","","","","3654",""," ","key"," ","16.67024770642229","500","250","pog","292","2","0","0","286","310"
"","psychophysics","170","1356626","0.0-170.0","60f1fa8f73bf9815c88dc8cb","64cab9df5be02cbe291a0187","","","","","7376",""," ","key"," ","16.667886877828067","500","250","pog","306","2","0","0","394","321"
"","psychophysics","171","1364194","0.0-171.0","60f1fa8f73bf9815c88dc8cb","64cab9df5be02cbe291a0187","","","","","7566",""," ","key"," ","16.66712362030891","500","250","pog","322","2","0","0","362","334"
"","psychophysics","172","1370850","0.0-172.0","60f1fa8f73bf9815c88dc8cb","64cab9df5be02cbe291a0187","","","","","6655",""," ","key"," ","16.668286432161104","500","250","pog","333","2","0","0","307","343"
"","psychophysics","173","1376635","0.0-173.0","60f1fa8f73bf9815c88dc8cb","64cab9df5be02cbe291a0187","","","","","5779",""," ","key"," ","16.66858959537554","500","250","pog","324","2","0","0","354","332"
"","psychophysics","174","1384636","0.0-174.0","60f1fa8f73bf9815c88dc8cb","64cab9df5be02cbe291a0187","","","","","null","","null","key","null","16.668221294363214","500","250","pog","367","2","0","0","389","376"
"","psychophysics","175","1387971","0.0-175.0","60f1fa8f73bf9815c88dc8cb","64cab9df5be02cbe291a0187","","","","","3333",""," ","key"," ","16.669820000000765","500","250","pog","319","2","0","0","285","334"
"","psychophysics","176","1389643","0.0-176.0","60f1fa8f73bf9815c88dc8cb","64cab9df5be02cbe291a0187","","","","","1671",""," ","key"," ","16.67430303030356","500","250","inst","","","","","",""
"","psychophysics","177","1396523","0.0-177.0","60f1fa8f73bf9815c88dc8cb","64cab9df5be02cbe291a0187","","","","","6879",""," ","key"," ","16.667720873786468","500","250","instPz4","15","1","","","15","30"
"","psychophysics","178","1397668","0.0-178.0","60f1fa8f73bf9815c88dc8cb","64cab9df5be02cbe291a0187","","","","","1144",""," ","key"," ","16.65480597015234","500","250","inst","","","","","",""
"","psychophysics","179","1405669","0.0-179.0","60f1fa8f73bf9815c88dc8cb","64cab9df5be02cbe291a0187","","","","","null","","null","key","null","16.666726513569863","500","250","pz","37","1","","","26","21"
"","psychophysics","180","1413671","0.0-180.0","60f1fa8f73bf9815c88dc8cb","64cab9df5be02cbe291a0187","","","","","null","","null","key","null","16.668720833333403","500","250","pz","45","1","","","34","33"
"","psychophysics","181","1421672","0.0-181.0","60f1fa8f73bf9815c88dc8cb","64cab9df5be02cbe291a0187","","","","","null","","null","key","null","16.666695198329993","500","250","pz","92","1","","","32","46"
"","psychophysics","182","1427268","0.0-182.0","60f1fa8f73bf9815c88dc8cb","64cab9df5be02cbe291a0187","","","","","5594",""," ","key"," ","16.666697604790144","500","250","pz","75","1","","","38","41"
"","psychophysics","183","1435269","0.0-183.0","60f1fa8f73bf9815c88dc8cb","64cab9df5be02cbe291a0187","","","","","null","","null","key","null","16.666734864300462","500","250","pz","89","1","","","47","46"
"","psychophysics","184","1440949","0.0-184.0","60f1fa8f73bf9815c88dc8cb","64cab9df5be02cbe291a0187","","","","","5677",""," ","key"," ","16.668688235294265","500","250","pz","71","1","","","44","37"
"","psychophysics","185","1448950","0.0-185.0","60f1fa8f73bf9815c88dc8cb","64cab9df5be02cbe291a0187","","","","","null","","null","key","null","16.668056367432293","500","250","pz","123","1","","","57","58"
"","psychophysics","186","1456951","0.0-186.0","60f1fa8f73bf9815c88dc8cb","64cab9df5be02cbe291a0187","","","","","null","","null","key","null","16.66843215031316","500","250","pz","56","1","","","51","33"
"","psychophysics","187","1464953","0.0-187.0","60f1fa8f73bf9815c88dc8cb","64cab9df5be02cbe291a0187","","","","","null","","null","key","null","16.66855949895614","500","250","pz","104","1","","","45","48"
"","psychophysics","188","1472955","0.0-188.0","60f1fa8f73bf9815c88dc8cb","64cab9df5be02cbe291a0187","","","","","null","","null","key","null","16.666641666666933","500","250","pz","84","1","","","34","45"
"","psychophysics","189","1479502","0.0-189.0","60f1fa8f73bf9815c88dc8cb","64cab9df5be02cbe291a0187","","","","","6542",""," ","key"," ","16.666698209718678","500","250","pz","39","1","","","55","24"
"","psychophysics","190","1487504","0.0-190.0","60f1fa8f73bf9815c88dc8cb","64cab9df5be02cbe291a0187","","","","","null","","null","key","null","16.666679166666775","500","250","pz","40","1","","","49","30"
"","psychophysics","191","1492343","0.0-191.0","60f1fa8f73bf9815c88dc8cb","64cab9df5be02cbe291a0187","","","","","4837",""," ","key"," ","16.66670242214501","500","250","pz","83","1","","","53","43"
"","psychophysics","192","1500344","0.0-192.0","60f1fa8f73bf9815c88dc8cb","64cab9df5be02cbe291a0187","","","","","null","","null","key","null","16.666622129436156","500","250","pz","72","1","","","23","41"
"","psychophysics","193","1505703","0.0-193.0","60f1fa8f73bf9815c88dc8cb","64cab9df5be02cbe291a0187","","","","","5357",""," ","key"," ","16.666715624999778","500","250","pz","72","1","","","39","40"
"","psychophysics","194","1507423","0.0-194.0","60f1fa8f73bf9815c88dc8cb","64cab9df5be02cbe291a0187","","","","","1718",""," ","key"," ","16.667009708736074","500","250","inst","","","","","",""
"","psychophysics","195","1523352","0.0-195.0","60f1fa8f73bf9815c88dc8cb","64cab9df5be02cbe291a0187","","","","","15928",""," ","key"," ","16.666660377358436","500","250","instBr","40","1","0","0","40","300"
"","psychophysics","196","1524952","0.0-196.0","60f1fa8f73bf9815c88dc8cb","64cab9df5be02cbe291a0187","","","","","1598",""," ","key"," ","16.675705263158306","500","250","inst","","","","","",""
"","psychophysics","197","1532953","0.0-197.0","60f1fa8f73bf9815c88dc8cb","64cab9df5be02cbe291a0187","","","","","null","","null","key","null","16.666772442588403","500","250","br","-20","1","15","-27","-34","258"
"","psychophysics","198","1539600","0.0-198.0","60f1fa8f73bf9815c88dc8cb","64cab9df5be02cbe291a0187","","","","","6645",""," ","key"," ","16.666773869347146","500","250","br","-19","1","11","5","-49","216"
"","psychophysics","199","1547601","0.0-199.0","60f1fa8f73bf9815c88dc8cb","64cab9df5be02cbe291a0187","","","","","null","","null","key","null","16.666663883089637","500","250","br","-18","1","11","-29","48","222"
"","psychophysics","200","1555603","0.0-200.0","60f1fa8f73bf9815c88dc8cb","64cab9df5be02cbe291a0187","","","","","null","","null","key","null","16.66809603340325","500","250","br","-17","1","-22","-16","32","216"
"","psychophysics","201","1563153","0.0-201.0","60f1fa8f73bf9815c88dc8cb","64cab9df5be02cbe291a0187","","","","","7548",""," ","key"," ","16.668674778761403","500","250","br","-15","1","-16","22","-43","201"
"","psychophysics","202","1570458","0.0-202.0","60f1fa8f73bf9815c88dc8cb","64cab9df5be02cbe291a0187","","","","","7302",""," ","key"," ","16.666744292237407","500","250","br","-20","1","20","11","15","223"
"","psychophysics","203","1577266","0.0-203.0","60f1fa8f73bf9815c88dc8cb","64cab9df5be02cbe291a0187","","","","","6807",""," ","key"," ","16.66513759213733","500","250","br","-19","1","-9","25","-39","300"
"","psychophysics","204","1584090","0.0-204.0","60f1fa8f73bf9815c88dc8cb","64cab9df5be02cbe291a0187","","","","","6822",""," ","key"," ","16.66821515892375","500","250","br","-21","1","23","21","47","255"
"","psychophysics","205","1591682","0.0-205.0","60f1fa8f73bf9815c88dc8cb","64cab9df5be02cbe291a0187","","","","","7591",""," ","key"," ","16.66805506607934","500","250","br","-20","1","-22","26","49","300"
"","psychophysics","206","1596099","0.0-206.0","60f1fa8f73bf9815c88dc8cb","64cab9df5be02cbe291a0187","","","","","4415",""," ","key"," ","16.669856060606737","500","250","br","-18","1","-11","-11","27","244"
"","psychophysics","207","1601602","0.0-207.0","60f1fa8f73bf9815c88dc8cb","64cab9df5be02cbe291a0187","","","","","5502",""," ","key"," ","16.66706079027352","500","250","br","-12","1","25","21","-46","224"
"","psychophysics","208","1608171","0.0-208.0","60f1fa8f73bf9815c88dc8cb","64cab9df5be02cbe291a0187","","","","","6566",""," ","key"," ","16.66835279187819","500","250","br","-15","1","29","30","-29","202"
"","psychophysics","209","1616173","0.0-209.0","60f1fa8f73bf9815c88dc8cb","64cab9df5be02cbe291a0187","","","","","null","","null","key","null","16.666701461378064","500","250","br","-16","1","2","12","23","233"
"","psychophysics","210","1622716","0.0-210.0","60f1fa8f73bf9815c88dc8cb","64cab9df5be02cbe291a0187","","","","","6542",""," ","key"," ","16.666780051151218","500","250","br","-20","1","23","-23","-23","285"
"","psychophysics","211","1630301","0.0-211.0","60f1fa8f73bf9815c88dc8cb","64cab9df5be02cbe291a0187","","","","","7583",""," ","key"," ","16.664909691630353","500","250","br","-20","1","-9","25","-8","290"
