"success","trial_type","trial_index","time_elapsed","internal_node_id","pid","sid","timeout","failed_images","failed_audio","failed_video","rt","stimulus","response","response_type","key_press","avg_frame_time","center_x","center_y","task","resp","version","jitterX","jitterY","start","parA"
"true","fullscreen","0","8559","0.0-0.0","55cb79e0fdf99b3c26ae4bca","64dbc2dd29bf075cd8f3c6f7","","","","","","","","","","","","","","","","","","",""
"true","preload","1","8827","0.0-1.0","55cb79e0fdf99b3c26ae4bca","64dbc2dd29bf075cd8f3c6f7","false","[]","[]","[]","","","","","","","","","","","","","","",""
"","html-button-response","2","10488","0.0-2.0","55cb79e0fdf99b3c26ae4bca","64dbc2dd29bf075cd8f3c6f7","","","","","1660","Please Make Sure Your Audio Is On.","0","","","","","","","","","","","",""
"","psychophysics","3","15919","0.0-3.0","55cb79e0fdf99b3c26ae4bca","64dbc2dd29bf075cd8f3c6f7","","","","","5421",""," ","key"," ","16.821130030959754","960","250","","","","","","",""
"","psychophysics","4","18838","0.0-4.0","55cb79e0fdf99b3c26ae4bca","64dbc2dd29bf075cd8f3c6f7","","","","","2918",""," ","key"," ","16.66635057471264","500","250","inst","","","","","",""
"","psychophysics","5","22692","0.0-5.0","55cb79e0fdf99b3c26ae4bca","64dbc2dd29bf075cd8f3c6f7","","","","","3852",""," ","key"," ","16.965466367713","500","250","sample0","","","","","",""
"","psychophysics","6","26031","0.0-6.0","55cb79e0fdf99b3c26ae4bca","64dbc2dd29bf075cd8f3c6f7","","","","","3337",""," ","key"," ","16.920106598984763","500","250","sample1","","","","","",""
"","psychophysics","7","39830","0.0-7.0","55cb79e0fdf99b3c26ae4bca","64dbc2dd29bf075cd8f3c6f7","","","","","13797",""," ","key"," ","16.974171182266012","500","250","sample2","96","","","","",""
"","psychophysics","8","44510","0.0-8.0","55cb79e0fdf99b3c26ae4bca","64dbc2dd29bf075cd8f3c6f7","","","","","4678",""," ","key"," ","16.969189090909097","500","250","sample3","124","","","","",""
"","psychophysics","9","55022","0.0-9.0","55cb79e0fdf99b3c26ae4bca","64dbc2dd29bf075cd8f3c6f7","","","","","10511",""," ","key"," ","16.772974399999995","500","250","sample4","100","","","","",""
"","psychophysics","10","58686","0.0-10.0","55cb79e0fdf99b3c26ae4bca","64dbc2dd29bf075cd8f3c6f7","","","","","3662",""," ","key"," ","16.819990783410148","500","250","sample5","","","","","",""
"","psychophysics","11","75165","0.0-11.0","55cb79e0fdf99b3c26ae4bca","64dbc2dd29bf075cd8f3c6f7","","","","","16478",""," ","key"," ","16.836714723926388","500","250","sample6","504","","","","",""
"","psychophysics","12","79878","0.0-12.0","55cb79e0fdf99b3c26ae4bca","64dbc2dd29bf075cd8f3c6f7","","","","","4711",""," ","key"," ","16.845605734767023","500","250","inst","","","","","",""
"","psychophysics","13","85090","0.0-13.0","55cb79e0fdf99b3c26ae4bca","64dbc2dd29bf075cd8f3c6f7","","","","","5210",""," ","key"," ","16.828577922077937","500","250","inst","","","","","",""
"","psychophysics","14","89190","0.0-14.0","55cb79e0fdf99b3c26ae4bca","64dbc2dd29bf075cd8f3c6f7","","","","","4099",""," ","key"," ","17.449735042735032","500","250","inst","","","","","",""
"","psychophysics","15","92094","0.0-15.0","55cb79e0fdf99b3c26ae4bca","64dbc2dd29bf075cd8f3c6f7","","","","","2903",""," ","key"," ","17.364934131736547","500","250","inst","","","","","",""
"","psychophysics","16","94279","0.0-16.0","55cb79e0fdf99b3c26ae4bca","64dbc2dd29bf075cd8f3c6f7","","","","","2184",""," ","key"," ","17.19540476190487","500","250","inst","","","","","",""
"","psychophysics","17","98755","0.0-17.0","55cb79e0fdf99b3c26ae4bca","64dbc2dd29bf075cd8f3c6f7","","","","","4474",""," ","key"," ","18.855563559322036","500","250","instBr0","0","","0","0","0","300"
"","psychophysics","18","110134","0.0-18.0","55cb79e0fdf99b3c26ae4bca","64dbc2dd29bf075cd8f3c6f7","","","","","11377",""," ","key"," ","17.09235789473685","500","250","instBr1","2","","0","0","-40","300"
"","psychophysics","19","125605","0.0-19.0","55cb79e0fdf99b3c26ae4bca","64dbc2dd29bf075cd8f3c6f7","","","","","15470",""," ","key"," ","16.903366520787742","500","250","instBr3","25","2","0","0","40","300"
"","psychophysics","20","130893","0.0-20.0","55cb79e0fdf99b3c26ae4bca","64dbc2dd29bf075cd8f3c6f7","","","","","5286",""," ","key"," ","17.322052459016426","500","250","inst","","","","","",""
"","psychophysics","21","135270","0.0-21.0","55cb79e0fdf99b3c26ae4bca","64dbc2dd29bf075cd8f3c6f7","","","","","4373",""," ","key"," ","16.991910156250015","500","250","br","29","2","20","13","-19","274"
"","psychophysics","22","142143","0.0-22.0","55cb79e0fdf99b3c26ae4bca","64dbc2dd29bf075cd8f3c6f7","","","","","6870",""," ","key"," ","17.123486284289303","500","250","br","20","2","-17","-25","26","200"
"","psychophysics","23","150147","0.0-23.0","55cb79e0fdf99b3c26ae4bca","64dbc2dd29bf075cd8f3c6f7","","","","","null","","null","key","null","17.021573560767628","500","250","br","23","2","6","5","-27","254"
"","psychophysics","24","153727","0.0-24.0","55cb79e0fdf99b3c26ae4bca","64dbc2dd29bf075cd8f3c6f7","","","","","3579",""," ","key"," ","17.147076923076803","500","250","br","22","2","-1","22","8","254"
"","psychophysics","25","161038","0.0-25.0","55cb79e0fdf99b3c26ae4bca","64dbc2dd29bf075cd8f3c6f7","","","","","7309",""," ","key"," ","17.340919047619018","500","250","br","23","2","20","22","-8","272"
"","psychophysics","26","164272","0.0-26.0","55cb79e0fdf99b3c26ae4bca","64dbc2dd29bf075cd8f3c6f7","","","","","3231",""," ","key"," ","18.921241176470613","500","250","br","19","2","2","-22","30","292"
"","psychophysics","27","169390","0.0-27.0","55cb79e0fdf99b3c26ae4bca","64dbc2dd29bf075cd8f3c6f7","","","","","5112",""," ","key"," ","16.831353135313513","500","250","br","17","2","-23","-13","14","236"
"","psychophysics","28","174303","0.0-28.0","55cb79e0fdf99b3c26ae4bca","64dbc2dd29bf075cd8f3c6f7","","","","","4909",""," ","key"," ","16.780428082191712","500","250","br","21","2","-4","11","-12","283"
"","psychophysics","29","178318","0.0-29.0","55cb79e0fdf99b3c26ae4bca","64dbc2dd29bf075cd8f3c6f7","","","","","4012",""," ","key"," ","16.87734177215187","500","250","br","21","2","29","23","0","293"
"","psychophysics","30","186323","0.0-30.0","55cb79e0fdf99b3c26ae4bca","64dbc2dd29bf075cd8f3c6f7","","","","","null","","null","key","null","17.27950432900438","500","250","br","21","2","-5","-13","-27","230"
"","psychophysics","31","191326","0.0-31.0","55cb79e0fdf99b3c26ae4bca","64dbc2dd29bf075cd8f3c6f7","","","","","5000",""," ","key"," ","17.30082698961932","500","250","br","24","2","12","-6","5","278"
"","psychophysics","32","195293","0.0-32.0","55cb79e0fdf99b3c26ae4bca","64dbc2dd29bf075cd8f3c6f7","","","","","3962",""," ","key"," ","17.400277533039702","500","250","br","21","2","29","-17","8","223"
"","psychophysics","33","198870","0.0-33.0","55cb79e0fdf99b3c26ae4bca","64dbc2dd29bf075cd8f3c6f7","","","","","3575",""," ","key"," ","16.904361904761892","500","250","br","18","2","15","-28","26","231"
"","psychophysics","34","205366","0.0-34.0","55cb79e0fdf99b3c26ae4bca","64dbc2dd29bf075cd8f3c6f7","","","","","6494",""," ","key"," ","17.288506666666674","500","250","br","19","2","29","23","21","259"
"","psychophysics","35","208934","0.0-35.0","55cb79e0fdf99b3c26ae4bca","64dbc2dd29bf075cd8f3c6f7","","","","","3567",""," ","key"," ","17.40161764705879","500","250","br","21","2","27","-13","27","297"
"","psychophysics","36","219614","0.0-36.0","55cb79e0fdf99b3c26ae4bca","64dbc2dd29bf075cd8f3c6f7","","","","","10679",""," ","key"," ","17.176172302737506","500","250","inst","","","","","",""
"","psychophysics","37","221726","0.0-37.0","55cb79e0fdf99b3c26ae4bca","64dbc2dd29bf075cd8f3c6f7","","","","","2110",""," ","key"," ","17.79656779661013","500","250","instEB0","40","","0","0","40","40"
"","psychophysics","38","229726","0.0-38.0","55cb79e0fdf99b3c26ae4bca","64dbc2dd29bf075cd8f3c6f7","","","","","7999",""," ","key"," ","17.20504094827585","500","250","instEB1","70","2","0","0","30","70"
"","psychophysics","39","243286","0.0-39.0","55cb79e0fdf99b3c26ae4bca","64dbc2dd29bf075cd8f3c6f7","","","","","13559",""," ","key"," ","17.283644955300105","500","250","instEB2","43","2","0","0","60","40"
"","psychophysics","40","253326","0.0-40.0","55cb79e0fdf99b3c26ae4bca","64dbc2dd29bf075cd8f3c6f7","","","","","10038",""," ","key"," ","17.239032646048106","500","250","instEB3","74","2","0","0","45","65"
"","psychophysics","41","265990","0.0-41.0","55cb79e0fdf99b3c26ae4bca","64dbc2dd29bf075cd8f3c6f7","","","","","12661",""," ","key"," ","17.02571832884095","500","250","instEB4","47","2","0","0","40","40"
"","psychophysics","42","273830","0.0-42.0","55cb79e0fdf99b3c26ae4bca","64dbc2dd29bf075cd8f3c6f7","","","","","7838",""," ","key"," ","16.77341970021408","500","250","inst","","","","","",""
"","psychophysics","43","281837","0.0-43.0","55cb79e0fdf99b3c26ae4bca","64dbc2dd29bf075cd8f3c6f7","","","","","null","","null","key","null","16.87781183932338","500","250","eb","57","2","0","0","54","49"
"","psychophysics","44","289438","0.0-44.0","55cb79e0fdf99b3c26ae4bca","64dbc2dd29bf075cd8f3c6f7","","","","","7599",""," ","key"," ","17.273719817767656","500","250","eb","55","2","0","0","26","48"
"","psychophysics","45","297441","0.0-45.0","55cb79e0fdf99b3c26ae4bca","64dbc2dd29bf075cd8f3c6f7","","","","","null","","null","key","null","17.021669509594883","500","250","eb","51","2","0","0","49","45"
"","psychophysics","46","304518","0.0-46.0","55cb79e0fdf99b3c26ae4bca","64dbc2dd29bf075cd8f3c6f7","","","","","7066",""," ","key"," ","16.90557177033502","500","250","eb","39","2","0","0","39","32"
"","psychophysics","47","312524","0.0-47.0","55cb79e0fdf99b3c26ae4bca","64dbc2dd29bf075cd8f3c6f7","","","","","null","","null","key","null","16.842177215189956","500","250","eb","38","2","0","0","34","32"
"","psychophysics","48","320534","0.0-48.0","55cb79e0fdf99b3c26ae4bca","64dbc2dd29bf075cd8f3c6f7","","","","","null","","null","key","null","16.80630882352932","500","250","eb","58","2","0","0","29","49"
"","psychophysics","49","327315","0.0-49.0","55cb79e0fdf99b3c26ae4bca","64dbc2dd29bf075cd8f3c6f7","","","","","6778",""," ","key"," ","17.088258227848158","500","250","eb","30","2","0","0","33","25"
"","psychophysics","50","331678","0.0-50.0","55cb79e0fdf99b3c26ae4bca","64dbc2dd29bf075cd8f3c6f7","","","","","4343",""," ","key"," ","17.46632400000002","500","250","eb","33","2","0","0","30","28"
"","psychophysics","51","339686","0.0-51.0","55cb79e0fdf99b3c26ae4bca","64dbc2dd29bf075cd8f3c6f7","","","","","null","","null","key","null","16.98543404255315","500","250","eb","45","2","0","0","36","40"
"","psychophysics","52","347691","0.0-52.0","55cb79e0fdf99b3c26ae4bca","64dbc2dd29bf075cd8f3c6f7","","","","","null","","null","key","null","16.913533898305012","500","250","eb","43","2","0","0","28","37"
"","psychophysics","53","350573","0.0-53.0","55cb79e0fdf99b3c26ae4bca","64dbc2dd29bf075cd8f3c6f7","","","","","2878",""," ","key"," ","17.063238095237814","500","250","eb","49","2","0","0","53","42"
"","psychophysics","54","358005","0.0-54.0","55cb79e0fdf99b3c26ae4bca","64dbc2dd29bf075cd8f3c6f7","","","","","7428",""," ","key"," ","16.779389140271473","500","250","eb","60","2","0","0","31","54"
"","psychophysics","55","362695","0.0-55.0","55cb79e0fdf99b3c26ae4bca","64dbc2dd29bf075cd8f3c6f7","","","","","4688",""," ","key"," ","17.74372243346003","500","250","eb","31","2","0","0","38","24"
"","psychophysics","56","369613","0.0-56.0","55cb79e0fdf99b3c26ae4bca","64dbc2dd29bf075cd8f3c6f7","","","","","6912",""," ","key"," ","16.993901719901675","500","250","eb","51","2","0","0","34","46"
"","psychophysics","57","375094","0.0-57.0","55cb79e0fdf99b3c26ae4bca","64dbc2dd29bf075cd8f3c6f7","","","","","5478",""," ","key"," ","16.976844720496878","500","250","eb","42","2","0","0","33","38"
"","psychophysics","58","376190","0.0-58.0","55cb79e0fdf99b3c26ae4bca","64dbc2dd29bf075cd8f3c6f7","","","","","1093",""," ","key"," ","16.666234375000386","500","250","inst","","","","","",""
"","psychophysics","59","383062","0.0-59.0","55cb79e0fdf99b3c26ae4bca","64dbc2dd29bf075cd8f3c6f7","","","","","6871",""," ","key"," ","16.912588669950736","500","250","instPog0","160","1","0","0","190","160"
"","psychophysics","60","388486","0.0-60.0","55cb79e0fdf99b3c26ae4bca","64dbc2dd29bf075cd8f3c6f7","","","","","5423",""," ","key"," ","16.980855345911984","500","250","instPog1","172","1","0","0","190","160"
"","psychophysics","61","395231","0.0-61.0","55cb79e0fdf99b3c26ae4bca","64dbc2dd29bf075cd8f3c6f7","","","","","6744",""," ","key"," ","16.7913274999999","500","250","instPog2","168","1","0","0","160","160"
"","psychophysics","62","396254","0.0-62.0","55cb79e0fdf99b3c26ae4bca","64dbc2dd29bf075cd8f3c6f7","","","","","1022",""," ","key"," ","16.666327868852587","500","250","inst","","","","","",""
"","psychophysics","63","402646","0.0-63.0","55cb79e0fdf99b3c26ae4bca","64dbc2dd29bf075cd8f3c6f7","","","","","6390",""," ","key"," ","17.251908108107965","500","250","pog","147","1","0","0","191","126"
"","psychophysics","64","405491","0.0-64.0","55cb79e0fdf99b3c26ae4bca","64dbc2dd29bf075cd8f3c6f7","","","","","2842",""," ","key"," ","17.40007547169789","500","250","pog","190","1","0","0","206","152"
"","psychophysics","65","409406","0.0-65.0","55cb79e0fdf99b3c26ae4bca","64dbc2dd29bf075cd8f3c6f7","","","","","3911",""," ","key"," ","18.036187214611818","500","250","pog","231","1","0","0","157","196"
"","psychophysics","66","413190","0.0-66.0","55cb79e0fdf99b3c26ae4bca","64dbc2dd29bf075cd8f3c6f7","","","","","3783",""," ","key"," ","16.740400000000115","500","250","pog","191","1","0","0","155","163"
"","psychophysics","67","418101","0.0-67.0","55cb79e0fdf99b3c26ae4bca","64dbc2dd29bf075cd8f3c6f7","","","","","4909",""," ","key"," ","17.013562499999857","500","250","pog","221","1","0","0","187","195"
"","psychophysics","68","421215","0.0-68.0","55cb79e0fdf99b3c26ae4bca","64dbc2dd29bf075cd8f3c6f7","","","","","3112",""," ","key"," ","16.93962295081968","500","250","pog","185","1","0","0","135","162"
"","psychophysics","69","423949","0.0-69.0","55cb79e0fdf99b3c26ae4bca","64dbc2dd29bf075cd8f3c6f7","","","","","2732",""," ","key"," ","17.085415094339293","500","250","pog","220","1","0","0","214","193"
"","psychophysics","70","425846","0.0-70.0","55cb79e0fdf99b3c26ae4bca","64dbc2dd29bf075cd8f3c6f7","","","","","1895",""," ","key"," ","16.81649549549544","500","250","pog","201","1","0","0","207","168"
"","psychophysics","71","431302","0.0-71.0","55cb79e0fdf99b3c26ae4bca","64dbc2dd29bf075cd8f3c6f7","","","","","5453",""," ","key"," ","18.046046357615758","500","250","pog","215","1","0","0","153","191"
"","psychophysics","72","436543","0.0-72.0","55cb79e0fdf99b3c26ae4bca","64dbc2dd29bf075cd8f3c6f7","","","","","5238",""," ","key"," ","16.77317307692302","500","250","pog","161","1","0","0","103","137"
"","psychophysics","73","441638","0.0-73.0","55cb79e0fdf99b3c26ae4bca","64dbc2dd29bf075cd8f3c6f7","","","","","5092",""," ","key"," ","17.00182885906035","500","250","pog","200","1","0","0","184","169"
"","psychophysics","74","444702","0.0-74.0","55cb79e0fdf99b3c26ae4bca","64dbc2dd29bf075cd8f3c6f7","","","","","3062",""," ","key"," ","16.850408839779","500","250","pog","183","1","0","0","197","145"
"","psychophysics","75","448736","0.0-75.0","55cb79e0fdf99b3c26ae4bca","64dbc2dd29bf075cd8f3c6f7","","","","","4033",""," ","key"," ","17.09230638297864","500","250","pog","209","1","0","0","149","191"
"","psychophysics","76","454999","0.0-76.0","55cb79e0fdf99b3c26ae4bca","64dbc2dd29bf075cd8f3c6f7","","","","","6261",""," ","key"," ","17.654951977401137","500","250","pog","205","1","0","0","133","173"
"","psychophysics","77","458254","0.0-77.0","55cb79e0fdf99b3c26ae4bca","64dbc2dd29bf075cd8f3c6f7","","","","","3253",""," ","key"," ","16.928188481675313","500","250","pog","229","1","0","0","215","188"
"","psychophysics","78","459118","0.0-78.0","55cb79e0fdf99b3c26ae4bca","64dbc2dd29bf075cd8f3c6f7","","","","","861",""," ","key"," ","16.666294117647624","500","250","inst","","","","","",""
"","psychophysics","79","461814","0.0-79.0","55cb79e0fdf99b3c26ae4bca","64dbc2dd29bf075cd8f3c6f7","","","","","2695",""," ","key"," ","16.876094339622636","500","250","instPzPre","50","0","","","50","50"
"","psychophysics","80","464870","0.0-80.0","55cb79e0fdf99b3c26ae4bca","64dbc2dd29bf075cd8f3c6f7","","","","","3054",""," ","key"," ","17.13704519774002","500","250","instPz0","50","1","","","50","50"
"","psychophysics","81","469773","0.0-81.0","55cb79e0fdf99b3c26ae4bca","64dbc2dd29bf075cd8f3c6f7","","","","","4902",""," ","key"," ","16.723386986301342","500","250","instPz1","48","1","","","25","50"
"","psychophysics","82","477934","0.0-82.0","55cb79e0fdf99b3c26ae4bca","64dbc2dd29bf075cd8f3c6f7","","","","","8158",""," ","key"," ","16.734784394250447","500","250","instPz2","20","1","","","35","20"
"","psychophysics","83","489685","0.0-83.0","55cb79e0fdf99b3c26ae4bca","64dbc2dd29bf075cd8f3c6f7","","","","","11749",""," ","key"," ","17.004546376811575","500","250","instPz3","32","1","","","100","30"
"","psychophysics","84","498464","0.0-84.0","55cb79e0fdf99b3c26ae4bca","64dbc2dd29bf075cd8f3c6f7","","","","","8776",""," ","key"," ","16.82650576923076","500","250","instPz4","35","1","","","100","30"
"","psychophysics","85","500190","0.0-85.0","55cb79e0fdf99b3c26ae4bca","64dbc2dd29bf075cd8f3c6f7","","","","","1717",""," ","key"," ","16.996128712871254","500","250","inst","","","","","",""
"","psychophysics","86","508193","0.0-86.0","55cb79e0fdf99b3c26ae4bca","64dbc2dd29bf075cd8f3c6f7","","","","","null","","null","key","null","16.84175368421049","500","250","pz","58","1","","","36","46"
"","psychophysics","87","516202","0.0-87.0","55cb79e0fdf99b3c26ae4bca","64dbc2dd29bf075cd8f3c6f7","","","","","null","","null","key","null","17.058076923076907","500","250","pz","61","1","","","37","53"
"","psychophysics","88","520751","0.0-88.0","55cb79e0fdf99b3c26ae4bca","64dbc2dd29bf075cd8f3c6f7","","","","","4547",""," ","key"," ","17.570709302325646","500","250","pz","39","1","","","58","30"
"","psychophysics","89","525966","0.0-89.0","55cb79e0fdf99b3c26ae4bca","64dbc2dd29bf075cd8f3c6f7","","","","","5213",""," ","key"," ","17.104930921052553","500","250","pz","32","1","","","42","22"
"","psychophysics","90","532382","0.0-90.0","55cb79e0fdf99b3c26ae4bca","64dbc2dd29bf075cd8f3c6f7","","","","","6414",""," ","key"," ","17.02093351063841","500","250","pz","63","1","","","39","51"
"","psychophysics","91","538510","0.0-91.0","55cb79e0fdf99b3c26ae4bca","64dbc2dd29bf075cd8f3c6f7","","","","","6125",""," ","key"," ","16.89647790055255","500","250","pz","65","1","","","56","56"
"","psychophysics","92","546514","0.0-92.0","55cb79e0fdf99b3c26ae4bca","64dbc2dd29bf075cd8f3c6f7","","","","","null","","null","key","null","16.877813953488385","500","250","pz","26","1","","","57","21"
"","psychophysics","93","552670","0.0-93.0","55cb79e0fdf99b3c26ae4bca","64dbc2dd29bf075cd8f3c6f7","","","","","6154",""," ","key"," ","17.084130919219998","500","250","pz","43","1","","","51","32"
"","psychophysics","94","560676","0.0-94.0","55cb79e0fdf99b3c26ae4bca","64dbc2dd29bf075cd8f3c6f7","","","","","null","","null","key","null","17.16702789699588","500","250","pz","41","1","","","32","31"
"","psychophysics","95","564934","0.0-95.0","55cb79e0fdf99b3c26ae4bca","64dbc2dd29bf075cd8f3c6f7","","","","","4256",""," ","key"," ","16.66630708661405","500","250","pz","29","1","","","23","22"
"","psychophysics","96","570150","0.0-96.0","55cb79e0fdf99b3c26ae4bca","64dbc2dd29bf075cd8f3c6f7","","","","","5215",""," ","key"," ","16.937755700325933","500","250","pz","45","1","","","31","32"
"","psychophysics","97","576590","0.0-97.0","55cb79e0fdf99b3c26ae4bca","64dbc2dd29bf075cd8f3c6f7","","","","","6438",""," ","key"," ","16.797238219895398","500","250","pz","39","1","","","27","28"
"","psychophysics","98","582142","0.0-98.0","55cb79e0fdf99b3c26ae4bca","64dbc2dd29bf075cd8f3c6f7","","","","","5551",""," ","key"," ","16.76702114803614","500","250","pz","56","1","","","33","47"
"","psychophysics","99","590148","0.0-99.0","55cb79e0fdf99b3c26ae4bca","64dbc2dd29bf075cd8f3c6f7","","","","","null","","null","key","null","17.204797413793006","500","250","pz","38","1","","","23","27"
"","psychophysics","100","594822","0.0-100.0","55cb79e0fdf99b3c26ae4bca","64dbc2dd29bf075cd8f3c6f7","","","","","4672",""," ","key"," ","16.78673646209378","500","250","pz","49","1","","","58","36"
"","psychophysics","101","596390","0.0-101.0","55cb79e0fdf99b3c26ae4bca","64dbc2dd29bf075cd8f3c6f7","","","","","1566",""," ","key"," ","16.666322580646344","500","250","inst","","","","","",""
"","psychophysics","102","598469","0.0-102.0","55cb79e0fdf99b3c26ae4bca","64dbc2dd29bf075cd8f3c6f7","","","","","2078",""," ","key"," ","16.801682926828942","500","250","instZol0","0","","0","0","0",""
"","psychophysics","103","605310","0.0-103.0","55cb79e0fdf99b3c26ae4bca","64dbc2dd29bf075cd8f3c6f7","","","","","6839",""," ","key"," ","16.78920147420137","500","250","instZol1","2.7755575615628914e-17","","0","0","-1.3",""
"","psychophysics","104","616359","0.0-104.0","55cb79e0fdf99b3c26ae4bca","64dbc2dd29bf075cd8f3c6f7","","","","","11045",""," ","key"," ","16.81899236641213","500","250","instZol2","-1.6999999999999997","2","0","0","2",""
"","psychophysics","105","617110","0.0-105.0","55cb79e0fdf99b3c26ae4bca","64dbc2dd29bf075cd8f3c6f7","","","","","749",""," ","key"," ","16.666733333333912","500","250","inst","","","","","",""
"","psychophysics","106","625116","0.0-106.0","55cb79e0fdf99b3c26ae4bca","64dbc2dd29bf075cd8f3c6f7","","","","","null","","null","key","null","17.279551948052056","500","250","zol","-1.34","2","21","-21","-0.46",""
"","psychophysics","107","630734","0.0-107.0","55cb79e0fdf99b3c26ae4bca","64dbc2dd29bf075cd8f3c6f7","","","","","5616",""," ","key"," ","17.17762269938659","500","250","zol","-0.8799999999999999","2","-28","25","-0.02",""
"","psychophysics","108","636734","0.0-108.0","55cb79e0fdf99b3c26ae4bca","64dbc2dd29bf075cd8f3c6f7","","","","","5998",""," ","key"," ","17.046085470085405","500","250","zol","-1.25","2","-24","0","0.45",""
"","psychophysics","109","643886","0.0-109.0","55cb79e0fdf99b3c26ae4bca","64dbc2dd29bf075cd8f3c6f7","","","","","7149",""," ","key"," ","17.313633495145783","500","250","zol","-0.8300000000000001","2","-4","17","0.03",""
"","psychophysics","110","651485","0.0-110.0","55cb79e0fdf99b3c26ae4bca","64dbc2dd29bf075cd8f3c6f7","","","","","7597",""," ","key"," ","16.814046563192925","500","250","zol","-0.8699999999999999","2","5","-29","-0.03",""
"","psychophysics","111","656805","0.0-111.0","55cb79e0fdf99b3c26ae4bca","64dbc2dd29bf075cd8f3c6f7","","","","","5317",""," ","key"," ","17.15173139158579","500","250","zol","-0.8399999999999999","2","29","12","-0.56",""
"","psychophysics","112","662894","0.0-112.0","55cb79e0fdf99b3c26ae4bca","64dbc2dd29bf075cd8f3c6f7","","","","","6085",""," ","key"," ","16.898498607242303","500","250","zol","-0.6799999999999999","2","21","-8","-0.42",""
"","psychophysics","113","669933","0.0-113.0","55cb79e0fdf99b3c26ae4bca","64dbc2dd29bf075cd8f3c6f7","","","","","7033",""," ","key"," ","17.029469733656107","500","250","zol","-0.8699999999999999","2","-21","-28","0.17",""
"","psychophysics","114","675871","0.0-114.0","55cb79e0fdf99b3c26ae4bca","64dbc2dd29bf075cd8f3c6f7","","","","","5932",""," ","key"," ","17.149420289855207","500","250","zol","-0.3500000000000001","2","23","21","-0.45",""
"","psychophysics","115","681614","0.0-115.0","55cb79e0fdf99b3c26ae4bca","64dbc2dd29bf075cd8f3c6f7","","","","","5740",""," ","key"," ","17.216945945945998","500","250","zol","-0.9899999999999999","2","-24","-23","0.59",""
"","psychophysics","116","686430","0.0-116.0","55cb79e0fdf99b3c26ae4bca","64dbc2dd29bf075cd8f3c6f7","","","","","4812",""," ","key"," ","16.72441114982564","500","250","zol","-1.1300000000000001","2","-17","-27","0.63",""
"","psychophysics","117","691431","0.0-117.0","55cb79e0fdf99b3c26ae4bca","64dbc2dd29bf075cd8f3c6f7","","","","","4998",""," ","key"," ","16.949785714285593","500","250","zol","-1.16","2","5","14","0.16",""
"","psychophysics","118","694646","0.0-118.0","55cb79e0fdf99b3c26ae4bca","64dbc2dd29bf075cd8f3c6f7","","","","","3213",""," ","key"," ","16.753581151832506","500","250","zol","-0.7","2","12","2","0",""
"","psychophysics","119","702290","0.0-119.0","55cb79e0fdf99b3c26ae4bca","64dbc2dd29bf075cd8f3c6f7","","","","","7641",""," ","key"," ","17.039217002237198","500","250","zol","-0.6599999999999999","2","-15","-5","-0.74",""
"","psychophysics","120","710302","0.0-120.0","55cb79e0fdf99b3c26ae4bca","64dbc2dd29bf075cd8f3c6f7","","","","","null","","null","key","null","17.057221748400977","500","250","zol","-0.6799999999999999","2","26","11","0.18",""
"","psychophysics","121","711206","0.0-121.0","55cb79e0fdf99b3c26ae4bca","64dbc2dd29bf075cd8f3c6f7","","","","","903",""," ","key"," ","17.666379999998025","500","250","inst","","","","","",""
"","psychophysics","122","716693","0.0-122.0","55cb79e0fdf99b3c26ae4bca","64dbc2dd29bf075cd8f3c6f7","","","","","5486",""," ","key"," ","16.975879256966042","500","250","instPog0","340","2","0","0","370","340"
"","psychophysics","123","719094","0.0-123.0","55cb79e0fdf99b3c26ae4bca","64dbc2dd29bf075cd8f3c6f7","","","","","2399",""," ","key"," ","16.666461538461565","500","250","instPog1","342","2","0","0","370","340"
"","psychophysics","124","722231","0.0-124.0","55cb79e0fdf99b3c26ae4bca","64dbc2dd29bf075cd8f3c6f7","","","","","3135",""," ","key"," ","16.84637837837815","500","250","instPog2","332","2","0","0","340","340"
"","psychophysics","125","722934","0.0-125.0","55cb79e0fdf99b3c26ae4bca","64dbc2dd29bf075cd8f3c6f7","","","","","702",""," ","key"," ","16.665951219512287","500","250","inst","","","","","",""
"","psychophysics","126","725423","0.0-126.0","55cb79e0fdf99b3c26ae4bca","64dbc2dd29bf075cd8f3c6f7","","","","","2487",""," ","key"," ","18.40756716417955","500","250","pog","300","2","0","0","312","323"
"","psychophysics","127","729941","0.0-127.0","55cb79e0fdf99b3c26ae4bca","64dbc2dd29bf075cd8f3c6f7","","","","","4517",""," ","key"," ","16.916842105263175","500","250","pog","318","2","0","0","300","340"
"","psychophysics","128","733182","0.0-128.0","55cb79e0fdf99b3c26ae4bca","64dbc2dd29bf075cd8f3c6f7","","","","","3239",""," ","key"," ","17.107370370370706","500","250","pog","331","2","0","0","355","349"
"","psychophysics","129","735342","0.0-129.0","55cb79e0fdf99b3c26ae4bca","64dbc2dd29bf075cd8f3c6f7","","","","","2158",""," ","key"," ","16.796367187499527","500","250","pog","353","2","0","0","361","370"
"","psychophysics","130","738140","0.0-130.0","55cb79e0fdf99b3c26ae4bca","64dbc2dd29bf075cd8f3c6f7","","","","","2795",""," ","key"," ","17.41417307692329","500","250","pog","346","2","0","0","340","366"
"","psychophysics","131","742843","0.0-131.0","55cb79e0fdf99b3c26ae4bca","64dbc2dd29bf075cd8f3c6f7","","","","","4701",""," ","key"," ","17.3478550185877","500","250","pog","288","2","0","0","338","310"
"","psychophysics","132","747303","0.0-132.0","55cb79e0fdf99b3c26ae4bca","64dbc2dd29bf075cd8f3c6f7","","","","","4457",""," ","key"," ","16.791481203007464","500","250","pog","306","2","0","0","280","329"
"","psychophysics","133","754335","0.0-133.0","55cb79e0fdf99b3c26ae4bca","64dbc2dd29bf075cd8f3c6f7","","","","","7031",""," ","key"," ","16.94811352656998","500","250","pog","283","2","0","0","393","303"
"","psychophysics","134","758086","0.0-134.0","55cb79e0fdf99b3c26ae4bca","64dbc2dd29bf075cd8f3c6f7","","","","","3750",""," ","key"," ","16.892601809954815","500","250","pog","311","2","0","0","281","339"
"","psychophysics","135","761182","0.0-135.0","55cb79e0fdf99b3c26ae4bca","64dbc2dd29bf075cd8f3c6f7","","","","","3095",""," ","key"," ","17.034883977900623","500","250","pog","320","2","0","0","378","344"
"","psychophysics","136","766007","0.0-136.0","55cb79e0fdf99b3c26ae4bca","64dbc2dd29bf075cd8f3c6f7","","","","","4823",""," ","key"," ","16.90089436619695","500","250","pog","288","2","0","0","388","306"
"","psychophysics","137","768166","0.0-137.0","55cb79e0fdf99b3c26ae4bca","64dbc2dd29bf075cd8f3c6f7","","","","","2158",""," ","key"," ","16.79692968749987","500","250","pog","330","2","0","0","314","355"
"","psychophysics","138","770638","0.0-138.0","55cb79e0fdf99b3c26ae4bca","64dbc2dd29bf075cd8f3c6f7","","","","","2471",""," ","key"," ","17.132265734265662","500","250","pog","308","2","0","0","352","338"
"","psychophysics","139","773678","0.0-139.0","55cb79e0fdf99b3c26ae4bca","64dbc2dd29bf075cd8f3c6f7","","","","","3039",""," ","key"," ","16.758464088397826","500","250","pog","329","2","0","0","305","358"
"","psychophysics","140","777239","0.0-140.0","55cb79e0fdf99b3c26ae4bca","64dbc2dd29bf075cd8f3c6f7","","","","","3559",""," ","key"," ","16.745388625592426","500","250","pog","300","2","0","0","354","326"
"","psychophysics","141","778064","0.0-141.0","55cb79e0fdf99b3c26ae4bca","64dbc2dd29bf075cd8f3c6f7","","","","","824",""," ","key"," ","16.66614893617039","500","250","inst","","","","","",""
"","psychophysics","142","786665","0.0-142.0","55cb79e0fdf99b3c26ae4bca","64dbc2dd29bf075cd8f3c6f7","","","","","8596",""," ","key"," ","16.829399217221084","500","250","instBr3","-23","1","0","0","40","300"
"","psychophysics","143","787406","0.0-143.0","55cb79e0fdf99b3c26ae4bca","64dbc2dd29bf075cd8f3c6f7","","","","","739",""," ","key"," ","17.053674418606448","500","250","inst","","","","","",""
"","psychophysics","144","789310","0.0-144.0","55cb79e0fdf99b3c26ae4bca","64dbc2dd29bf075cd8f3c6f7","","","","","1902",""," ","key"," ","16.815196428571653","500","250","br","-18","1","16","-8","-11","252"
"","psychophysics","145","791239","0.0-145.0","55cb79e0fdf99b3c26ae4bca","64dbc2dd29bf075cd8f3c6f7","","","","","1928",""," ","key"," ","18.81151485148619","500","250","br","-16","1","-16","9","-8","276"
"","psychophysics","146","793290","0.0-146.0","55cb79e0fdf99b3c26ae4bca","64dbc2dd29bf075cd8f3c6f7","","","","","2048",""," ","key"," ","16.666279661017313","500","250","br","-15","1","-28","15","-24","232"
"","psychophysics","147","795182","0.0-147.0","55cb79e0fdf99b3c26ae4bca","64dbc2dd29bf075cd8f3c6f7","","","","","1876",""," ","key"," ","19.499229999999514","500","250","br","-24","1","-1","-18","-12","285"
"","psychophysics","148","798799","0.0-148.0","55cb79e0fdf99b3c26ae4bca","64dbc2dd29bf075cd8f3c6f7","","","","","3614",""," ","key"," ","17.39135748792298","500","250","br","-20","1","8","7","10","232"
"","psychophysics","149","801775","0.0-149.0","55cb79e0fdf99b3c26ae4bca","64dbc2dd29bf075cd8f3c6f7","","","","","2974",""," ","key"," ","16.760994318181474","500","250","br","-22","1","15","-24","-15","293"
"","psychophysics","150","806767","0.0-150.0","55cb79e0fdf99b3c26ae4bca","64dbc2dd29bf075cd8f3c6f7","","","","","4990",""," ","key"," ","16.892322033898257","500","250","br","-18","1","-2","10","-17","287"
"","psychophysics","151","809247","0.0-151.0","55cb79e0fdf99b3c26ae4bca","64dbc2dd29bf075cd8f3c6f7","","","","","2478",""," ","key"," ","16.896048275862242","500","250","br","-7","1","-17","-20","-19","229"
"","psychophysics","152","813414","0.0-152.0","55cb79e0fdf99b3c26ae4bca","64dbc2dd29bf075cd8f3c6f7","","","","","4165",""," ","key"," ","16.733277108433775","500","250","br","-21","1","-11","-18","24","249"
"","psychophysics","153","816799","0.0-153.0","55cb79e0fdf99b3c26ae4bca","64dbc2dd29bf075cd8f3c6f7","","","","","3383",""," ","key"," ","16.917618090452407","500","250","br","-21","1","14","-6","0","224"
"","psychophysics","154","824470","0.0-154.0","55cb79e0fdf99b3c26ae4bca","64dbc2dd29bf075cd8f3c6f7","","","","","7669",""," ","key"," ","17.62638248847921","500","250","br","-16","1","-23","-18","29","234"
"","psychophysics","155","832473","0.0-155.0","55cb79e0fdf99b3c26ae4bca","64dbc2dd29bf075cd8f3c6f7","","","","","null","","null","key","null","17.506859649122863","500","250","br","-12","1","-20","11","-24","205"
"","psychophysics","156","837263","0.0-156.0","55cb79e0fdf99b3c26ae4bca","64dbc2dd29bf075cd8f3c6f7","","","","","4788",""," ","key"," ","16.90219434628974","500","250","br","-16","1","-14","24","13","263"
"","psychophysics","157","840430","0.0-157.0","55cb79e0fdf99b3c26ae4bca","64dbc2dd29bf075cd8f3c6f7","","","","","3164",""," ","key"," ","17.026729729729453","500","250","br","-19","1","-30","19","-11","231"
"","psychophysics","158","845358","0.0-158.0","55cb79e0fdf99b3c26ae4bca","64dbc2dd29bf075cd8f3c6f7","","","","","4926",""," ","key"," ","16.954709342560832","500","250","br","-18","1","8","-1","2","240"
"","psychophysics","159","849310","0.0-159.0","55cb79e0fdf99b3c26ae4bca","64dbc2dd29bf075cd8f3c6f7","","","","","3950",""," ","key"," ","16.880858369099172","500","250","inst","","","","","",""
"","psychophysics","160","856007","0.0-160.0","55cb79e0fdf99b3c26ae4bca","64dbc2dd29bf075cd8f3c6f7","","","","","6693",""," ","key"," ","16.791922110552903","500","250","instPz1","48","2","","","25","50"
"","psychophysics","161","862671","0.0-161.0","55cb79e0fdf99b3c26ae4bca","64dbc2dd29bf075cd8f3c6f7","","","","","6662",""," ","key"," ","17.050884615384543","500","250","instPz2","34","2","","","20","35"
"","psychophysics","162","876520","0.0-162.0","55cb79e0fdf99b3c26ae4bca","64dbc2dd29bf075cd8f3c6f7","","","","","13846",""," ","key"," ","17.31293992490612","500","250","instPz3","76","2","","","30","100"
"","psychophysics","163","884350","0.0-163.0","55cb79e0fdf99b3c26ae4bca","64dbc2dd29bf075cd8f3c6f7","","","","","7828",""," ","key"," ","16.809673118279616","500","250","instPz4","76","2","","","30","100"
"","psychophysics","164","885086","0.0-164.0","55cb79e0fdf99b3c26ae4bca","64dbc2dd29bf075cd8f3c6f7","","","","","735",""," ","key"," ","16.66634883721045","500","250","inst","","","","","",""
"","psychophysics","165","892151","0.0-165.0","55cb79e0fdf99b3c26ae4bca","64dbc2dd29bf075cd8f3c6f7","","","","","7061",""," ","key"," ","17.069861985472162","500","250","pz","21","2","","","42","32"
"","psychophysics","166","896398","0.0-166.0","55cb79e0fdf99b3c26ae4bca","64dbc2dd29bf075cd8f3c6f7","","","","","4245",""," ","key"," ","16.865621513944486","500","250","pz","23","2","","","28","30"
"","psychophysics","167","901894","0.0-167.0","55cb79e0fdf99b3c26ae4bca","64dbc2dd29bf075cd8f3c6f7","","","","","5492",""," ","key"," ","16.768171253822395","500","250","pz","41","2","","","54","58"
"","psychophysics","168","907190","0.0-168.0","55cb79e0fdf99b3c26ae4bca","64dbc2dd29bf075cd8f3c6f7","","","","","5294",""," ","key"," ","17.04383818770218","500","250","pz","21","2","","","41","29"
"","psychophysics","169","911110","0.0-169.0","55cb79e0fdf99b3c26ae4bca","64dbc2dd29bf075cd8f3c6f7","","","","","3919",""," ","key"," ","16.809364806866682","500","250","pz","36","2","","","27","51"
"","psychophysics","170","914078","0.0-170.0","55cb79e0fdf99b3c26ae4bca","64dbc2dd29bf075cd8f3c6f7","","","","","2966",""," ","key"," ","17.05189017341082","500","250","pz","22","2","","","35","25"
"","psychophysics","171","919367","0.0-171.0","55cb79e0fdf99b3c26ae4bca","64dbc2dd29bf075cd8f3c6f7","","","","","5284",""," ","key"," ","17.09925324675308","500","250","pz","24","2","","","52","35"
"","psychophysics","172","924255","0.0-172.0","55cb79e0fdf99b3c26ae4bca","64dbc2dd29bf075cd8f3c6f7","","","","","4886",""," ","key"," ","16.839384083045168","500","250","pz","18","2","","","54","23"
"","psychophysics","173","927903","0.0-173.0","55cb79e0fdf99b3c26ae4bca","64dbc2dd29bf075cd8f3c6f7","","","","","3646",""," ","key"," ","16.898786046511365","500","250","pz","20","2","","","21","28"
"","psychophysics","174","931817","0.0-174.0","55cb79e0fdf99b3c26ae4bca","64dbc2dd29bf075cd8f3c6f7","","","","","3912",""," ","key"," ","16.88281385281357","500","250","pz","22","2","","","38","32"
"","psychophysics","175","939819","0.0-175.0","55cb79e0fdf99b3c26ae4bca","64dbc2dd29bf075cd8f3c6f7","","","","","null","","null","key","null","17.05804487179495","500","250","pz","29","2","","","54","42"
"","psychophysics","176","945223","0.0-176.0","55cb79e0fdf99b3c26ae4bca","64dbc2dd29bf075cd8f3c6f7","","","","","5403",""," ","key"," ","17.649859016393616","500","250","pz","30","2","","","47","37"
"","psychophysics","177","948814","0.0-177.0","55cb79e0fdf99b3c26ae4bca","64dbc2dd29bf075cd8f3c6f7","","","","","3587",""," ","key"," ","16.822741784037312","500","250","pz","27","2","","","45","42"
"","psychophysics","178","952952","0.0-178.0","55cb79e0fdf99b3c26ae4bca","64dbc2dd29bf075cd8f3c6f7","","","","","4136",""," ","key"," ","17.1544435146444","500","250","pz","31","2","","","41","38"
"","psychophysics","179","957271","0.0-179.0","55cb79e0fdf99b3c26ae4bca","64dbc2dd29bf075cd8f3c6f7","","","","","4315",""," ","key"," ","17.129289682539703","500","250","pz","22","2","","","60","28"
"","psychophysics","180","958086","0.0-180.0","55cb79e0fdf99b3c26ae4bca","64dbc2dd29bf075cd8f3c6f7","","","","","813",""," ","key"," ","17.391413043478362","500","250","inst","","","","","",""
"","psychophysics","181","966271","0.0-181.0","55cb79e0fdf99b3c26ae4bca","64dbc2dd29bf075cd8f3c6f7","","","","","8183",""," ","key"," ","17.0846987447697","500","250","instEB4","54","1","0","0","40","40"
"","psychophysics","182","966982","0.0-182.0","55cb79e0fdf99b3c26ae4bca","64dbc2dd29bf075cd8f3c6f7","","","","","709",""," ","key"," ","16.66633333333413","500","250","inst","","","","","",""
"","psychophysics","183","970015","0.0-183.0","55cb79e0fdf99b3c26ae4bca","64dbc2dd29bf075cd8f3c6f7","","","","","3031",""," ","key"," ","16.66665745856374","500","250","eb","62","1","0","0","51","47"
"","psychophysics","184","974502","0.0-184.0","55cb79e0fdf99b3c26ae4bca","64dbc2dd29bf075cd8f3c6f7","","","","","4484",""," ","key"," ","16.854750943396084","500","250","eb","57","1","0","0","51","45"
"","psychophysics","185","982509","0.0-185.0","55cb79e0fdf99b3c26ae4bca","64dbc2dd29bf075cd8f3c6f7","","","","","null","","null","key","null","16.87773572938688","500","250","eb","54","1","0","0","36","46"
"","psychophysics","186","990515","0.0-186.0","55cb79e0fdf99b3c26ae4bca","64dbc2dd29bf075cd8f3c6f7","","","","","null","","null","key","null","17.816964365255952","500","250","eb","49","1","0","0","48","42"
"","psychophysics","187","997591","0.0-187.0","55cb79e0fdf99b3c26ae4bca","64dbc2dd29bf075cd8f3c6f7","","","","","7072",""," ","key"," ","16.94680528846164","500","250","eb","61","1","0","0","38","54"
"","psychophysics","188","1003462","0.0-188.0","55cb79e0fdf99b3c26ae4bca","64dbc2dd29bf075cd8f3c6f7","","","","","5868",""," ","key"," ","17.305353982300925","500","250","eb","53","1","0","0","54","45"
"","psychophysics","189","1007519","0.0-189.0","55cb79e0fdf99b3c26ae4bca","64dbc2dd29bf075cd8f3c6f7","","","","","4055",""," ","key"," ","16.805229166666685","500","250","eb","42","1","0","0","36","35"
"","psychophysics","190","1015525","0.0-190.0","55cb79e0fdf99b3c26ae4bca","64dbc2dd29bf075cd8f3c6f7","","","","","null","","null","key","null","17.094537473233352","500","250","eb","60","1","0","0","35","52"
"","psychophysics","191","1021750","0.0-191.0","55cb79e0fdf99b3c26ae4bca","64dbc2dd29bf075cd8f3c6f7","","","","","6221",""," ","key"," ","17.268122222222477","500","250","eb","42","1","0","0","53","37"
"","psychophysics","192","1025950","0.0-192.0","55cb79e0fdf99b3c26ae4bca","64dbc2dd29bf075cd8f3c6f7","","","","","4197",""," ","key"," ","16.936255060728765","500","250","eb","31","1","0","0","29","28"
"","psychophysics","193","1030143","0.0-193.0","55cb79e0fdf99b3c26ae4bca","64dbc2dd29bf075cd8f3c6f7","","","","","4191",""," ","key"," ","16.937260162602065","500","250","eb","37","1","0","0","51","33"
"","psychophysics","194","1035729","0.0-194.0","55cb79e0fdf99b3c26ae4bca","64dbc2dd29bf075cd8f3c6f7","","","","","5581",""," ","key"," ","17.557330188679337","500","250","eb","32","1","0","0","48","29"
"","psychophysics","195","1041590","0.0-195.0","55cb79e0fdf99b3c26ae4bca","64dbc2dd29bf075cd8f3c6f7","","","","","5860",""," ","key"," ","17.00648396501437","500","250","eb","51","1","0","0","33","48"
"","psychophysics","196","1044495","0.0-196.0","55cb79e0fdf99b3c26ae4bca","64dbc2dd29bf075cd8f3c6f7","","","","","2903",""," ","key"," ","16.860494186046537","500","250","eb","50","1","0","0","46","47"
"","psychophysics","197","1048870","0.0-197.0","55cb79e0fdf99b3c26ae4bca","64dbc2dd29bf075cd8f3c6f7","","","","","4373",""," ","key"," ","16.925805447470932","500","250","eb","34","1","0","0","45","30"
"","psychophysics","198","1049670","0.0-198.0","55cb79e0fdf99b3c26ae4bca","64dbc2dd29bf075cd8f3c6f7","","","","","799",""," ","key"," ","17.028239130432233","500","250","inst","","","","","",""
"","psychophysics","199","1054774","0.0-199.0","55cb79e0fdf99b3c26ae4bca","64dbc2dd29bf075cd8f3c6f7","","","","","5103",""," ","key"," ","17.589038062283194","500","250","instZol1","0.20000000000000004","","0","0","-1.3",""
"","psychophysics","200","1062743","0.0-200.0","55cb79e0fdf99b3c26ae4bca","64dbc2dd29bf075cd8f3c6f7","","","","","7964",""," ","key"," ","17.28231304347839","500","250","instZol2","0.5000000000000007","1","0","0","2",""
"","psychophysics","201","1063406","0.0-201.0","55cb79e0fdf99b3c26ae4bca","64dbc2dd29bf075cd8f3c6f7","","","","","660",""," ","key"," ","17.105421052632952","500","250","inst","","","","","",""
"","psychophysics","202","1068854","0.0-202.0","55cb79e0fdf99b3c26ae4bca","64dbc2dd29bf075cd8f3c6f7","","","","","5445",""," ","key"," ","16.97879374999975","500","250","zol","1.18","1","26","28","0.52",""
"","psychophysics","203","1073292","0.0-203.0","55cb79e0fdf99b3c26ae4bca","64dbc2dd29bf075cd8f3c6f7","","","","","4435",""," ","key"," ","16.859498069498464","500","250","zol","1.2400000000000002","1","15","12","-0.74",""
"","psychophysics","204","1079454","0.0-204.0","55cb79e0fdf99b3c26ae4bca","64dbc2dd29bf075cd8f3c6f7","","","","","6156",""," ","key"," ","16.986755494505505","500","250","zol","0.74","1","17","12","0.36",""
"","psychophysics","205","1082902","0.0-205.0","55cb79e0fdf99b3c26ae4bca","64dbc2dd29bf075cd8f3c6f7","","","","","3447",""," ","key"," ","16.747721951219777","500","250","zol","0.7399999999999999","1","18","16","-0.24",""
"","psychophysics","206","1090909","0.0-206.0","55cb79e0fdf99b3c26ae4bca","64dbc2dd29bf075cd8f3c6f7","","","","","null","","null","key","null","16.736073221757554","500","250","zol","0.7799999999999999","1","9","-2","0.22",""
"","psychophysics","207","1095110","0.0-207.0","55cb79e0fdf99b3c26ae4bca","64dbc2dd29bf075cd8f3c6f7","","","","","4197",""," ","key"," ","16.733160000000147","500","250","zol","0.3900000000000001","1","11","29","0.41",""
"","psychophysics","208","1098928","0.0-208.0","55cb79e0fdf99b3c26ae4bca","64dbc2dd29bf075cd8f3c6f7","","","","","3813",""," ","key"," ","16.66611403508802","500","250","zol","0.75","1","-30","16","0.45",""
"","psychophysics","209","1103087","0.0-209.0","55cb79e0fdf99b3c26ae4bca","64dbc2dd29bf075cd8f3c6f7","","","","","4156",""," ","key"," ","17.150452282157033","500","250","zol","0.8999999999999999","1","-26","-15","0.6",""
"","psychophysics","210","1105783","0.0-210.0","55cb79e0fdf99b3c26ae4bca","64dbc2dd29bf075cd8f3c6f7","","","","","2692",""," ","key"," ","16.87611949685434","500","250","zol","1.03","1","18","-14","-0.63",""
"","psychophysics","211","1112030","0.0-211.0","55cb79e0fdf99b3c26ae4bca","64dbc2dd29bf075cd8f3c6f7","","","","","6246",""," ","key"," ","17.030612021857678","500","250","zol","0.9299999999999999","1","29","-27","0.57",""
"","psychophysics","212","1115847","0.0-212.0","55cb79e0fdf99b3c26ae4bca","64dbc2dd29bf075cd8f3c6f7","","","","","3814",""," ","key"," ","16.965430493273402","500","250","zol","1.03","1","-4","-24","0.17",""
"","psychophysics","213","1118607","0.0-213.0","55cb79e0fdf99b3c26ae4bca","64dbc2dd29bf075cd8f3c6f7","","","","","2756",""," ","key"," ","17.080509316770545","500","250","zol","0.6699999999999999","1","29","-21","0.53",""
"","psychophysics","214","1123054","0.0-214.0","55cb79e0fdf99b3c26ae4bca","64dbc2dd29bf075cd8f3c6f7","","","","","4430",""," ","key"," ","16.72921886792459","500","250","zol","1.0799999999999998","1","13","30","-0.58",""
"","psychophysics","215","1127422","0.0-215.0","55cb79e0fdf99b3c26ae4bca","64dbc2dd29bf075cd8f3c6f7","","","","","4364",""," ","key"," ","18.049398340249077","500","250","zol","1.4300000000000004","1","16","1","-0.63",""
"","psychophysics","216","1130734","0.0-216.0","55cb79e0fdf99b3c26ae4bca","64dbc2dd29bf075cd8f3c6f7","","","","","3310",""," ","key"," ","16.836443877550867","500","250","zol","1.3300000000000003","1","-8","-15","-0.73",""
