"success","trial_type","trial_index","time_elapsed","internal_node_id","pid","sid","timeout","failed_images","failed_audio","failed_video","rt","stimulus","response","response_type","key_press","avg_frame_time","center_x","center_y","task","resp","version","start","jitterX","jitterY","parA"
"true","fullscreen","0","3797","0.0-0.0","61078342b757ebe17dfbb5ad","64cab22242f37b207914755a","","","","","","","","","","","","","","","","","","",""
"true","preload","1","3938","0.0-1.0","61078342b757ebe17dfbb5ad","64cab22242f37b207914755a","false","[]","[]","[]","","","","","","","","","","","","","","",""
"","html-button-response","2","5773","0.0-2.0","61078342b757ebe17dfbb5ad","64cab22242f37b207914755a","","","","","1832","Please Make Sure Your Audio Is On.","0","","","","","","","","","","","",""
"","psychophysics","3","12418","0.0-3.0","61078342b757ebe17dfbb5ad","64cab22242f37b207914755a","","","","","6595",""," ","key"," ","16.751594458438287","960","250","","","","","","",""
"","psychophysics","4","14481","0.0-4.0","61078342b757ebe17dfbb5ad","64cab22242f37b207914755a","","","","","2060",""," ","key"," ","16.80419672131147","500","250","inst","","","","","",""
"","psychophysics","5","20268","0.0-5.0","61078342b757ebe17dfbb5ad","64cab22242f37b207914755a","","","","","5783",""," ","key"," ","16.66760693641618","500","250","sample0","","","","","",""
"","psychophysics","6","23150","0.0-6.0","61078342b757ebe17dfbb5ad","64cab22242f37b207914755a","","","","","2879",""," ","key"," ","16.667563953488372","500","250","sample1","","","","","",""
"","psychophysics","7","36596","0.0-7.0","61078342b757ebe17dfbb5ad","64cab22242f37b207914755a","","","","","13430",""," ","key"," ","16.667604218362282","500","250","sample2","100","","","","",""
"","psychophysics","8","48611","0.0-8.0","61078342b757ebe17dfbb5ad","64cab22242f37b207914755a","","","","","12012",""," ","key"," ","16.66761474269819","500","250","sample3","100","","","","",""
"","psychophysics","9","56475","0.0-9.0","61078342b757ebe17dfbb5ad","64cab22242f37b207914755a","","","","","7859",""," ","key"," ","16.66760509554139","500","250","sample4","100","","","","",""
"","psychophysics","10","64008","0.0-10.0","61078342b757ebe17dfbb5ad","64cab22242f37b207914755a","","","","","7519",""," ","key"," ","16.667611973392464","500","250","sample5","","","","","",""
"","psychophysics","11","73131","0.0-11.0","61078342b757ebe17dfbb5ad","64cab22242f37b207914755a","","","","","9115",""," ","key"," ","16.667612431444244","500","250","sample6","500","","","","",""
"","psychophysics","12","79582","0.0-12.0","61078342b757ebe17dfbb5ad","64cab22242f37b207914755a","","","","","6448",""," ","key"," ","16.66760621761657","500","250","inst","","","","","",""
"","psychophysics","13","86556","0.0-13.0","61078342b757ebe17dfbb5ad","64cab22242f37b207914755a","","","","","6971",""," ","key"," ","16.667609112709858","500","250","inst","","","","","",""
"","psychophysics","14","90726","0.0-14.0","61078342b757ebe17dfbb5ad","64cab22242f37b207914755a","","","","","4166",""," ","key"," ","16.667654618473893","500","250","inst","","","","","",""
"","psychophysics","15","92321","0.0-15.0","61078342b757ebe17dfbb5ad","64cab22242f37b207914755a","","","","","1592",""," ","key"," ","16.66752631578956","500","250","inst","","","","","",""
"","psychophysics","16","93956","0.0-16.0","61078342b757ebe17dfbb5ad","64cab22242f37b207914755a","","","","","1633",""," ","key"," ","16.667628865979328","500","250","inst","","","","","",""
"","psychophysics","17","105475","0.0-17.0","61078342b757ebe17dfbb5ad","64cab22242f37b207914755a","","","","","11516",""," ","key"," ","16.667597101449285","500","250","instPog0","340","2","370","0","0","340"
"","psychophysics","18","120022","0.0-18.0","61078342b757ebe17dfbb5ad","64cab22242f37b207914755a","","","","","14544",""," ","key"," ","16.686753157290468","500","250","instPog1","370","2","370","0","0","340"
"","psychophysics","19","128919","0.0-19.0","61078342b757ebe17dfbb5ad","64cab22242f37b207914755a","","","","","8895",""," ","key"," ","16.667630393996266","500","250","instPog2","326","2","340","0","0","340"
"","psychophysics","20","131884","0.0-20.0","61078342b757ebe17dfbb5ad","64cab22242f37b207914755a","","","","","2964",""," ","key"," ","16.667556818181765","500","250","inst","","","","","",""
"","psychophysics","21","137826","0.0-21.0","61078342b757ebe17dfbb5ad","64cab22242f37b207914755a","","","","","5934",""," ","key"," ","16.667581460674196","500","250","pog","340","2","322","0","0","372"
"","psychophysics","22","144680","0.0-22.0","61078342b757ebe17dfbb5ad","64cab22242f37b207914755a","","","","","6851",""," ","key"," ","16.667641463414654","500","250","pog","303","2","311","0","0","328"
"","psychophysics","23","150630","0.0-23.0","61078342b757ebe17dfbb5ad","64cab22242f37b207914755a","","","","","5943",""," ","key"," ","16.66760112359558","500","250","pog","289","2","299","0","0","318"
"","psychophysics","24","156346","0.0-24.0","61078342b757ebe17dfbb5ad","64cab22242f37b207914755a","","","","","5710",""," ","key"," ","16.66761695906436","500","250","pog","315","2","373","0","0","341"
"","psychophysics","25","160224","0.0-25.0","61078342b757ebe17dfbb5ad","64cab22242f37b207914755a","","","","","3871",""," ","key"," ","16.667568965517322","500","250","pog","309","2","297","0","0","334"
"","psychophysics","26","168229","0.0-26.0","61078342b757ebe17dfbb5ad","64cab22242f37b207914755a","","","","","null","","null","key","null","16.66763256784969","500","250","pog","328","2","346","0","0","339"
"","psychophysics","27","173672","0.0-27.0","61078342b757ebe17dfbb5ad","64cab22242f37b207914755a","","","","","5441",""," ","key"," ","16.667613496932493","500","250","pog","357","2","393","0","0","372"
"","psychophysics","28","180170","0.0-28.0","61078342b757ebe17dfbb5ad","64cab22242f37b207914755a","","","","","6495",""," ","key"," ","16.6675912596401","500","250","pog","282","2","392","0","0","303"
"","psychophysics","29","185496","0.0-29.0","61078342b757ebe17dfbb5ad","64cab22242f37b207914755a","","","","","5322",""," ","key"," ","16.667641509433956","500","250","pog","349","2","393","0","0","362"
"","psychophysics","30","190886","0.0-30.0","61078342b757ebe17dfbb5ad","64cab22242f37b207914755a","","","","","5388",""," ","key"," ","16.667624223602413","500","250","pog","370","2","304","0","0","378"
"","psychophysics","31","195538","0.0-31.0","61078342b757ebe17dfbb5ad","64cab22242f37b207914755a","","","","","4642",""," ","key"," ","16.667591397849467","500","250","pog","337","2","351","0","0","343"
"","psychophysics","32","199097","0.0-32.0","61078342b757ebe17dfbb5ad","64cab22242f37b207914755a","","","","","3556",""," ","key"," ","16.6676132075471","500","250","pog","341","2","341","0","0","345"
"","psychophysics","33","204115","0.0-33.0","61078342b757ebe17dfbb5ad","64cab22242f37b207914755a","","","","","5016",""," ","key"," ","16.66758666666661","500","250","pog","347","2","313","0","0","354"
"","psychophysics","34","209044","0.0-34.0","61078342b757ebe17dfbb5ad","64cab22242f37b207914755a","","","","","4922",""," ","key"," ","16.667616949152592","500","250","pog","368","2","290","0","0","374"
"","psychophysics","35","214029","0.0-35.0","61078342b757ebe17dfbb5ad","64cab22242f37b207914755a","","","","","4982",""," ","key"," ","16.66761409395971","500","250","pog","331","2","347","0","0","340"
"","psychophysics","36","216113","0.0-36.0","61078342b757ebe17dfbb5ad","64cab22242f37b207914755a","","","","","2082",""," ","key"," ","16.667499999999915","500","250","inst","","","","","",""
"","psychophysics","37","219922","0.0-37.0","61078342b757ebe17dfbb5ad","64cab22242f37b207914755a","","","","","3807",""," ","key"," ","16.667565789473628","500","250","instZol0","0","","0","0","0",""
"","psychophysics","38","241808","0.0-38.0","61078342b757ebe17dfbb5ad","64cab22242f37b207914755a","","","","","21883",""," ","key"," ","16.66761509146341","500","250","instZol1","-2.7755575615628914e-17","","-1.3","0","0",""
"","psychophysics","39","259285","0.0-39.0","61078342b757ebe17dfbb5ad","64cab22242f37b207914755a","","","","","17472",""," ","key"," ","16.667602674307528","500","250","instZol2","2.3000000000000016","1","2","0","0",""
"","psychophysics","40","261249","0.0-40.0","61078342b757ebe17dfbb5ad","64cab22242f37b207914755a","","","","","1961",""," ","key"," ","16.667632478632335","500","250","inst","","","","","",""
"","psychophysics","41","268092","0.0-41.0","61078342b757ebe17dfbb5ad","64cab22242f37b207914755a","","","","","6828",""," ","key"," ","16.667604878048763","500","250","zol","2.040000000000001","1","-0.74","30","-25",""
"","psychophysics","42","273476","0.0-42.0","61078342b757ebe17dfbb5ad","64cab22242f37b207914755a","","","","","5378",""," ","key"," ","16.66762732919244","500","250","zol","1.9200000000000008","1","-0.12","10","0",""
"","psychophysics","43","279971","0.0-43.0","61078342b757ebe17dfbb5ad","64cab22242f37b207914755a","","","","","6492",""," ","key"," ","16.66759536082475","500","250","zol","1.9700000000000006","1","0.53","-12","18",""
"","psychophysics","44","287010","0.0-44.0","61078342b757ebe17dfbb5ad","64cab22242f37b207914755a","","","","","7030",""," ","key"," ","16.667609004739404","500","250","zol","1.9900000000000007","1","0.11","13","12",""
"","psychophysics","45","291860","0.0-45.0","61078342b757ebe17dfbb5ad","64cab22242f37b207914755a","","","","","4842",""," ","key"," ","16.667627586206773","500","250","zol","2.0000000000000004","1","-0.5","4","-28",""
"","psychophysics","46","298482","0.0-46.0","61078342b757ebe17dfbb5ad","64cab22242f37b207914755a","","","","","6618",""," ","key"," ","16.667595959596003","500","250","zol","1.7600000000000005","1","-0.06","21","7",""
"","psychophysics","47","304089","0.0-47.0","61078342b757ebe17dfbb5ad","64cab22242f37b207914755a","","","","","5602",""," ","key"," ","16.66759402985066","500","250","zol","1.9100000000000008","1","0.69","16","28",""
"","psychophysics","48","311959","0.0-48.0","61078342b757ebe17dfbb5ad","64cab22242f37b207914755a","","","","","7858",""," ","key"," ","16.667615711252623","500","250","zol","1.7200000000000006","1","-0.12","15","-22",""
"","psychophysics","49","319965","0.0-49.0","61078342b757ebe17dfbb5ad","64cab22242f37b207914755a","","","","","null","","null","key","null","16.667614583333247","500","250","zol","1.9100000000000006","1","-0.01","-29","-2",""
"","psychophysics","50","323450","0.0-50.0","61078342b757ebe17dfbb5ad","64cab22242f37b207914755a","","","","","3479",""," ","key"," ","16.667610576923135","500","250","zol","1.6800000000000004","1","0.02","-25","7",""
"","psychophysics","51","329274","0.0-51.0","61078342b757ebe17dfbb5ad","64cab22242f37b207914755a","","","","","5819",""," ","key"," ","16.667577586206843","500","250","zol","1.7200000000000006","1","0.18","-10","6",""
"","psychophysics","52","332799","0.0-52.0","61078342b757ebe17dfbb5ad","64cab22242f37b207914755a","","","","","3518",""," ","key"," ","16.66761611374393","500","250","zol","1.9000000000000006","1","-0.3","-26","3",""
"","psychophysics","53","340805","0.0-53.0","61078342b757ebe17dfbb5ad","64cab22242f37b207914755a","","","","","null","","null","key","null","16.66760125260964","500","250","zol","1.6400000000000006","1","-0.74","15","24",""
"","psychophysics","54","344102","0.0-54.0","61078342b757ebe17dfbb5ad","64cab22242f37b207914755a","","","","","3292",""," ","key"," ","16.667680203045663","500","250","zol","1.5200000000000005","1","0.58","-2","-6",""
"","psychophysics","55","348197","0.0-55.0","61078342b757ebe17dfbb5ad","64cab22242f37b207914755a","","","","","4090",""," ","key"," ","16.667620408163426","500","250","zol","2.0000000000000004","1","0.3","9","-20",""
"","psychophysics","56","417150","0.0-56.0","61078342b757ebe17dfbb5ad","64cab22242f37b207914755a","","","","","68951",""," ","key"," ","16.667611124546564","500","250","inst","","","","","",""
"","psychophysics","57","420257","0.0-57.0","61078342b757ebe17dfbb5ad","64cab22242f37b207914755a","","","","","3097",""," ","key"," ","16.667564516128806","500","250","instEB0","40","","40","0","0","40"
"","psychophysics","58","431434","0.0-58.0","61078342b757ebe17dfbb5ad","64cab22242f37b207914755a","","","","","11173",""," ","key"," ","16.6676188340807","500","250","instEB1","71","2","30","0","0","70"
"","psychophysics","59","439488","0.0-59.0","61078342b757ebe17dfbb5ad","64cab22242f37b207914755a","","","","","8048",""," ","key"," ","16.667590062111792","500","250","instEB2","43","2","60","0","0","40"
"","psychophysics","60","449014","0.0-60.0","61078342b757ebe17dfbb5ad","64cab22242f37b207914755a","","","","","9523",""," ","key"," ","16.667603508772007","500","250","instEB3","67","2","45","0","0","65"
"","psychophysics","61","456564","0.0-61.0","61078342b757ebe17dfbb5ad","64cab22242f37b207914755a","","","","","7542",""," ","key"," ","16.667612831858403","500","250","instEB4","48","2","40","0","0","40"
"","psychophysics","62","457687","0.0-62.0","61078342b757ebe17dfbb5ad","64cab22242f37b207914755a","","","","","1116",""," ","key"," ","16.667597014925256","500","250","inst","","","","","",""
"","psychophysics","63","463908","0.0-63.0","61078342b757ebe17dfbb5ad","64cab22242f37b207914755a","","","","","6207",""," ","key"," ","16.667591397849417","500","250","eb","45","2","34","0","0","39"
"","psychophysics","64","466685","0.0-64.0","61078342b757ebe17dfbb5ad","64cab22242f37b207914755a","","","","","2764",""," ","key"," ","16.667593939393885","500","250","eb","35","2","32","0","0","31"
"","psychophysics","65","469823","0.0-65.0","61078342b757ebe17dfbb5ad","64cab22242f37b207914755a","","","","","3131",""," ","key"," ","16.66761702127653","500","250","eb","28","2","33","0","0","25"
"","psychophysics","66","474796","0.0-66.0","61078342b757ebe17dfbb5ad","64cab22242f37b207914755a","","","","","4970",""," ","key"," ","16.667592592592673","500","250","eb","29","2","43","0","0","24"
"","psychophysics","67","478330","0.0-67.0","61078342b757ebe17dfbb5ad","64cab22242f37b207914755a","","","","","3530",""," ","key"," ","16.667578199052116","500","250","eb","42","2","43","0","0","37"
"","psychophysics","68","481493","0.0-68.0","61078342b757ebe17dfbb5ad","64cab22242f37b207914755a","","","","","3160",""," ","key"," ","16.667603174603308","500","250","eb","54","2","49","0","0","47"
"","psychophysics","69","486656","0.0-69.0","61078342b757ebe17dfbb5ad","64cab22242f37b207914755a","","","","","5160",""," ","key"," ","16.667634304207116","500","250","eb","26","2","34","0","0","26"
"","psychophysics","70","491246","0.0-70.0","61078342b757ebe17dfbb5ad","64cab22242f37b207914755a","","","","","4587",""," ","key"," ","16.667587591240856","500","250","eb","40","2","52","0","0","32"
"","psychophysics","71","495349","0.0-71.0","61078342b757ebe17dfbb5ad","64cab22242f37b207914755a","","","","","4099",""," ","key"," ","16.66760408163251","500","250","eb","55","2","47","0","0","48"
"","psychophysics","72","500499","0.0-72.0","61078342b757ebe17dfbb5ad","64cab22242f37b207914755a","","","","","5141",""," ","key"," ","16.66760714285721","500","250","eb","31","2","49","0","0","29"
"","psychophysics","73","506395","0.0-73.0","61078342b757ebe17dfbb5ad","64cab22242f37b207914755a","","","","","5886",""," ","key"," ","16.66762039660052","500","250","eb","55","2","27","0","0","49"
"","psychophysics","74","510424","0.0-74.0","61078342b757ebe17dfbb5ad","64cab22242f37b207914755a","","","","","4025",""," ","key"," ","16.66763070539409","500","250","eb","48","2","27","0","0","38"
"","psychophysics","75","514469","0.0-75.0","61078342b757ebe17dfbb5ad","64cab22242f37b207914755a","","","","","4039",""," ","key"," ","16.667668049792514","500","250","eb","49","2","24","0","0","45"
"","psychophysics","76","519077","0.0-76.0","61078342b757ebe17dfbb5ad","64cab22242f37b207914755a","","","","","4602",""," ","key"," ","16.667557971014435","500","250","eb","27","2","51","0","0","26"
"","psychophysics","77","524475","0.0-77.0","61078342b757ebe17dfbb5ad","64cab22242f37b207914755a","","","","","5394",""," ","key"," ","16.667628482972226","500","250","eb","54","2","26","0","0","47"
"","psychophysics","78","525573","0.0-78.0","61078342b757ebe17dfbb5ad","64cab22242f37b207914755a","","","","","1096",""," ","key"," ","16.66758461538523","500","250","inst","","","","","",""
"","psychophysics","79","527875","0.0-79.0","61078342b757ebe17dfbb5ad","64cab22242f37b207914755a","","","","","2300",""," ","key"," ","16.667540145985253","500","250","instPz0","50","2","50","","","50"
"","psychophysics","80","539422","0.0-80.0","61078342b757ebe17dfbb5ad","64cab22242f37b207914755a","","","","","11544",""," ","key"," ","16.691773913043512","500","250","instPz1","49","2","25","","","50"
"","psychophysics","81","545148","0.0-81.0","61078342b757ebe17dfbb5ad","64cab22242f37b207914755a","","","","","5720",""," ","key"," ","16.667612244897732","500","250","instPz2","29","2","15","","","25"
"","psychophysics","82","551073","0.0-82.0","61078342b757ebe17dfbb5ad","64cab22242f37b207914755a","","","","","5919",""," ","key"," ","16.667590395480033","500","250","instPz3","42","2","25","","","50"
"","psychophysics","83","558661","0.0-83.0","61078342b757ebe17dfbb5ad","64cab22242f37b207914755a","","","","","7577",""," ","key"," ","16.667621978022066","500","250","instPz4","31","2","15","","","30"
"","psychophysics","84","559975","0.0-84.0","61078342b757ebe17dfbb5ad","64cab22242f37b207914755a","","","","","1312",""," ","key"," ","16.66774025974136","500","250","inst","","","","","",""
"","psychophysics","85","566325","0.0-85.0","61078342b757ebe17dfbb5ad","64cab22242f37b207914755a","","","","","6345",""," ","key"," ","16.667608923884657","500","250","pz","60","2","32","","","60"
"","psychophysics","86","569753","0.0-86.0","61078342b757ebe17dfbb5ad","64cab22242f37b207914755a","","","","","3425",""," ","key"," ","16.66763725490241","500","250","pz","55","2","40","","","49"
"","psychophysics","87","573985","0.0-87.0","61078342b757ebe17dfbb5ad","64cab22242f37b207914755a","","","","","4225",""," ","key"," ","16.667608695651825","500","250","pz","41","2","22","","","40"
"","psychophysics","88","578659","0.0-88.0","61078342b757ebe17dfbb5ad","64cab22242f37b207914755a","","","","","4668",""," ","key"," ","16.667577060931745","500","250","pz","19","2","56","","","24"
"","psychophysics","89","581620","0.0-89.0","61078342b757ebe17dfbb5ad","64cab22242f37b207914755a","","","","","2955",""," ","key"," ","16.667621468926523","500","250","pz","37","2","39","","","42"
"","psychophysics","90","585897","0.0-90.0","61078342b757ebe17dfbb5ad","64cab22242f37b207914755a","","","","","4268",""," ","key"," ","16.667609374999756","500","250","pz","40","2","20","","","41"
"","psychophysics","91","589655","0.0-91.0","61078342b757ebe17dfbb5ad","64cab22242f37b207914755a","","","","","3754",""," ","key"," ","16.667647321428895","500","250","pz","19","2","25","","","20"
"","psychophysics","92","594294","0.0-92.0","61078342b757ebe17dfbb5ad","64cab22242f37b207914755a","","","","","4632",""," ","key"," ","16.72778700361035","500","250","pz","29","2","39","","","29"
"","psychophysics","93","599090","0.0-93.0","61078342b757ebe17dfbb5ad","64cab22242f37b207914755a","","","","","4793",""," ","key"," ","16.667580419580265","500","250","pz","48","2","50","","","54"
"","psychophysics","94","603230","0.0-94.0","61078342b757ebe17dfbb5ad","64cab22242f37b207914755a","","","","","4133",""," ","key"," ","16.667580645161046","500","250","pz","56","2","31","","","60"
"","psychophysics","95","606064","0.0-95.0","61078342b757ebe17dfbb5ad","64cab22242f37b207914755a","","","","","2828",""," ","key"," ","16.66762721893507","500","250","pz","52","2","44","","","57"
"","psychophysics","96","610731","0.0-96.0","61078342b757ebe17dfbb5ad","64cab22242f37b207914755a","","","","","4664",""," ","key"," ","16.667612903225685","500","250","pz","26","2","42","","","26"
"","psychophysics","97","614984","0.0-97.0","61078342b757ebe17dfbb5ad","64cab22242f37b207914755a","","","","","4249",""," ","key"," ","16.667614173227975","500","250","pz","43","2","50","","","54"
"","psychophysics","98","617888","0.0-98.0","61078342b757ebe17dfbb5ad","64cab22242f37b207914755a","","","","","2900",""," ","key"," ","16.667583815029396","500","250","pz","26","2","29","","","34"
"","psychophysics","99","623557","0.0-99.0","61078342b757ebe17dfbb5ad","64cab22242f37b207914755a","","","","","5666",""," ","key"," ","16.66759292035402","500","250","pz","33","2","53","","","31"
"","psychophysics","100","624873","0.0-100.0","61078342b757ebe17dfbb5ad","64cab22242f37b207914755a","","","","","1311",""," ","key"," ","16.667615384615672","500","250","inst","","","","","",""
"","psychophysics","101","631485","0.0-101.0","61078342b757ebe17dfbb5ad","64cab22242f37b207914755a","","","","","6602",""," ","key"," ","16.667601010101","500","250","instBr0","NaN","","0","0","0","300"
"","psychophysics","102","670285","0.0-102.0","61078342b757ebe17dfbb5ad","64cab22242f37b207914755a","","","","","38797",""," ","key"," ","16.667608079071755","500","250","instBr1","NaN","","-40","0","0","300"
"","psychophysics","103","685328","0.0-103.0","61078342b757ebe17dfbb5ad","64cab22242f37b207914755a","","","","","15040",""," ","key"," ","16.667611542730214","500","250","instBr","28","2","40","0","0","300"
"","psychophysics","104","686375","0.0-104.0","61078342b757ebe17dfbb5ad","64cab22242f37b207914755a","","","","","1042",""," ","key"," ","16.667645161289858","500","250","inst","","","","","",""
"","psychophysics","105","691327","0.0-105.0","61078342b757ebe17dfbb5ad","64cab22242f37b207914755a","","","","","4949",""," ","key"," ","16.667587837837935","500","250","br","20","2","-8","26","-14","228"
"","psychophysics","106","698440","0.0-106.0","61078342b757ebe17dfbb5ad","64cab22242f37b207914755a","","","","","7108",""," ","key"," ","16.667617370892085","500","250","br","29","2","-36","17","-10","274"
"","psychophysics","107","703061","0.0-107.0","61078342b757ebe17dfbb5ad","64cab22242f37b207914755a","","","","","4617",""," ","key"," ","16.66755797101465","500","250","br","28","2","-9","30","-13","296"
"","psychophysics","108","711067","0.0-108.0","61078342b757ebe17dfbb5ad","64cab22242f37b207914755a","","","","","null","","null","key","null","16.667606250000002","500","250","br","24","2","-38","-8","-7","224"
"","psychophysics","109","711199","0.0-109.0","61078342b757ebe17dfbb5ad","64cab22242f37b207914755a","","","","","127",""," ","key"," ","16.668333333334886","500","250","br","34","2","34","-9","23","295"
"","psychophysics","110","718891","0.0-110.0","61078342b757ebe17dfbb5ad","64cab22242f37b207914755a","","","","","7686",""," ","key"," ","16.667598698481637","500","250","br","24","2","-49","-7","27","280"
"","psychophysics","111","722012","0.0-111.0","61078342b757ebe17dfbb5ad","64cab22242f37b207914755a","","","","","3116",""," ","key"," ","16.66760215053763","500","250","br","20","2","37","15","5","248"
"","psychophysics","112","727254","0.0-112.0","61078342b757ebe17dfbb5ad","64cab22242f37b207914755a","","","","","5234",""," ","key"," ","16.667611464968168","500","250","br","25","2","-23","1","2","200"
"","psychophysics","113","730201","0.0-113.0","61078342b757ebe17dfbb5ad","64cab22242f37b207914755a","","","","","2944",""," ","key"," ","16.66763636363612","500","250","br","26","2","35","3","0","289"
"","psychophysics","114","738221","0.0-114.0","61078342b757ebe17dfbb5ad","64cab22242f37b207914755a","","","","","null","","null","key","null","16.66760416666657","500","250","br","24","2","5","4","-6","202"
"","psychophysics","115","744690","0.0-115.0","61078342b757ebe17dfbb5ad","64cab22242f37b207914755a","","","","","6458",""," ","key"," ","16.667612403100875","500","250","br","21","2","-16","-10","19","235"
"","psychophysics","116","748017","0.0-116.0","61078342b757ebe17dfbb5ad","64cab22242f37b207914755a","","","","","3324",""," ","key"," ","16.66761616161599","500","250","br","24","2","9","22","3","284"
"","psychophysics","117","752648","0.0-117.0","61078342b757ebe17dfbb5ad","64cab22242f37b207914755a","","","","","4626",""," ","key"," ","16.667628158845044","500","250","br","21","2","19","18","23","225"
"","psychophysics","118","756638","0.0-118.0","61078342b757ebe17dfbb5ad","64cab22242f37b207914755a","","","","","3983",""," ","key"," ","16.667606694560504","500","250","br","18","2","4","-16","-25","213"
"","psychophysics","119","762295","0.0-119.0","61078342b757ebe17dfbb5ad","64cab22242f37b207914755a","","","","","5645",""," ","key"," ","16.66759763313623","500","250","br","24","2","45","-7","12","217"
"","psychophysics","120","763375","0.0-120.0","61078342b757ebe17dfbb5ad","64cab22242f37b207914755a","","","","","1078",""," ","key"," ","16.667640624998967","500","250","inst","","","","","",""
"","psychophysics","121","773993","0.0-121.0","61078342b757ebe17dfbb5ad","64cab22242f37b207914755a","","","","","10615",""," ","key"," ","16.667599056603763","500","250","instPz4","-17","1","15","","","30"
"","psychophysics","122","775082","0.0-122.0","61078342b757ebe17dfbb5ad","64cab22242f37b207914755a","","","","","1086",""," ","key"," ","16.667687499999374","500","250","inst","","","","","",""
"","psychophysics","123","783087","0.0-123.0","61078342b757ebe17dfbb5ad","64cab22242f37b207914755a","","","","","null","","null","key","null","16.667608333333433","500","250","pz","-5","1","29","","","40"
"","psychophysics","124","787328","0.0-124.0","61078342b757ebe17dfbb5ad","64cab22242f37b207914755a","","","","","4238",""," ","key"," ","16.73374999999965","500","250","pz","58","1","21","","","57"
"","psychophysics","125","788212","0.0-125.0","61078342b757ebe17dfbb5ad","64cab22242f37b207914755a","","","","","879",""," ","key"," ","16.667673076923865","500","250","pz","50","1","50","","","58"
"","psychophysics","126","791727","0.0-126.0","61078342b757ebe17dfbb5ad","64cab22242f37b207914755a","","","","","3494",""," ","key"," ","16.667604761904418","500","250","pz","64","1","43","","","55"
"","psychophysics","127","794922","0.0-127.0","61078342b757ebe17dfbb5ad","64cab22242f37b207914755a","","","","","3191",""," ","key"," ","16.66762827225127","500","250","pz","33","1","45","","","28"
"","psychophysics","128","799480","0.0-128.0","61078342b757ebe17dfbb5ad","64cab22242f37b207914755a","","","","","4555",""," ","key"," ","16.667636029412012","500","250","pz","57","1","42","","","45"
"","psychophysics","129","802263","0.0-129.0","61078342b757ebe17dfbb5ad","64cab22242f37b207914755a","","","","","2780",""," ","key"," ","16.667548192771577","500","250","pz","43","1","39","","","43"
"","psychophysics","130","805948","0.0-130.0","61078342b757ebe17dfbb5ad","64cab22242f37b207914755a","","","","","3682",""," ","key"," ","16.66764090909062","500","250","pz","23","1","38","","","23"
"","psychophysics","131","810783","0.0-131.0","61078342b757ebe17dfbb5ad","64cab22242f37b207914755a","","","","","4831",""," ","key"," ","16.66761591695499","500","250","pz","54","1","28","","","48"
"","psychophysics","132","817037","0.0-132.0","61078342b757ebe17dfbb5ad","64cab22242f37b207914755a","","","","","6248",""," ","key"," ","16.667612299465333","500","250","pz","26","1","59","","","25"
"","psychophysics","133","822840","0.0-133.0","61078342b757ebe17dfbb5ad","64cab22242f37b207914755a","","","","","5795",""," ","key"," ","16.667612068965596","500","250","pz","60","1","30","","","49"
"","psychophysics","134","827299","0.0-134.0","61078342b757ebe17dfbb5ad","64cab22242f37b207914755a","","","","","4455",""," ","key"," ","16.66760902255651","500","250","pz","66","1","30","","","49"
"","psychophysics","135","832009","0.0-135.0","61078342b757ebe17dfbb5ad","64cab22242f37b207914755a","","","","","4701",""," ","key"," ","16.667585106382845","500","250","pz","35","1","60","","","32"
"","psychophysics","136","835390","0.0-136.0","61078342b757ebe17dfbb5ad","64cab22242f37b207914755a","","","","","3377",""," ","key"," ","16.667559405940928","500","250","pz","56","1","38","","","40"
"","psychophysics","137","839042","0.0-137.0","61078342b757ebe17dfbb5ad","64cab22242f37b207914755a","","","","","3648",""," ","key"," ","16.66765596330275","500","250","pz","51","1","27","","","44"
"","psychophysics","138","851170","0.0-138.0","61078342b757ebe17dfbb5ad","64cab22242f37b207914755a","","","","","12126",""," ","key"," ","16.667604683195567","500","250","inst","","","","","",""
"","psychophysics","139","872183","0.0-139.0","61078342b757ebe17dfbb5ad","64cab22242f37b207914755a","","","","","21005",""," ","key"," ","16.667603968253953","500","250","instPog0","160","1","190","0","0","160"
"","psychophysics","140","878049","0.0-140.0","61078342b757ebe17dfbb5ad","64cab22242f37b207914755a","","","","","5863",""," ","key"," ","16.667641025641203","500","250","instPog1","172","1","190","0","0","160"
"","psychophysics","141","882424","0.0-141.0","61078342b757ebe17dfbb5ad","64cab22242f37b207914755a","","","","","4373",""," ","key"," ","16.667590038314323","500","250","instPog2","184","1","160","0","0","160"
"","psychophysics","142","883435","0.0-142.0","61078342b757ebe17dfbb5ad","64cab22242f37b207914755a","","","","","1007",""," ","key"," ","16.667666666665657","500","250","inst","","","","","",""
"","psychophysics","143","887288","0.0-143.0","61078342b757ebe17dfbb5ad","64cab22242f37b207914755a","","","","","3849",""," ","key"," ","16.667560869565172","500","250","pog","164","1","182","0","0","133"
"","psychophysics","144","890959","0.0-144.0","61078342b757ebe17dfbb5ad","64cab22242f37b207914755a","","","","","3663",""," ","key"," ","16.667621004566353","500","250","pog","195","1","179","0","0","164"
"","psychophysics","145","895259","0.0-145.0","61078342b757ebe17dfbb5ad","64cab22242f37b207914755a","","","","","4296",""," ","key"," ","16.667575875486534","500","250","pog","170","1","122","0","0","146"
"","psychophysics","146","897804","0.0-146.0","61078342b757ebe17dfbb5ad","64cab22242f37b207914755a","","","","","2539",""," ","key"," ","16.667677631578716","500","250","pog","155","1","169","0","0","135"
"","psychophysics","147","902166","0.0-147.0","61078342b757ebe17dfbb5ad","64cab22242f37b207914755a","","","","","4360",""," ","key"," ","16.667605363984656","500","250","pog","215","1","139","0","0","184"
"","psychophysics","148","907222","0.0-148.0","61078342b757ebe17dfbb5ad","64cab22242f37b207914755a","","","","","5052",""," ","key"," ","16.66762913907269","500","250","pog","206","1","164","0","0","182"
"","psychophysics","149","910948","0.0-149.0","61078342b757ebe17dfbb5ad","64cab22242f37b207914755a","","","","","3717",""," ","key"," ","16.66756950672601","500","250","pog","228","1","194","0","0","198"
"","psychophysics","150","915847","0.0-150.0","61078342b757ebe17dfbb5ad","64cab22242f37b207914755a","","","","","4896",""," ","key"," ","16.667604095563167","500","250","pog","221","1","125","0","0","196"
"","psychophysics","151","921733","0.0-151.0","61078342b757ebe17dfbb5ad","64cab22242f37b207914755a","","","","","5883",""," ","key"," ","16.667622159090982","500","250","pog","149","1","189","0","0","121"
"","psychophysics","152","922917","0.0-152.0","61078342b757ebe17dfbb5ad","64cab22242f37b207914755a","","","","","1181",""," ","key"," ","16.667642857142656","500","250","pog","184","1","184","0","0","157"
"","psychophysics","153","926524","0.0-153.0","61078342b757ebe17dfbb5ad","64cab22242f37b207914755a","","","","","3604",""," ","key"," ","16.66759534883746","500","250","pog","216","1","166","0","0","195"
"","psychophysics","154","929750","0.0-154.0","61078342b757ebe17dfbb5ad","64cab22242f37b207914755a","","","","","3218",""," ","key"," ","16.667575129534","500","250","pog","159","1","115","0","0","134"
"","psychophysics","155","932904","0.0-155.0","61078342b757ebe17dfbb5ad","64cab22242f37b207914755a","","","","","3152",""," ","key"," ","16.667648936169808","500","250","pog","183","1","143","0","0","155"
"","psychophysics","156","935303","0.0-156.0","61078342b757ebe17dfbb5ad","64cab22242f37b207914755a","","","","","2396",""," ","key"," ","16.667636363636017","500","250","pog","152","1","136","0","0","126"
"","psychophysics","157","938197","0.0-157.0","61078342b757ebe17dfbb5ad","64cab22242f37b207914755a","","","","","2890",""," ","key"," ","16.667554913295266","500","250","pog","189","1","219","0","0","171"
"","psychophysics","158","976093","0.0-158.0","61078342b757ebe17dfbb5ad","64cab22242f37b207914755a","","","","","37895",""," ","key"," ","16.667610475352106","500","250","inst","","","","","",""
"","psychophysics","159","980951","0.0-159.0","61078342b757ebe17dfbb5ad","64cab22242f37b207914755a","","","","","4852",""," ","key"," ","16.667587628866116","500","250","instBr","-5","1","40","0","0","300"
"","psychophysics","160","981824","0.0-160.0","61078342b757ebe17dfbb5ad","64cab22242f37b207914755a","","","","","871",""," ","key"," ","16.66766666666623","500","250","inst","","","","","",""
"","psychophysics","161","984168","0.0-161.0","61078342b757ebe17dfbb5ad","64cab22242f37b207914755a","","","","","2341",""," ","key"," ","16.667542857142898","500","250","br","-11","1","2","2","-16","274"
"","psychophysics","162","987874","0.0-162.0","61078342b757ebe17dfbb5ad","64cab22242f37b207914755a","","","","","3703",""," ","key"," ","16.66763800905008","500","250","br","-11","1","-10","15","28","221"
"","psychophysics","163","992445","0.0-163.0","61078342b757ebe17dfbb5ad","64cab22242f37b207914755a","","","","","4567",""," ","key"," ","16.667608058607996","500","250","br","2","1","41","-21","-12","260"
"","psychophysics","164","996054","0.0-164.0","61078342b757ebe17dfbb5ad","64cab22242f37b207914755a","","","","","3603",""," ","key"," ","16.667592592592914","500","250","br","-13","1","1","-3","-15","225"
"","psychophysics","165","998475","0.0-165.0","61078342b757ebe17dfbb5ad","64cab22242f37b207914755a","","","","","2406",""," ","key"," ","16.667611111111505","500","250","br","-8","1","4","-21","18","267"
"","psychophysics","166","1003227","0.0-166.0","61078342b757ebe17dfbb5ad","64cab22242f37b207914755a","","","","","4750",""," ","key"," ","16.66760211267581","500","250","br","-6","1","50","13","-27","272"
"","psychophysics","167","1006818","0.0-167.0","61078342b757ebe17dfbb5ad","64cab22242f37b207914755a","","","","","3588",""," ","key"," ","16.667623255813904","500","250","br","-13","1","-21","-19","-10","259"
"","psychophysics","168","1009852","0.0-168.0","61078342b757ebe17dfbb5ad","64cab22242f37b207914755a","","","","","3031",""," ","key"," ","16.667635359116368","500","250","br","-13","1","-22","13","0","273"
"","psychophysics","169","1013634","0.0-169.0","61078342b757ebe17dfbb5ad","64cab22242f37b207914755a","","","","","3780",""," ","key"," ","16.667553097344996","500","250","br","-5","1","22","-16","11","232"
"","psychophysics","170","1016370","0.0-170.0","61078342b757ebe17dfbb5ad","64cab22242f37b207914755a","","","","","2733",""," ","key"," ","16.6676748466258","500","250","br","-10","1","-13","27","-7","279"
"","psychophysics","171","1019206","0.0-171.0","61078342b757ebe17dfbb5ad","64cab22242f37b207914755a","","","","","2833",""," ","key"," ","16.667644970414514","500","250","br","-6","1","13","-23","11","280"
"","psychophysics","172","1023368","0.0-172.0","61078342b757ebe17dfbb5ad","64cab22242f37b207914755a","","","","","4159",""," ","key"," ","16.667598393574135","500","250","br","-4","1","17","-3","-15","248"
"","psychophysics","173","1026596","0.0-173.0","61078342b757ebe17dfbb5ad","64cab22242f37b207914755a","","","","","3210",""," ","key"," ","16.667583333333216","500","250","br","-2","1","33","-20","-30","210"
"","psychophysics","174","1033170","0.0-174.0","61078342b757ebe17dfbb5ad","64cab22242f37b207914755a","","","","","6568",""," ","key"," ","16.667609137055987","500","250","br","-12","1","-37","-22","6","288"
"","psychophysics","175","1036448","0.0-175.0","61078342b757ebe17dfbb5ad","64cab22242f37b207914755a","","","","","3275",""," ","key"," ","16.66759487179478","500","250","br","-10","1","-12","24","-9","234"
"","psychophysics","176","1037610","0.0-176.0","61078342b757ebe17dfbb5ad","64cab22242f37b207914755a","","","","","1157",""," ","key"," ","16.667521739130557","500","250","inst","","","","","",""
"","psychophysics","177","1046821","0.0-177.0","61078342b757ebe17dfbb5ad","64cab22242f37b207914755a","","","","","9209",""," ","key"," ","16.667596014492606","500","250","instEB4","50","1","40","0","0","40"
"","psychophysics","178","1047797","0.0-178.0","61078342b757ebe17dfbb5ad","64cab22242f37b207914755a","","","","","973",""," ","key"," ","16.6675263157915","500","250","inst","","","","","",""
"","psychophysics","179","1051746","0.0-179.0","61078342b757ebe17dfbb5ad","64cab22242f37b207914755a","","","","","3942",""," ","key"," ","16.667614406779787","500","250","eb","58","1","25","0","0","50"
"","psychophysics","180","1055514","0.0-180.0","61078342b757ebe17dfbb5ad","64cab22242f37b207914755a","","","","","3764",""," ","key"," ","16.667626666666735","500","250","eb","33","1","48","0","0","28"
"","psychophysics","181","1058771","0.0-181.0","61078342b757ebe17dfbb5ad","64cab22242f37b207914755a","","","","","3244",""," ","key"," ","16.667589743590604","500","250","eb","40","1","36","0","0","32"
"","psychophysics","182","1062861","0.0-182.0","61078342b757ebe17dfbb5ad","64cab22242f37b207914755a","","","","","4086",""," ","key"," ","16.667627049180616","500","250","eb","50","1","30","0","0","45"
"","psychophysics","183","1066748","0.0-183.0","61078342b757ebe17dfbb5ad","64cab22242f37b207914755a","","","","","3884",""," ","key"," ","16.667556034483354","500","250","eb","36","1","26","0","0","30"
"","psychophysics","184","1070148","0.0-184.0","61078342b757ebe17dfbb5ad","64cab22242f37b207914755a","","","","","3392",""," ","key"," ","16.667610837437966","500","250","eb","40","1","31","0","0","30"
"","psychophysics","185","1074299","0.0-185.0","61078342b757ebe17dfbb5ad","64cab22242f37b207914755a","","","","","4143",""," ","key"," ","16.6675967741936","500","250","eb","45","1","27","0","0","36"
"","psychophysics","186","1076956","0.0-186.0","61078342b757ebe17dfbb5ad","64cab22242f37b207914755a","","","","","2649",""," ","key"," ","16.667572327044574","500","250","eb","41","1","44","0","0","37"
"","psychophysics","187","1081053","0.0-187.0","61078342b757ebe17dfbb5ad","64cab22242f37b207914755a","","","","","4091",""," ","key"," ","16.667577868852323","500","250","eb","54","1","50","0","0","46"
"","psychophysics","188","1084873","0.0-188.0","61078342b757ebe17dfbb5ad","64cab22242f37b207914755a","","","","","3811",""," ","key"," ","16.667580786026917","500","250","eb","40","1","43","0","0","31"
"","psychophysics","189","1088901","0.0-189.0","61078342b757ebe17dfbb5ad","64cab22242f37b207914755a","","","","","4008",""," ","key"," ","16.667604166667054","500","250","eb","58","1","47","0","0","48"
"","psychophysics","190","1096030","0.0-190.0","61078342b757ebe17dfbb5ad","64cab22242f37b207914755a","","","","","7120",""," ","key"," ","16.667604215456766","500","250","eb","53","1","53","0","0","47"
"","psychophysics","191","1102841","0.0-191.0","61078342b757ebe17dfbb5ad","64cab22242f37b207914755a","","","","","6808",""," ","key"," ","16.667627450980373","500","250","eb","32","1","26","0","0","27"
"","psychophysics","192","1106202","0.0-192.0","61078342b757ebe17dfbb5ad","64cab22242f37b207914755a","","","","","3358",""," ","key"," ","16.667654999999794","500","250","eb","53","1","41","0","0","50"
"","psychophysics","193","1110860","0.0-193.0","61078342b757ebe17dfbb5ad","64cab22242f37b207914755a","","","","","4650",""," ","key"," ","16.727568345323622","500","250","eb","29","1","29","0","0","25"
"","psychophysics","194","1138545","0.0-194.0","61078342b757ebe17dfbb5ad","64cab22242f37b207914755a","","","","","27683",""," ","key"," ","16.667609638554122","500","250","inst","","","","","",""
"","psychophysics","195","1143358","0.0-195.0","61078342b757ebe17dfbb5ad","64cab22242f37b207914755a","","","","","4808",""," ","key"," ","16.66763194444502","500","250","instZol2","-1.7999999999999998","2","2","0","0",""
"","psychophysics","196","1144153","0.0-196.0","61078342b757ebe17dfbb5ad","64cab22242f37b207914755a","","","","","793",""," ","key"," ","16.667413043480813","500","250","inst","","","","","",""
"","psychophysics","197","1150989","0.0-197.0","61078342b757ebe17dfbb5ad","64cab22242f37b207914755a","","","","","6826",""," ","key"," ","16.66762102689494","500","250","zol","-2.0200000000000005","2","-0.68","16","-8",""
"","psychophysics","198","1158400","0.0-198.0","61078342b757ebe17dfbb5ad","64cab22242f37b207914755a","","","","","7404",""," ","key"," ","16.66759459459462","500","250","zol","-2.020000000000001","2","0.22","27","30",""
"","psychophysics","199","1162009","0.0-199.0","61078342b757ebe17dfbb5ad","64cab22242f37b207914755a","","","","","3604",""," ","key"," ","16.667634259259405","500","250","zol","-2.0000000000000004","2","0.3","-12","-18",""
"","psychophysics","200","1167087","0.0-200.0","61078342b757ebe17dfbb5ad","64cab22242f37b207914755a","","","","","5074",""," ","key"," ","16.667646864686535","500","250","zol","-1.7200000000000006","2","-0.18","14","30",""
"","psychophysics","201","1173789","0.0-201.0","61078342b757ebe17dfbb5ad","64cab22242f37b207914755a","","","","","6681",""," ","key"," ","16.66759850374049","500","250","zol","-2.0600000000000005","2","-0.54","-27","4",""
"","psychophysics","202","1177253","0.0-202.0","61078342b757ebe17dfbb5ad","64cab22242f37b207914755a","","","","","3455",""," ","key"," ","16.667599033817407","500","250","zol","-2.1100000000000008","2","0.71","-3","-29",""
"","psychophysics","203","1180005","0.0-203.0","61078342b757ebe17dfbb5ad","64cab22242f37b207914755a","","","","","2742",""," ","key"," ","16.667621951219456","500","250","zol","-1.6300000000000006","2","0.23","26","9",""
"","psychophysics","204","1188012","0.0-204.0","61078342b757ebe17dfbb5ad","64cab22242f37b207914755a","","","","","null","","null","key","null","16.66760624999976","500","250","zol","2.250000000000001","2","-0.55","-30","28",""
"","psychophysics","205","1193182","0.0-205.0","61078342b757ebe17dfbb5ad","64cab22242f37b207914755a","","","","","5164",""," ","key"," ","16.667611650485863","500","250","zol","-1.6900000000000004","2","-0.21","-16","14",""
"","psychophysics","206","1197481","0.0-206.0","61078342b757ebe17dfbb5ad","64cab22242f37b207914755a","","","","","4295",""," ","key"," ","16.667571984435313","500","250","zol","-2.0700000000000007","2","-0.23","4","20",""
"","psychophysics","207","1200859","0.0-207.0","61078342b757ebe17dfbb5ad","64cab22242f37b207914755a","","","","","3373",""," ","key"," ","16.667626865671494","500","250","zol","-2.250000000000001","2","0.75","-28","-14",""
"","psychophysics","208","1204754","0.0-208.0","61078342b757ebe17dfbb5ad","64cab22242f37b207914755a","","","","","3888",""," ","key"," ","16.667579399141015","500","250","zol","-1.5000000000000002","2","-0.6","9","-20",""
"","psychophysics","209","1208898","0.0-209.0","61078342b757ebe17dfbb5ad","64cab22242f37b207914755a","","","","","4136",""," ","key"," ","16.66756451612849","500","250","zol","-1.7800000000000005","2","0.18","-23","30",""
"","psychophysics","210","1212713","0.0-210.0","61078342b757ebe17dfbb5ad","64cab22242f37b207914755a","","","","","3810",""," ","key"," ","16.667618421053415","500","250","zol","-1.8500000000000008","2","-0.45","2","-14",""
"","psychophysics","211","1217913","0.0-211.0","61078342b757ebe17dfbb5ad","64cab22242f37b207914755a","","","","","5183",""," ","key"," ","16.667581993569186","500","250","zol","-1.4300000000000004","2","-0.07","10","18",""
