"success","trial_type","trial_index","time_elapsed","internal_node_id","pid","sid","timeout","failed_images","failed_audio","failed_video","rt","stimulus","response","response_type","key_press","avg_frame_time","center_x","center_y","task","resp","jitterX","jitterY","start","version","parA"
"true","fullscreen","0","4014","0.0-0.0","5f79809ea692be01b666c74a","64cab2dfa779223b1c08e8cd","","","","","","","","","","","","","","","","","","",""
"true","preload","1","4116","0.0-1.0","5f79809ea692be01b666c74a","64cab2dfa779223b1c08e8cd","false","[]","[]","[]","","","","","","","","","","","","","","",""
"","html-button-response","2","5736","0.0-2.0","5f79809ea692be01b666c74a","64cab2dfa779223b1c08e8cd","","","","","1620","Please Make Sure Your Audio Is On.","0","","","","","","","","","","","",""
"","psychophysics","3","11018","0.0-3.0","5f79809ea692be01b666c74a","64cab2dfa779223b1c08e8cd","","","","","5276",""," ","key"," ","16.666958990536276","1280","250","","","","","","",""
"","psychophysics","4","14747","0.0-4.0","5f79809ea692be01b666c74a","64cab2dfa779223b1c08e8cd","","","","","3726",""," ","key"," ","16.66669955156951","500","250","inst","","","","","",""
"","psychophysics","5","20353","0.0-5.0","5f79809ea692be01b666c74a","64cab2dfa779223b1c08e8cd","","","","","5604",""," ","key"," ","16.66672537313433","500","250","sample0","","","","","",""
"","psychophysics","6","23308","0.0-6.0","5f79809ea692be01b666c74a","64cab2dfa779223b1c08e8cd","","","","","2952",""," ","key"," ","16.666255681818196","500","250","sample1","","","","","",""
"","psychophysics","7","35915","0.0-7.0","5f79809ea692be01b666c74a","64cab2dfa779223b1c08e8cd","","","","","12605",""," ","key"," ","16.666678571428573","500","250","sample2","100","","","","",""
"","psychophysics","8","43206","0.0-8.0","5f79809ea692be01b666c74a","64cab2dfa779223b1c08e8cd","","","","","7289",""," ","key"," ","16.6666628440367","500","250","sample3","100","","","","",""
"","psychophysics","9","55253","0.0-9.0","5f79809ea692be01b666c74a","64cab2dfa779223b1c08e8cd","","","","","12045",""," ","key"," ","16.666656509695294","500","250","sample4","100","","","","",""
"","psychophysics","10","60378","0.0-10.0","5f79809ea692be01b666c74a","64cab2dfa779223b1c08e8cd","","","","","5123",""," ","key"," ","16.66690522875816","500","250","sample5","","","","","",""
"","psychophysics","11","68777","0.0-11.0","5f79809ea692be01b666c74a","64cab2dfa779223b1c08e8cd","","","","","8396",""," ","key"," ","16.666524850894636","500","250","sample6","500","","","","",""
"","psychophysics","12","76375","0.0-12.0","5f79809ea692be01b666c74a","64cab2dfa779223b1c08e8cd","","","","","7594",""," ","key"," ","16.666837362637345","500","250","inst","","","","","",""
"","psychophysics","13","82354","0.0-13.0","5f79809ea692be01b666c74a","64cab2dfa779223b1c08e8cd","","","","","5977",""," ","key"," ","16.66648044692739","500","250","inst","","","","","",""
"","psychophysics","14","86528","0.0-14.0","5f79809ea692be01b666c74a","64cab2dfa779223b1c08e8cd","","","","","4172",""," ","key"," ","16.66664658634536","500","250","inst","","","","","",""
"","psychophysics","15","89682","0.0-15.0","5f79809ea692be01b666c74a","64cab2dfa779223b1c08e8cd","","","","","3152",""," ","key"," ","16.666994708994736","500","250","inst","","","","","",""
"","psychophysics","16","92290","0.0-16.0","5f79809ea692be01b666c74a","64cab2dfa779223b1c08e8cd","","","","","2606",""," ","key"," ","16.666232258064536","500","250","inst","","","","","",""
"","psychophysics","17","95832","0.0-17.0","5f79809ea692be01b666c74a","64cab2dfa779223b1c08e8cd","","","","","3540",""," ","key"," ","16.666735849056597","500","250","instZol0","0","0","0","0","",""
"","psychophysics","18","112257","0.0-18.0","5f79809ea692be01b666c74a","64cab2dfa779223b1c08e8cd","","","","","16423",""," ","key"," ","16.66674288617886","500","250","instZol1","2.7755575615628914e-17","0","0","-1.3","",""
"","psychophysics","19","124718","0.0-19.0","5f79809ea692be01b666c74a","64cab2dfa779223b1c08e8cd","","","","","12458",""," ","key"," ","16.666829986613124","500","250","instZol2","0.10000000000000064","0","0","2","1",""
"","psychophysics","20","128637","0.0-20.0","5f79809ea692be01b666c74a","64cab2dfa779223b1c08e8cd","","","","","3917",""," ","key"," ","16.666525641025657","500","250","inst","","","","","",""
"","psychophysics","21","136641","0.0-21.0","5f79809ea692be01b666c74a","64cab2dfa779223b1c08e8cd","","","","","null","","null","key","null","16.6666701461378","500","250","zol","0.48","5","16","-0.58","1",""
"","psychophysics","22","136774","0.0-22.0","5f79809ea692be01b666c74a","64cab2dfa779223b1c08e8cd","","","","","130",""," ","key"," ","16.673714285712258","500","250","zol","0.39","1","1","-0.39","1",""
"","psychophysics","23","144083","0.0-23.0","5f79809ea692be01b666c74a","64cab2dfa779223b1c08e8cd","","","","","7306",""," ","key"," ","16.666458904109554","500","250","zol","0.47","14","29","-0.57","1",""
"","psychophysics","24","150128","0.0-24.0","5f79809ea692be01b666c74a","64cab2dfa779223b1c08e8cd","","","","","6042",""," ","key"," ","16.66669806094187","500","250","zol","0.14","-5","9","0.06","1",""
"","psychophysics","25","155345","0.0-25.0","5f79809ea692be01b666c74a","64cab2dfa779223b1c08e8cd","","","","","5212",""," ","key"," ","16.666503205128183","500","250","zol","0.20000000000000004","19","-29","-0.4","1",""
"","psychophysics","26","162783","0.0-26.0","5f79809ea692be01b666c74a","64cab2dfa779223b1c08e8cd","","","","","7435",""," ","key"," ","16.666656950672643","500","250","zol","0.13999999999999996","-17","-1","-0.44","1",""
"","psychophysics","27","168091","0.0-27.0","5f79809ea692be01b666c74a","64cab2dfa779223b1c08e8cd","","","","","5306",""," ","key"," ","16.666678233438486","500","250","zol","0.10999999999999999","-13","12","0.39","1",""
"","psychophysics","28","176094","0.0-28.0","5f79809ea692be01b666c74a","64cab2dfa779223b1c08e8cd","","","","","null","","null","key","null","16.66667432150313","500","250","zol","1.0599999999999998","-28","8","0.44","1",""
"","psychophysics","29","182452","0.0-29.0","5f79809ea692be01b666c74a","64cab2dfa779223b1c08e8cd","","","","","6356",""," ","key"," ","16.66671916010496","500","250","zol","0.29000000000000004","-25","-12","-0.59","1",""
"","psychophysics","30","185678","0.0-30.0","5f79809ea692be01b666c74a","64cab2dfa779223b1c08e8cd","","","","","3223",""," ","key"," ","16.66671354166677","500","250","zol","-0.17","12","0","0.57","1",""
"","psychophysics","31","190949","0.0-31.0","5f79809ea692be01b666c74a","64cab2dfa779223b1c08e8cd","","","","","5267",""," ","key"," ","16.666525316455704","500","250","zol","-0.21000000000000005","10","2","0.61","1",""
"","psychophysics","32","196736","0.0-32.0","5f79809ea692be01b666c74a","64cab2dfa779223b1c08e8cd","","","","","5783",""," ","key"," ","16.666569364161855","500","250","zol","0.3400000000000001","-27","2","0.16","1",""
"","psychophysics","33","202491","0.0-33.0","5f79809ea692be01b666c74a","64cab2dfa779223b1c08e8cd","","","","","5753",""," ","key"," ","16.66689534883716","500","250","zol","-0.04999999999999996","-15","15","0.45","1",""
"","psychophysics","34","207217","0.0-34.0","5f79809ea692be01b666c74a","64cab2dfa779223b1c08e8cd","","","","","4723",""," ","key"," ","16.666593639575897","500","250","zol","0.26","-9","-1","0.24","1",""
"","psychophysics","35","215220","0.0-35.0","5f79809ea692be01b666c74a","64cab2dfa779223b1c08e8cd","","","","","null","","null","key","null","16.666716075156554","500","250","zol","0.22000000000000006","8","-10","-0.42","1",""
"","psychophysics","36","217091","0.0-36.0","5f79809ea692be01b666c74a","64cab2dfa779223b1c08e8cd","","","","","1869",""," ","key"," ","16.66632432432432","500","250","inst","","","","","",""
"","psychophysics","37","220394","0.0-37.0","5f79809ea692be01b666c74a","64cab2dfa779223b1c08e8cd","","","","","3302",""," ","key"," ","16.666634517766447","500","250","instBr0","NaN","0","0","0","","300"
"","psychophysics","38","226257","0.0-38.0","5f79809ea692be01b666c74a","64cab2dfa779223b1c08e8cd","","","","","5859",""," ","key"," ","16.666874643874657","500","250","instBr1","NaN","0","0","-40","","300"
"","psychophysics","39","239313","0.0-39.0","5f79809ea692be01b666c74a","64cab2dfa779223b1c08e8cd","","","","","13055",""," ","key"," ","16.66676628352488","500","250","instBr","29","0","0","40","2","300"
"","psychophysics","40","240166","0.0-40.0","5f79809ea692be01b666c74a","64cab2dfa779223b1c08e8cd","","","","","851",""," ","key"," ","16.665999999999766","500","250","inst","","","","","",""
"","psychophysics","41","245247","0.0-41.0","5f79809ea692be01b666c74a","64cab2dfa779223b1c08e8cd","","","","","5078",""," ","key"," ","16.666648026315766","500","250","br","26","27","-21","43","2","262"
"","psychophysics","42","250899","0.0-42.0","5f79809ea692be01b666c74a","64cab2dfa779223b1c08e8cd","","","","","5650",""," ","key"," ","16.666650887573905","500","250","br","18","-30","1","-3","2","270"
"","psychophysics","43","258166","0.0-43.0","5f79809ea692be01b666c74a","64cab2dfa779223b1c08e8cd","","","","","7265",""," ","key"," ","16.66659080459771","500","250","br","23","9","21","41","2","268"
"","psychophysics","44","265354","0.0-44.0","5f79809ea692be01b666c74a","64cab2dfa779223b1c08e8cd","","","","","7186",""," ","key"," ","16.666590697674398","500","250","br","20","8","-25","-43","2","295"
"","psychophysics","45","269416","0.0-45.0","5f79809ea692be01b666c74a","64cab2dfa779223b1c08e8cd","","","","","4060",""," ","key"," ","16.666617283950668","500","250","br","20","-13","23","3","2","229"
"","psychophysics","46","275350","0.0-46.0","5f79809ea692be01b666c74a","64cab2dfa779223b1c08e8cd","","","","","5932",""," ","key"," ","16.666676056337984","500","250","br","12","-23","17","-22","2","243"
"","psychophysics","47","279801","0.0-47.0","5f79809ea692be01b666c74a","64cab2dfa779223b1c08e8cd","","","","","4448",""," ","key"," ","16.666665413533774","500","250","br","15","24","11","-3","2","224"
"","psychophysics","48","284705","0.0-48.0","5f79809ea692be01b666c74a","64cab2dfa779223b1c08e8cd","","","","","4903",""," ","key"," ","16.666730375426468","500","250","br","21","14","29","13","2","269"
"","psychophysics","49","288472","0.0-49.0","5f79809ea692be01b666c74a","64cab2dfa779223b1c08e8cd","","","","","3764",""," ","key"," ","16.666684444444513","500","250","br","22","-14","23","22","2","214"
"","psychophysics","50","295074","0.0-50.0","5f79809ea692be01b666c74a","64cab2dfa779223b1c08e8cd","","","","","6600",""," ","key"," ","16.66663037974688","500","250","br","17","-18","-1","-7","2","284"
"","psychophysics","51","303075","0.0-51.0","5f79809ea692be01b666c74a","64cab2dfa779223b1c08e8cd","","","","","null","","null","key","null","16.666594989561585","500","250","br","15","9","9","-21","2","268"
"","psychophysics","52","307560","0.0-52.0","5f79809ea692be01b666c74a","64cab2dfa779223b1c08e8cd","","","","","4483",""," ","key"," ","16.66695895522408","500","250","br","14","6","9","-22","2","265"
"","psychophysics","53","313273","0.0-53.0","5f79809ea692be01b666c74a","64cab2dfa779223b1c08e8cd","","","","","5709",""," ","key"," ","16.666453216374343","500","250","br","15","-26","-2","-3","2","242"
"","psychophysics","54","318399","0.0-54.0","5f79809ea692be01b666c74a","64cab2dfa779223b1c08e8cd","","","","","5124",""," ","key"," ","16.666622149837103","500","250","br","26","12","-22","29","2","293"
"","psychophysics","55","325460","0.0-55.0","5f79809ea692be01b666c74a","64cab2dfa779223b1c08e8cd","","","","","7059",""," ","key"," ","16.666613744075935","500","250","br","24","28","-18","37","2","267"
"","psychophysics","56","326715","0.0-56.0","5f79809ea692be01b666c74a","64cab2dfa779223b1c08e8cd","","","","","1253",""," ","key"," ","16.66659999999994","500","250","inst","","","","","",""
"","psychophysics","57","329002","0.0-57.0","5f79809ea692be01b666c74a","64cab2dfa779223b1c08e8cd","","","","","2285",""," ","key"," ","16.66598529411781","500","250","instEB0","40","0","0","40","","40"
"","psychophysics","58","336853","0.0-58.0","5f79809ea692be01b666c74a","64cab2dfa779223b1c08e8cd","","","","","7849",""," ","key"," ","16.666831914893663","500","250","instEB1","69","0","0","30","1","70"
"","psychophysics","59","345861","0.0-59.0","5f79809ea692be01b666c74a","64cab2dfa779223b1c08e8cd","","","","","9007",""," ","key"," ","16.666636363636435","500","250","instEB2","43","0","0","60","1","40"
"","psychophysics","60","356144","0.0-60.0","5f79809ea692be01b666c74a","64cab2dfa779223b1c08e8cd","","","","","10280",""," ","key"," ","16.666730519480527","500","250","instEB3","65","0","0","45","1","65"
"","psychophysics","61","369686","0.0-61.0","5f79809ea692be01b666c74a","64cab2dfa779223b1c08e8cd","","","","","13538",""," ","key"," ","16.66668842364528","500","250","instEB4","44","0","0","40","1","40"
"","psychophysics","62","370541","0.0-62.0","5f79809ea692be01b666c74a","64cab2dfa779223b1c08e8cd","","","","","854",""," ","key"," ","16.667939999999945","500","250","inst","","","","","",""
"","psychophysics","63","377117","0.0-63.0","5f79809ea692be01b666c74a","64cab2dfa779223b1c08e8cd","","","","","6573",""," ","key"," ","16.66684010152281","500","250","eb","34","0","0","45","1","26"
"","psychophysics","64","382563","0.0-64.0","5f79809ea692be01b666c74a","64cab2dfa779223b1c08e8cd","","","","","5443",""," ","key"," ","16.666475460122722","500","250","eb","30","0","0","35","1","24"
"","psychophysics","65","390566","0.0-65.0","5f79809ea692be01b666c74a","64cab2dfa779223b1c08e8cd","","","","","null","","null","key","null","16.666718162839263","500","250","eb","49","0","0","44","1","46"
"","psychophysics","66","392185","0.0-66.0","5f79809ea692be01b666c74a","64cab2dfa779223b1c08e8cd","","","","","1617",""," ","key"," ","16.667124999999942","500","250","eb","48","0","0","48","1","43"
"","psychophysics","67","397758","0.0-67.0","5f79809ea692be01b666c74a","64cab2dfa779223b1c08e8cd","","","","","5571",""," ","key"," ","16.66663963963958","500","250","eb","47","0","0","42","1","46"
"","psychophysics","68","402842","0.0-68.0","5f79809ea692be01b666c74a","64cab2dfa779223b1c08e8cd","","","","","5082",""," ","key"," ","16.66681907894733","500","250","eb","40","0","0","40","1","35"
"","psychophysics","69","408842","0.0-69.0","5f79809ea692be01b666c74a","64cab2dfa779223b1c08e8cd","","","","","5998",""," ","key"," ","16.66670194986078","500","250","eb","56","0","0","40","1","52"
"","psychophysics","70","412845","0.0-70.0","5f79809ea692be01b666c74a","64cab2dfa779223b1c08e8cd","","","","","4001",""," ","key"," ","16.666422594142357","500","250","eb","46","0","0","50","1","42"
"","psychophysics","71","420847","0.0-71.0","5f79809ea692be01b666c74a","64cab2dfa779223b1c08e8cd","","","","","null","","null","key","null","16.666658333333302","500","250","eb","43","0","0","27","1","41"
"","psychophysics","72","426517","0.0-72.0","5f79809ea692be01b666c74a","64cab2dfa779223b1c08e8cd","","","","","5667",""," ","key"," ","16.66671976401192","500","250","eb","39","0","0","28","1","32"
"","psychophysics","73","430444","0.0-73.0","5f79809ea692be01b666c74a","64cab2dfa779223b1c08e8cd","","","","","3925",""," ","key"," ","16.66633333333342","500","250","eb","46","0","0","43","1","42"
"","psychophysics","74","436155","0.0-74.0","5f79809ea692be01b666c74a","64cab2dfa779223b1c08e8cd","","","","","5708",""," ","key"," ","16.66688011695899","500","250","eb","39","0","0","39","1","34"
"","psychophysics","75","441077","0.0-75.0","5f79809ea692be01b666c74a","64cab2dfa779223b1c08e8cd","","","","","4919",""," ","key"," ","16.66679591836735","500","250","eb","27","0","0","40","1","24"
"","psychophysics","76","446409","0.0-76.0","5f79809ea692be01b666c74a","64cab2dfa779223b1c08e8cd","","","","","5330",""," ","key"," ","16.66670532915362","500","250","eb","43","0","0","52","1","37"
"","psychophysics","77","452990","0.0-77.0","5f79809ea692be01b666c74a","64cab2dfa779223b1c08e8cd","","","","","6578",""," ","key"," ","16.666614213197988","500","250","eb","32","0","0","53","1","27"
"","psychophysics","78","453960","0.0-78.0","5f79809ea692be01b666c74a","64cab2dfa779223b1c08e8cd","","","","","968",""," ","key"," ","16.666877192982245","500","250","inst","","","","","",""
"","psychophysics","79","460696","0.0-79.0","5f79809ea692be01b666c74a","64cab2dfa779223b1c08e8cd","","","","","6733",""," ","key"," ","16.666736972704733","500","250","instPog0","160","0","0","190","1","160"
"","psychophysics","80","471383","0.0-80.0","5f79809ea692be01b666c74a","64cab2dfa779223b1c08e8cd","","","","","10685",""," ","key"," ","16.666692667706673","500","250","instPog1","170","0","0","190","1","160"
"","psychophysics","81","491281","0.0-81.0","5f79809ea692be01b666c74a","64cab2dfa779223b1c08e8cd","","","","","19896",""," ","key"," ","16.66666974015088","500","250","instPog2","176","0","0","160","1","160"
"","psychophysics","82","492026","0.0-82.0","5f79809ea692be01b666c74a","64cab2dfa779223b1c08e8cd","","","","","744",""," ","key"," ","16.666860465117363","500","250","inst","","","","","",""
"","psychophysics","83","498728","0.0-83.0","5f79809ea692be01b666c74a","64cab2dfa779223b1c08e8cd","","","","","6700",""," ","key"," ","16.666855361596117","500","250","pog","153","0","0","209","1","129"
"","psychophysics","84","505811","0.0-84.0","5f79809ea692be01b666c74a","64cab2dfa779223b1c08e8cd","","","","","7080",""," ","key"," ","16.66652122641519","500","250","pog","142","0","0","138","1","123"
"","psychophysics","85","511789","0.0-85.0","5f79809ea692be01b666c74a","64cab2dfa779223b1c08e8cd","","","","","5976",""," ","key"," ","16.6668687150838","500","250","pog","151","0","0","197","1","132"
"","psychophysics","86","519793","0.0-86.0","5f79809ea692be01b666c74a","64cab2dfa779223b1c08e8cd","","","","","null","","null","key","null","16.666503131524017","500","250","pog","178","0","0","134","1","163"
"","psychophysics","87","523847","0.0-87.0","5f79809ea692be01b666c74a","64cab2dfa779223b1c08e8cd","","","","","4053",""," ","key"," ","16.66699588477373","500","250","pog","181","0","0","103","1","163"
"","psychophysics","88","528966","0.0-88.0","5f79809ea692be01b666c74a","64cab2dfa779223b1c08e8cd","","","","","5117",""," ","key"," ","16.666660130719023","500","250","pog","200","0","0","118","1","184"
"","psychophysics","89","536624","0.0-89.0","5f79809ea692be01b666c74a","64cab2dfa779223b1c08e8cd","","","","","7657",""," ","key"," ","16.666524017467335","500","250","pog","202","0","0","170","1","196"
"","psychophysics","90","542247","0.0-90.0","5f79809ea692be01b666c74a","64cab2dfa779223b1c08e8cd","","","","","5621",""," ","key"," ","16.66648664688436","500","250","pog","166","0","0","202","1","135"
"","psychophysics","91","550250","0.0-91.0","5f79809ea692be01b666c74a","64cab2dfa779223b1c08e8cd","","","","","null","","null","key","null","16.66674112734878","500","250","pog","144","0","0","110","1","124"
"","psychophysics","92","556152","0.0-92.0","5f79809ea692be01b666c74a","64cab2dfa779223b1c08e8cd","","","","","5899",""," ","key"," ","16.666898016996942","500","250","pog","165","0","0","185","1","152"
"","psychophysics","93","559835","0.0-93.0","5f79809ea692be01b666c74a","64cab2dfa779223b1c08e8cd","","","","","3682",""," ","key"," ","16.666668181818252","500","250","pog","182","0","0","166","1","166"
"","psychophysics","94","563219","0.0-94.0","5f79809ea692be01b666c74a","64cab2dfa779223b1c08e8cd","","","","","3382",""," ","key"," ","16.66620297029748","500","250","pog","203","0","0","205","1","181"
"","psychophysics","95","568329","0.0-95.0","5f79809ea692be01b666c74a","64cab2dfa779223b1c08e8cd","","","","","5108",""," ","key"," ","16.666445901639165","500","250","pog","175","0","0","205","1","155"
"","psychophysics","96","576331","0.0-96.0","5f79809ea692be01b666c74a","64cab2dfa779223b1c08e8cd","","","","","null","","null","key","null","16.666760416666754","500","250","pog","129","0","0","117","1","124"
"","psychophysics","97","581109","0.0-97.0","5f79809ea692be01b666c74a","64cab2dfa779223b1c08e8cd","","","","","4776",""," ","key"," ","16.666533333333536","500","250","pog","172","0","0","212","1","157"
"","psychophysics","98","585234","0.0-98.0","5f79809ea692be01b666c74a","64cab2dfa779223b1c08e8cd","","","","","4123",""," ","key"," ","16.667129554656174","500","250","inst","","","","","",""
"","psychophysics","99","591532","0.0-99.0","5f79809ea692be01b666c74a","64cab2dfa779223b1c08e8cd","","","","","6297",""," ","key"," ","16.666647214854112","500","250","instPz0","55","","","50","2","50"
"","psychophysics","100","597176","0.0-100.0","5f79809ea692be01b666c74a","64cab2dfa779223b1c08e8cd","","","","","5642",""," ","key"," ","16.666459940653017","500","250","instPz1","45","","","25","2","50"
"","psychophysics","101","601834","0.0-101.0","5f79809ea692be01b666c74a","64cab2dfa779223b1c08e8cd","","","","","4657",""," ","key"," ","16.666967741935597","500","250","instPz2","23","","","15","2","25"
"","psychophysics","102","611294","0.0-102.0","5f79809ea692be01b666c74a","64cab2dfa779223b1c08e8cd","","","","","9457",""," ","key"," ","16.66662720848054","500","250","instPz3","33","","","25","2","50"
"","psychophysics","103","616516","0.0-103.0","5f79809ea692be01b666c74a","64cab2dfa779223b1c08e8cd","","","","","5220",""," ","key"," ","16.666498402555728","500","250","instPz4","21","","","15","2","30"
"","psychophysics","104","617671","0.0-104.0","5f79809ea692be01b666c74a","64cab2dfa779223b1c08e8cd","","","","","1152",""," ","key"," ","16.666852941176757","500","250","inst","","","","","",""
"","psychophysics","105","621289","0.0-105.0","5f79809ea692be01b666c74a","64cab2dfa779223b1c08e8cd","","","","","3615",""," ","key"," ","16.66701851851852","500","250","pz","18","","","21","2","21"
"","psychophysics","106","624099","0.0-106.0","5f79809ea692be01b666c74a","64cab2dfa779223b1c08e8cd","","","","","2808",""," ","key"," ","16.66630952380919","500","250","pz","28","","","28","2","40"
"","psychophysics","107","628512","0.0-107.0","5f79809ea692be01b666c74a","64cab2dfa779223b1c08e8cd","","","","","4411",""," ","key"," ","16.666711026616305","500","250","pz","28","","","21","2","42"
"","psychophysics","108","633531","0.0-108.0","5f79809ea692be01b666c74a","64cab2dfa779223b1c08e8cd","","","","","5016",""," ","key"," ","16.666694352159624","500","250","pz","15","","","43","2","20"
"","psychophysics","109","639173","0.0-109.0","5f79809ea692be01b666c74a","64cab2dfa779223b1c08e8cd","","","","","5641",""," ","key"," ","16.666664688427204","500","250","pz","30","","","20","2","49"
"","psychophysics","110","645545","0.0-110.0","5f79809ea692be01b666c74a","64cab2dfa779223b1c08e8cd","","","","","6369",""," ","key"," ","16.66687139107606","500","250","pz","37","","","47","2","44"
"","psychophysics","111","649147","0.0-111.0","5f79809ea692be01b666c74a","64cab2dfa779223b1c08e8cd","","","","","3599",""," ","key"," ","16.667004629629513","500","250","pz","42","","","46","2","51"
"","psychophysics","112","653883","0.0-112.0","5f79809ea692be01b666c74a","64cab2dfa779223b1c08e8cd","","","","","4733",""," ","key"," ","16.66672084805664","500","250","pz","27","","","30","2","30"
"","psychophysics","113","657893","0.0-113.0","5f79809ea692be01b666c74a","64cab2dfa779223b1c08e8cd","","","","","4009",""," ","key"," ","16.66673221757341","500","250","pz","47","","","48","2","58"
"","psychophysics","114","662584","0.0-114.0","5f79809ea692be01b666c74a","64cab2dfa779223b1c08e8cd","","","","","4689",""," ","key"," ","16.66638790035589","500","250","pz","39","","","39","2","48"
"","psychophysics","115","668526","0.0-115.0","5f79809ea692be01b666c74a","64cab2dfa779223b1c08e8cd","","","","","5939",""," ","key"," ","16.666881690140894","500","250","pz","37","","","53","2","44"
"","psychophysics","116","672715","0.0-116.0","5f79809ea692be01b666c74a","64cab2dfa779223b1c08e8cd","","","","","4188",""," ","key"," ","16.66671314741025","500","250","pz","33","","","25","2","41"
"","psychophysics","117","678971","0.0-117.0","5f79809ea692be01b666c74a","64cab2dfa779223b1c08e8cd","","","","","6254",""," ","key"," ","16.666465240641795","500","250","pz","25","","","39","2","27"
"","psychophysics","118","684302","0.0-118.0","5f79809ea692be01b666c74a","64cab2dfa779223b1c08e8cd","","","","","5329",""," ","key"," ","16.666802507836874","500","250","pz","26","","","39","2","30"
"","psychophysics","119","690629","0.0-119.0","5f79809ea692be01b666c74a","64cab2dfa779223b1c08e8cd","","","","","6326",""," ","key"," ","16.666462962962836","500","250","pz","22","","","38","2","25"
"","psychophysics","120","691362","0.0-120.0","5f79809ea692be01b666c74a","64cab2dfa779223b1c08e8cd","","","","","730",""," ","key"," ","16.67153488371933","500","250","inst","","","","","",""
"","psychophysics","121","706988","0.0-121.0","5f79809ea692be01b666c74a","64cab2dfa779223b1c08e8cd","","","","","15624",""," ","key"," ","16.666711846317945","500","250","instEB4","48","0","0","40","2","40"
"","psychophysics","122","707914","0.0-122.0","5f79809ea692be01b666c74a","64cab2dfa779223b1c08e8cd","","","","","924",""," ","key"," ","16.66630909090904","500","250","inst","","","","","",""
"","psychophysics","123","713935","0.0-123.0","5f79809ea692be01b666c74a","64cab2dfa779223b1c08e8cd","","","","","6019",""," ","key"," ","16.66687777777778","500","250","eb","39","0","0","53","2","28"
"","psychophysics","124","718674","0.0-124.0","5f79809ea692be01b666c74a","64cab2dfa779223b1c08e8cd","","","","","4738",""," ","key"," ","16.666385159010805","500","250","eb","28","0","0","38","2","24"
"","psychophysics","125","722810","0.0-125.0","5f79809ea692be01b666c74a","64cab2dfa779223b1c08e8cd","","","","","4134",""," ","key"," ","16.666781376518482","500","250","eb","53","0","0","35","2","46"
"","psychophysics","126","726901","0.0-126.0","5f79809ea692be01b666c74a","64cab2dfa779223b1c08e8cd","","","","","4089",""," ","key"," ","16.666628571428664","500","250","eb","26","0","0","38","2","24"
"","psychophysics","127","732957","0.0-127.0","5f79809ea692be01b666c74a","64cab2dfa779223b1c08e8cd","","","","","6054",""," ","key"," ","16.666743093922744","500","250","eb","55","0","0","32","2","50"
"","psychophysics","128","737595","0.0-128.0","5f79809ea692be01b666c74a","64cab2dfa779223b1c08e8cd","","","","","4636",""," ","key"," ","16.666678700361164","500","250","eb","38","0","0","34","2","32"
"","psychophysics","129","740469","0.0-129.0","5f79809ea692be01b666c74a","64cab2dfa779223b1c08e8cd","","","","","2870",""," ","key"," ","16.66667441860434","500","250","eb","39","0","0","37","2","36"
"","psychophysics","130","743349","0.0-130.0","5f79809ea692be01b666c74a","64cab2dfa779223b1c08e8cd","","","","","2878",""," ","key"," ","16.66667441860434","500","250","eb","33","0","0","32","2","31"
"","psychophysics","131","749925","0.0-131.0","5f79809ea692be01b666c74a","64cab2dfa779223b1c08e8cd","","","","","6574",""," ","key"," ","16.66685241730303","500","250","eb","43","0","0","32","2","39"
"","psychophysics","132","753306","0.0-132.0","5f79809ea692be01b666c74a","64cab2dfa779223b1c08e8cd","","","","","3379",""," ","key"," ","16.666128712871092","500","250","eb","42","0","0","36","2","38"
"","psychophysics","133","759159","0.0-133.0","5f79809ea692be01b666c74a","64cab2dfa779223b1c08e8cd","","","","","5851",""," ","key"," ","16.666497142857075","500","250","eb","53","0","0","38","2","47"
"","psychophysics","134","764859","0.0-134.0","5f79809ea692be01b666c74a","64cab2dfa779223b1c08e8cd","","","","","5699",""," ","key"," ","16.66687096774208","500","250","eb","35","0","0","29","2","31"
"","psychophysics","135","770709","0.0-135.0","5f79809ea692be01b666c74a","64cab2dfa779223b1c08e8cd","","","","","5848",""," ","key"," ","16.666720000000204","500","250","eb","42","0","0","30","2","38"
"","psychophysics","136","774131","0.0-136.0","5f79809ea692be01b666c74a","64cab2dfa779223b1c08e8cd","","","","","3420",""," ","key"," ","16.66697560975601","500","250","eb","40","0","0","46","2","33"
"","psychophysics","137","777206","0.0-137.0","5f79809ea692be01b666c74a","64cab2dfa779223b1c08e8cd","","","","","3074",""," ","key"," ","16.666092896174966","500","250","eb","45","0","0","45","2","43"
"","psychophysics","138","778040","0.0-138.0","5f79809ea692be01b666c74a","64cab2dfa779223b1c08e8cd","","","","","832",""," ","key"," ","16.6684693877552","500","250","inst","","","","","",""
"","psychophysics","139","788108","0.0-139.0","5f79809ea692be01b666c74a","64cab2dfa779223b1c08e8cd","","","","","10066",""," ","key"," ","16.666681592039932","500","250","instPz4","42","","","15","1","30"
"","psychophysics","140","788724","0.0-140.0","5f79809ea692be01b666c74a","64cab2dfa779223b1c08e8cd","","","","","615",""," ","key"," ","16.667055555554626","500","250","inst","","","","","",""
"","psychophysics","141","792473","0.0-141.0","5f79809ea692be01b666c74a","64cab2dfa779223b1c08e8cd","","","","","3746",""," ","key"," ","16.667017857142906","500","250","pz","31","","","33","1","20"
"","psychophysics","142","800414","0.0-142.0","5f79809ea692be01b666c74a","64cab2dfa779223b1c08e8cd","","","","","7940",""," ","key"," ","16.666512605042037","500","250","pz","32","","","51","1","23"
"","psychophysics","143","807494","0.0-143.0","5f79809ea692be01b666c74a","64cab2dfa779223b1c08e8cd","","","","","7078",""," ","key"," ","16.666884160756375","500","250","pz","49","","","38","1","36"
"","psychophysics","144","811362","0.0-144.0","5f79809ea692be01b666c74a","64cab2dfa779223b1c08e8cd","","","","","3864",""," ","key"," ","16.666904761904984","500","250","pz","63","","","49","1","50"
"","psychophysics","145","814828","0.0-145.0","5f79809ea692be01b666c74a","64cab2dfa779223b1c08e8cd","","","","","3463",""," ","key"," ","16.666806763285493","500","250","pz","62","","","57","1","53"
"","psychophysics","146","819056","0.0-146.0","5f79809ea692be01b666c74a","64cab2dfa779223b1c08e8cd","","","","","4226",""," ","key"," ","16.666513833992198","500","250","pz","55","","","59","1","40"
"","psychophysics","147","822418","0.0-147.0","5f79809ea692be01b666c74a","64cab2dfa779223b1c08e8cd","","","","","3360",""," ","key"," ","16.666631840796104","500","250","pz","28","","","27","1","24"
"","psychophysics","148","827025","0.0-148.0","5f79809ea692be01b666c74a","64cab2dfa779223b1c08e8cd","","","","","4605",""," ","key"," ","16.6667600000002","500","250","pz","52","","","37","1","40"
"","psychophysics","149","834794","0.0-149.0","5f79809ea692be01b666c74a","64cab2dfa779223b1c08e8cd","","","","","7767",""," ","key"," ","16.66668172043007","500","250","pz","28","","","57","1","21"
"","psychophysics","150","838344","0.0-150.0","5f79809ea692be01b666c74a","64cab2dfa779223b1c08e8cd","","","","","3548",""," ","key"," ","16.666891509433658","500","250","pz","59","","","54","1","50"
"","psychophysics","151","842968","0.0-151.0","5f79809ea692be01b666c74a","64cab2dfa779223b1c08e8cd","","","","","4622",""," ","key"," ","16.666682310469216","500","250","pz","61","","","33","1","55"
"","psychophysics","152","846275","0.0-152.0","5f79809ea692be01b666c74a","64cab2dfa779223b1c08e8cd","","","","","3304",""," ","key"," ","16.66670558375583","500","250","pz","41","","","37","1","34"
"","psychophysics","153","853781","0.0-153.0","5f79809ea692be01b666c74a","64cab2dfa779223b1c08e8cd","","","","","7505",""," ","key"," ","16.666539999999934","500","250","pz","65","","","27","1","58"
"","psychophysics","154","859082","0.0-154.0","5f79809ea692be01b666c74a","64cab2dfa779223b1c08e8cd","","","","","5298",""," ","key"," ","16.66673501577281","500","250","pz","61","","","46","1","52"
"","psychophysics","155","861877","0.0-155.0","5f79809ea692be01b666c74a","64cab2dfa779223b1c08e8cd","","","","","2793",""," ","key"," ","16.667114457831556","500","250","pz","50","","","51","1","40"
"","psychophysics","156","862685","0.0-156.0","5f79809ea692be01b666c74a","64cab2dfa779223b1c08e8cd","","","","","807",""," ","key"," ","16.66647916666746","500","250","inst","","","","","",""
"","psychophysics","157","886827","0.0-157.0","5f79809ea692be01b666c74a","64cab2dfa779223b1c08e8cd","","","","","24140",""," ","key"," ","16.66669592259842","500","250","instZol2","6.38378239159465e-16","0","0","2","2",""
"","psychophysics","158","887411","0.0-158.0","5f79809ea692be01b666c74a","64cab2dfa779223b1c08e8cd","","","","","582",""," ","key"," ","16.666529411765033","500","250","inst","","","","","",""
"","psychophysics","159","894109","0.0-159.0","5f79809ea692be01b666c74a","64cab2dfa779223b1c08e8cd","","","","","6694",""," ","key"," ","16.666902743142035","500","250","zol","0.010000000000000009","19","-30","0.19","2",""
"","psychophysics","160","899317","0.0-160.0","5f79809ea692be01b666c74a","64cab2dfa779223b1c08e8cd","","","","","5206",""," ","key"," ","16.666407051282405","500","250","zol","-0.04000000000000001","9","-3","-0.06","2",""
"","psychophysics","161","906065","0.0-161.0","5f79809ea692be01b666c74a","64cab2dfa779223b1c08e8cd","","","","","6746",""," ","key"," ","16.66671534653466","500","250","zol","0.21000000000000005","3","12","-0.31","2",""
"","psychophysics","162","914068","0.0-162.0","5f79809ea692be01b666c74a","64cab2dfa779223b1c08e8cd","","","","","null","","null","key","null","16.666701461377823","500","250","zol","0.31000000000000005","-27","-4","-0.61","2",""
"","psychophysics","163","918741","0.0-163.0","5f79809ea692be01b666c74a","64cab2dfa779223b1c08e8cd","","","","","4671",""," ","key"," ","16.666652329749258","500","250","zol","0.020000000000000046","14","18","-0.62","2",""
"","psychophysics","164","922793","0.0-164.0","5f79809ea692be01b666c74a","64cab2dfa779223b1c08e8cd","","","","","4050",""," ","key"," ","16.66673553719047","500","250","zol","-0.03","-26","21","0.03","2",""
"","psychophysics","165","929582","0.0-165.0","5f79809ea692be01b666c74a","64cab2dfa779223b1c08e8cd","","","","","6784",""," ","key"," ","16.66672972972958","500","250","zol","-0.0399999999999999","-15","-25","-0.56","2",""
"","psychophysics","166","937585","0.0-166.0","5f79809ea692be01b666c74a","64cab2dfa779223b1c08e8cd","","","","","null","","null","key","null","16.666678496868553","500","250","zol","0.04000000000000001","-24","-2","0.36","2",""
"","psychophysics","167","940992","0.0-167.0","5f79809ea692be01b666c74a","64cab2dfa779223b1c08e8cd","","","","","3406",""," ","key"," ","16.66681773399044","500","250","zol","-0.04000000000000001","-24","5","-0.16","2",""
"","psychophysics","168","946001","0.0-168.0","5f79809ea692be01b666c74a","64cab2dfa779223b1c08e8cd","","","","","5006",""," ","key"," ","16.66639999999975","500","250","zol","-0.43000000000000005","-29","-17","0.33","2",""
"","psychophysics","169","953044","0.0-169.0","5f79809ea692be01b666c74a","64cab2dfa779223b1c08e8cd","","","","","7041",""," ","key"," ","16.666520190023707","500","250","zol","0.010000000000000037","21","20","-0.51","2",""
"","psychophysics","170","960022","0.0-170.0","5f79809ea692be01b666c74a","64cab2dfa779223b1c08e8cd","","","","","6974",""," ","key"," ","16.666566985645932","500","250","zol","-0.07","-19","-18","0.27","2",""
"","psychophysics","171","966984","0.0-171.0","5f79809ea692be01b666c74a","64cab2dfa779223b1c08e8cd","","","","","6960",""," ","key"," ","16.666549160671465","500","250","zol","-0.23","27","18","0.33","2",""
"","psychophysics","172","974988","0.0-172.0","5f79809ea692be01b666c74a","64cab2dfa779223b1c08e8cd","","","","","null","","null","key","null","16.666676409186024","500","250","zol","-0.13999999999999999","-11","8","0.24","2",""
"","psychophysics","173","980532","0.0-173.0","5f79809ea692be01b666c74a","64cab2dfa779223b1c08e8cd","","","","","5541",""," ","key"," ","16.666909638554188","500","250","zol","0.01999999999999999","-2","9","-0.22","2",""
"","psychophysics","174","981261","0.0-174.0","5f79809ea692be01b666c74a","64cab2dfa779223b1c08e8cd","","","","","728",""," ","key"," ","16.664999999998447","500","250","inst","","","","","",""
"","psychophysics","175","988324","0.0-175.0","5f79809ea692be01b666c74a","64cab2dfa779223b1c08e8cd","","","","","7060",""," ","key"," ","16.666749408983527","500","250","instPog0","340","0","0","370","2","340"
"","psychophysics","176","995590","0.0-176.0","5f79809ea692be01b666c74a","64cab2dfa779223b1c08e8cd","","","","","7265",""," ","key"," ","16.6666390804598","500","250","instPog1","348","0","0","370","2","340"
"","psychophysics","177","1000654","0.0-177.0","5f79809ea692be01b666c74a","64cab2dfa779223b1c08e8cd","","","","","5062",""," ","key"," ","16.666679867987042","500","250","instPog2","328","0","0","340","2","340"
"","psychophysics","178","1001155","0.0-178.0","5f79809ea692be01b666c74a","64cab2dfa779223b1c08e8cd","","","","","499",""," ","key"," ","16.666620689657","500","250","inst","","","","","",""
"","psychophysics","179","1006433","0.0-179.0","5f79809ea692be01b666c74a","64cab2dfa779223b1c08e8cd","","","","","5276",""," ","key"," ","16.6667848101263","500","250","pog","316","0","0","384","2","327"
"","psychophysics","180","1010975","0.0-180.0","5f79809ea692be01b666c74a","64cab2dfa779223b1c08e8cd","","","","","4540",""," ","key"," ","16.666730627306304","500","250","pog","346","0","0","382","2","363"
"","psychophysics","181","1013955","0.0-181.0","5f79809ea692be01b666c74a","64cab2dfa779223b1c08e8cd","","","","","2979",""," ","key"," ","16.666685393258664","500","250","pog","292","0","0","296","2","302"
"","psychophysics","182","1019438","0.0-182.0","5f79809ea692be01b666c74a","64cab2dfa779223b1c08e8cd","","","","","5481",""," ","key"," ","16.666920731707318","500","250","pog","313","0","0","375","2","329"
"","psychophysics","183","1024476","0.0-183.0","5f79809ea692be01b666c74a","64cab2dfa779223b1c08e8cd","","","","","5036",""," ","key"," ","16.666720930232813","500","250","pog","343","0","0","293","2","366"
"","psychophysics","184","1030387","0.0-184.0","5f79809ea692be01b666c74a","64cab2dfa779223b1c08e8cd","","","","","5909",""," ","key"," ","16.66662711864416","500","250","pog","330","0","0","334","2","340"
"","psychophysics","185","1034087","0.0-185.0","5f79809ea692be01b666c74a","64cab2dfa779223b1c08e8cd","","","","","3698",""," ","key"," ","16.66700000000003","500","250","pog","313","0","0","283","2","332"
"","psychophysics","186","1039571","0.0-186.0","5f79809ea692be01b666c74a","64cab2dfa779223b1c08e8cd","","","","","5483",""," ","key"," ","16.666893292682687","500","250","pog","333","0","0","379","2","348"
"","psychophysics","187","1042237","0.0-187.0","5f79809ea692be01b666c74a","64cab2dfa779223b1c08e8cd","","","","","2664",""," ","key"," ","16.666666666666668","500","250","pog","354","0","0","356","2","367"
"","psychophysics","188","1047392","0.0-188.0","5f79809ea692be01b666c74a","64cab2dfa779223b1c08e8cd","","","","","5154",""," ","key"," ","16.66689935064944","500","250","pog","295","0","0","293","2","313"
"","psychophysics","189","1055395","0.0-189.0","5f79809ea692be01b666c74a","64cab2dfa779223b1c08e8cd","","","","","null","","null","key","null","16.666638830897597","500","250","pog","351","0","0","387","2","366"
"","psychophysics","190","1059917","0.0-190.0","5f79809ea692be01b666c74a","64cab2dfa779223b1c08e8cd","","","","","4519",""," ","key"," ","16.66669741697434","500","250","pog","341","0","0","385","2","346"
"","psychophysics","191","1065691","0.0-191.0","5f79809ea692be01b666c74a","64cab2dfa779223b1c08e8cd","","","","","5772",""," ","key"," ","16.666684057971164","500","250","pog","322","0","0","304","2","336"
"","psychophysics","192","1068898","0.0-192.0","5f79809ea692be01b666c74a","64cab2dfa779223b1c08e8cd","","","","","3206",""," ","key"," ","16.666739583333158","500","250","pog","283","0","0","283","2","302"
"","psychophysics","193","1074772","0.0-193.0","5f79809ea692be01b666c74a","64cab2dfa779223b1c08e8cd","","","","","5873",""," ","key"," ","16.666641025641464","500","250","pog","351","0","0","293","2","373"
"","psychophysics","194","1076650","0.0-194.0","5f79809ea692be01b666c74a","64cab2dfa779223b1c08e8cd","","","","","1877",""," ","key"," ","16.666553571429436","500","250","inst","","","","","",""
"","psychophysics","195","1082528","0.0-195.0","5f79809ea692be01b666c74a","64cab2dfa779223b1c08e8cd","","","","","5876",""," ","key"," ","16.666621082620907","500","250","instBr","-22","0","0","40","1","300"
"","psychophysics","196","1083143","0.0-196.0","5f79809ea692be01b666c74a","64cab2dfa779223b1c08e8cd","","","","","614",""," ","key"," ","16.667249999998603","500","250","inst","","","","","",""
"","psychophysics","197","1085818","0.0-197.0","5f79809ea692be01b666c74a","64cab2dfa779223b1c08e8cd","","","","","2673",""," ","key"," ","16.666737500000455","500","250","br","-29","-10","16","-30","1","268"
"","psychophysics","198","1093269","0.0-198.0","5f79809ea692be01b666c74a","64cab2dfa779223b1c08e8cd","","","","","7449",""," ","key"," ","16.66665919282528","500","250","br","-22","-23","9","31","1","278"
"","psychophysics","199","1098613","0.0-199.0","5f79809ea692be01b666c74a","64cab2dfa779223b1c08e8cd","","","","","5342",""," ","key"," ","16.666667711598432","500","250","br","-20","-13","-11","6","1","250"
"","psychophysics","200","1103768","0.0-200.0","5f79809ea692be01b666c74a","64cab2dfa779223b1c08e8cd","","","","","5153",""," ","key"," ","16.66681229773514","500","250","br","-17","-2","19","32","1","257"
"","psychophysics","201","1108148","0.0-201.0","5f79809ea692be01b666c74a","64cab2dfa779223b1c08e8cd","","","","","4378",""," ","key"," ","16.66669083969447","500","250","br","-19","-7","-21","9","1","288"
"","psychophysics","202","1112406","0.0-202.0","5f79809ea692be01b666c74a","64cab2dfa779223b1c08e8cd","","","","","4257",""," ","key"," ","16.66669685039376","500","250","br","-18","-1","-1","12","1","275"
"","psychophysics","203","1119749","0.0-203.0","5f79809ea692be01b666c74a","64cab2dfa779223b1c08e8cd","","","","","7341",""," ","key"," ","16.666747727272607","500","250","br","-17","-12","-16","18","1","238"
"","psychophysics","204","1125715","0.0-204.0","5f79809ea692be01b666c74a","64cab2dfa779223b1c08e8cd","","","","","5965",""," ","key"," ","16.666487394957947","500","250","br","-23","-3","-17","-50","1","222"
"","psychophysics","205","1131556","0.0-205.0","5f79809ea692be01b666c74a","64cab2dfa779223b1c08e8cd","","","","","5839",""," ","key"," ","16.66670200573067","500","250","br","-22","8","-17","2","1","263"
"","psychophysics","206","1138997","0.0-206.0","5f79809ea692be01b666c74a","64cab2dfa779223b1c08e8cd","","","","","7439",""," ","key"," ","16.66660224719109","500","250","br","-18","26","-16","48","1","267"
"","psychophysics","207","1141031","0.0-207.0","5f79809ea692be01b666c74a","64cab2dfa779223b1c08e8cd","","","","","2032",""," ","key"," ","16.667549180328756","500","250","br","-22","-29","-6","-22","1","251"
"","psychophysics","208","1149034","0.0-208.0","5f79809ea692be01b666c74a","64cab2dfa779223b1c08e8cd","","","","","null","","null","key","null","16.66664300626338","500","250","br","-19","-23","11","42","1","220"
"","psychophysics","209","1154912","0.0-209.0","5f79809ea692be01b666c74a","64cab2dfa779223b1c08e8cd","","","","","5875",""," ","key"," ","16.66670085470115","500","250","br","-25","13","29","-44","1","266"
"","psychophysics","210","1160266","0.0-210.0","5f79809ea692be01b666c74a","64cab2dfa779223b1c08e8cd","","","","","5350",""," ","key"," ","16.666707165109145","500","250","br","-28","-20","-11","-33","1","251"
"","psychophysics","211","1165925","0.0-211.0","5f79809ea692be01b666c74a","64cab2dfa779223b1c08e8cd","","","","","5657",""," ","key"," ","16.666520710059128","500","250","br","-23","25","-28","28","1","300"
