"success","trial_type","trial_index","time_elapsed","internal_node_id","pid","sid","timeout","failed_images","failed_audio","failed_video","rt","stimulus","response","response_type","key_press","avg_frame_time","center_x","center_y","task","resp","start","version","jitterX","jitterY","parA"
"true","fullscreen","0","5743","0.0-0.0","63d0272f5a38c78b4d6fa5e2","64cab2b9a779223b1c08e8c2","","","","","","","","","","","","","","","","","","",""
"true","preload","1","6674","0.0-1.0","63d0272f5a38c78b4d6fa5e2","64cab2b9a779223b1c08e8c2","false","[]","[]","[]","","","","","","","","","","","","","","",""
"","html-button-response","2","10756","0.0-2.0","63d0272f5a38c78b4d6fa5e2","64cab2b9a779223b1c08e8c2","","","","","4081","Please Make Sure Your Audio Is On.","0","","","","","","","","","","","",""
"","psychophysics","3","21930","0.0-3.0","63d0272f5a38c78b4d6fa5e2","64cab2b9a779223b1c08e8c2","","","","","11157",""," ","key"," ","16.681137724550897","720","250","","","","","","",""
"","psychophysics","4","28450","0.0-4.0","63d0272f5a38c78b4d6fa5e2","64cab2b9a779223b1c08e8c2","","","","","6445",""," ","key"," ","16.7680412371134","500","250","inst","","","","","",""
"","psychophysics","5","36797","0.0-5.0","63d0272f5a38c78b4d6fa5e2","64cab2b9a779223b1c08e8c2","","","","","8327",""," ","key"," ","16.64071856287425","500","250","sample0","","","","","",""
"","psychophysics","6","39511","0.0-6.0","63d0272f5a38c78b4d6fa5e2","64cab2b9a779223b1c08e8c2","","","","","2706",""," ","key"," ","16.558282208588956","500","250","sample1","","","","","",""
"","psychophysics","7","53680","0.0-7.0","63d0272f5a38c78b4d6fa5e2","64cab2b9a779223b1c08e8c2","","","","","14164",""," ","key"," ","16.654117647058822","500","250","sample2","100","","","","",""
"","psychophysics","8","64045","0.0-8.0","63d0272f5a38c78b4d6fa5e2","64cab2b9a779223b1c08e8c2","","","","","10361",""," ","key"," ","16.64790996784566","500","250","sample3","98","","","","",""
"","psychophysics","9","82335","0.0-9.0","63d0272f5a38c78b4d6fa5e2","64cab2b9a779223b1c08e8c2","","","","","18287",""," ","key"," ","16.659070191431177","500","250","sample4","102","","","","",""
"","psychophysics","10","92230","0.0-10.0","63d0272f5a38c78b4d6fa5e2","64cab2b9a779223b1c08e8c2","","","","","9891",""," ","key"," ","16.63804713804714","500","250","sample5","","","","","",""
"","psychophysics","11","106181","0.0-11.0","63d0272f5a38c78b4d6fa5e2","64cab2b9a779223b1c08e8c2","","","","","13947",""," ","key"," ","16.632458233890215","500","250","sample6","498","","","","",""
"","psychophysics","12","114518","0.0-12.0","63d0272f5a38c78b4d6fa5e2","64cab2b9a779223b1c08e8c2","","","","","8333",""," ","key"," ","16.64","500","250","inst","","","","","",""
"","psychophysics","13","121179","0.0-13.0","63d0272f5a38c78b4d6fa5e2","64cab2b9a779223b1c08e8c2","","","","","6658",""," ","key"," ","16.6225","500","250","inst","","","","","",""
"","psychophysics","14","125897","0.0-14.0","63d0272f5a38c78b4d6fa5e2","64cab2b9a779223b1c08e8c2","","","","","4711",""," ","key"," ","16.62897526501767","500","250","inst","","","","","",""
"","psychophysics","15","131821","0.0-15.0","63d0272f5a38c78b4d6fa5e2","64cab2b9a779223b1c08e8c2","","","","","5913",""," ","key"," ","16.63943661971831","500","250","inst","","","","","",""
"","psychophysics","16","135539","0.0-16.0","63d0272f5a38c78b4d6fa5e2","64cab2b9a779223b1c08e8c2","","","","","3711",""," ","key"," ","16.62780269058296","500","250","inst","","","","","",""
"","psychophysics","17","138090","0.0-17.0","63d0272f5a38c78b4d6fa5e2","64cab2b9a779223b1c08e8c2","","","","","2546",""," ","key"," ","16.627450980392158","500","250","instEB0","40","40","","0","0","40"
"","psychophysics","18","149347","0.0-18.0","63d0272f5a38c78b4d6fa5e2","64cab2b9a779223b1c08e8c2","","","","","11244",""," ","key"," ","16.659259259259258","500","250","instEB1","68","30","2","0","0","70"
"","psychophysics","19","161081","0.0-19.0","63d0272f5a38c78b4d6fa5e2","64cab2b9a779223b1c08e8c2","","","","","11729",""," ","key"," ","16.65625","500","250","instEB2","41","60","2","0","0","40"
"","psychophysics","20","172758","0.0-20.0","63d0272f5a38c78b4d6fa5e2","64cab2b9a779223b1c08e8c2","","","","","11672",""," ","key"," ","16.65714285714286","500","250","instEB3","68","45","2","0","0","65"
"","psychophysics","21","189186","0.0-21.0","63d0272f5a38c78b4d6fa5e2","64cab2b9a779223b1c08e8c2","","","","","16421",""," ","key"," ","16.649087221095336","500","250","instEB4","45","40","2","0","0","40"
"","psychophysics","22","192583","0.0-22.0","63d0272f5a38c78b4d6fa5e2","64cab2b9a779223b1c08e8c2","","","","","3392",""," ","key"," ","16.61764705882353","500","250","inst","","","","","",""
"","psychophysics","23","197383","0.0-23.0","63d0272f5a38c78b4d6fa5e2","64cab2b9a779223b1c08e8c2","","","","","4795",""," ","key"," ","16.64236111111111","500","250","eb","51","47","2","0","0","45"
"","psychophysics","24","204561","0.0-24.0","63d0272f5a38c78b4d6fa5e2","64cab2b9a779223b1c08e8c2","","","","","7171",""," ","key"," ","16.648837209302325","500","250","eb","45","43","2","0","0","39"
"","psychophysics","25","208264","0.0-25.0","63d0272f5a38c78b4d6fa5e2","64cab2b9a779223b1c08e8c2","","","","","3681",""," ","key"," ","16.576576576576578","500","250","eb","34","38","2","0","0","30"
"","psychophysics","26","214471","0.0-26.0","63d0272f5a38c78b4d6fa5e2","64cab2b9a779223b1c08e8c2","","","","","6191",""," ","key"," ","16.60857908847185","500","250","eb","57","32","2","0","0","52"
"","psychophysics","27","222481","0.0-27.0","63d0272f5a38c78b4d6fa5e2","64cab2b9a779223b1c08e8c2","","","","","null","","null","key","null","16.635416666666668","500","250","eb","62","25","2","0","0","54"
"","psychophysics","28","222519","0.0-28.0","63d0272f5a38c78b4d6fa5e2","64cab2b9a779223b1c08e8c2","","","","","13",""," ","key"," ","14","500","250","eb","41","41","2","0","0","54"
"","psychophysics","29","225377","0.0-29.0","63d0272f5a38c78b4d6fa5e2","64cab2b9a779223b1c08e8c2","","","","","2853",""," ","key"," ","16.625730994152047","500","250","eb","43","40","2","0","0","40"
"","psychophysics","30","230402","0.0-30.0","63d0272f5a38c78b4d6fa5e2","64cab2b9a779223b1c08e8c2","","","","","5010",""," ","key"," ","16.605960264900663","500","250","eb","29","40","2","0","0","25"
"","psychophysics","31","237445","0.0-31.0","63d0272f5a38c78b4d6fa5e2","64cab2b9a779223b1c08e8c2","","","","","7031",""," ","key"," ","16.644549763033176","500","250","eb","52","40","2","0","0","44"
"","psychophysics","32","244832","0.0-32.0","63d0272f5a38c78b4d6fa5e2","64cab2b9a779223b1c08e8c2","","","","","7359",""," ","key"," ","16.623024830699773","500","250","eb","55","29","2","0","0","51"
"","psychophysics","33","250793","0.0-33.0","63d0272f5a38c78b4d6fa5e2","64cab2b9a779223b1c08e8c2","","","","","5942",""," ","key"," ","16.60335195530726","500","250","eb","39","48","2","0","0","34"
"","psychophysics","34","257469","0.0-34.0","63d0272f5a38c78b4d6fa5e2","64cab2b9a779223b1c08e8c2","","","","","6662",""," ","key"," ","16.625935162094763","500","250","eb","47","32","2","0","0","40"
"","psychophysics","35","262237","0.0-35.0","63d0272f5a38c78b4d6fa5e2","64cab2b9a779223b1c08e8c2","","","","","4754",""," ","key"," ","16.632867132867133","500","250","eb","46","39","2","0","0","38"
"","psychophysics","36","266805","0.0-36.0","63d0272f5a38c78b4d6fa5e2","64cab2b9a779223b1c08e8c2","","","","","4554",""," ","key"," ","16.616788321167885","500","250","eb","59","40","2","0","0","52"
"","psychophysics","37","270677","0.0-37.0","63d0272f5a38c78b4d6fa5e2","64cab2b9a779223b1c08e8c2","","","","","3861",""," ","key"," ","16.61637931034483","500","250","eb","61","44","2","0","0","54"
"","psychophysics","38","272697","0.0-38.0","63d0272f5a38c78b4d6fa5e2","64cab2b9a779223b1c08e8c2","","","","","2010",""," ","key"," ","16.52892561983471","500","250","inst","","","","","",""
"","psychophysics","39","278816","0.0-39.0","63d0272f5a38c78b4d6fa5e2","64cab2b9a779223b1c08e8c2","","","","","6114",""," ","key"," ","16.605978260869566","500","250","instZol0","0","0","","0","0",""
"","psychophysics","40","287086","0.0-40.0","63d0272f5a38c78b4d6fa5e2","64cab2b9a779223b1c08e8c2","","","","","8261",""," ","key"," ","16.659274193548388","500","250","instZol1","0.10000000000000003","-1.3","","0","0",""
"","psychophysics","41","294265","0.0-41.0","63d0272f5a38c78b4d6fa5e2","64cab2b9a779223b1c08e8c2","","","","","7172",""," ","key"," ","16.641860465116277","500","250","instZol2","-8.199999999999987","2","1","0","0",""
"","psychophysics","42","297327","0.0-42.0","63d0272f5a38c78b4d6fa5e2","64cab2b9a779223b1c08e8c2","","","","","3058",""," ","key"," ","16.554347826086957","500","250","inst","","","","","",""
"","psychophysics","43","305334","0.0-43.0","63d0272f5a38c78b4d6fa5e2","64cab2b9a779223b1c08e8c2","","","","","null","","null","key","null","16.632016632016633","500","250","zol","1.5800000000000007","-0.08","1","30","30",""
"","psychophysics","44","306782","0.0-44.0","63d0272f5a38c78b4d6fa5e2","64cab2b9a779223b1c08e8c2","","","","","1439",""," ","key"," ","16.67058823529412","500","250","zol","0.62","-0.42","1","4","5",""
"","psychophysics","45","309325","0.0-45.0","63d0272f5a38c78b4d6fa5e2","64cab2b9a779223b1c08e8c2","","","","","2530",""," ","key"," ","16.516339869281047","500","250","zol","-0.23999999999999996","0.44","1","14","-24",""
"","psychophysics","46","310248","0.0-46.0","63d0272f5a38c78b4d6fa5e2","64cab2b9a779223b1c08e8c2","","","","","911",""," ","key"," ","16.4","500","250","zol","0.62","-0.62","1","11","19",""
"","psychophysics","47","310748","0.0-47.0","63d0272f5a38c78b4d6fa5e2","64cab2b9a779223b1c08e8c2","","","","","491",""," ","key"," ","15.966666666666667","500","250","zol","0.24","-0.24","1","7","15",""
"","psychophysics","48","311507","0.0-48.0","63d0272f5a38c78b4d6fa5e2","64cab2b9a779223b1c08e8c2","","","","","748",""," ","key"," ","16.17391304347826","500","250","zol","0.19","-0.19","1","-28","6",""
"","psychophysics","49","312039","0.0-49.0","63d0272f5a38c78b4d6fa5e2","64cab2b9a779223b1c08e8c2","","","","","522",""," ","key"," ","16.25","500","250","zol","-0.48","0.48","1","21","30",""
"","psychophysics","50","312251","0.0-50.0","63d0272f5a38c78b4d6fa5e2","64cab2b9a779223b1c08e8c2","","","","","203",""," ","key"," ","15.76923076923077","500","250","zol","-0.51","0.51","1","-9","-24",""
"","psychophysics","51","312468","0.0-51.0","63d0272f5a38c78b4d6fa5e2","64cab2b9a779223b1c08e8c2","","","","","211",""," ","key"," ","16.076923076923077","500","250","zol","0.08","-0.08","1","-16","20",""
"","psychophysics","52","312638","0.0-52.0","63d0272f5a38c78b4d6fa5e2","64cab2b9a779223b1c08e8c2","","","","","163",""," ","key"," ","15.8","500","250","zol","-0.37","0.37","1","28","-17",""
"","psychophysics","53","312821","0.0-53.0","63d0272f5a38c78b4d6fa5e2","64cab2b9a779223b1c08e8c2","","","","","174",""," ","key"," ","15.636363636363637","500","250","zol","0.57","-0.57","1","-15","0",""
"","psychophysics","54","315820","0.0-54.0","63d0272f5a38c78b4d6fa5e2","64cab2b9a779223b1c08e8c2","","","","","2986",""," ","key"," ","16.6","500","250","zol","-2.550000000000001","-0.05","1","7","-20",""
"","psychophysics","55","321553","0.0-55.0","63d0272f5a38c78b4d6fa5e2","64cab2b9a779223b1c08e8c2","","","","","5723",""," ","key"," ","16.642441860465116","500","250","zol","-11.109999999999978","-0.19","1","4","-26",""
"","psychophysics","56","329558","0.0-56.0","63d0272f5a38c78b4d6fa5e2","64cab2b9a779223b1c08e8c2","","","","","null","","null","key","null","16.647916666666667","500","250","zol","4.130000000000002","-0.03","1","23","-7",""
"","psychophysics","57","337564","0.0-57.0","63d0272f5a38c78b4d6fa5e2","64cab2b9a779223b1c08e8c2","","","","","null","","null","key","null","16.668058455114824","500","250","zol","-3.630000000000002","-0.47","1","-15","15",""
"","psychophysics","58","339511","0.0-58.0","63d0272f5a38c78b4d6fa5e2","64cab2b9a779223b1c08e8c2","","","","","1934",""," ","key"," ","16.629310344827587","500","250","inst","","","","","",""
"","psychophysics","59","352717","0.0-59.0","63d0272f5a38c78b4d6fa5e2","64cab2b9a779223b1c08e8c2","","","","","13202",""," ","key"," ","16.64564943253468","500","250","instPog0","340","370","2","0","0","340"
"","psychophysics","60","364568","0.0-60.0","63d0272f5a38c78b4d6fa5e2","64cab2b9a779223b1c08e8c2","","","","","11836",""," ","key"," ","16.661040787623065","500","250","instPog1","332","370","2","0","0","340"
"","psychophysics","61","369848","0.0-61.0","63d0272f5a38c78b4d6fa5e2","64cab2b9a779223b1c08e8c2","","","","","5276",""," ","key"," ","16.645569620253166","500","250","instPog2","310","340","2","0","0","340"
"","psychophysics","62","372377","0.0-62.0","63d0272f5a38c78b4d6fa5e2","64cab2b9a779223b1c08e8c2","","","","","2524",""," ","key"," ","16.532894736842106","500","250","inst","","","","","",""
"","psychophysics","63","377558","0.0-63.0","63d0272f5a38c78b4d6fa5e2","64cab2b9a779223b1c08e8c2","","","","","5176",""," ","key"," ","16.617363344051448","500","250","pog","290","352","2","0","0","315"
"","psychophysics","64","382033","0.0-64.0","63d0272f5a38c78b4d6fa5e2","64cab2b9a779223b1c08e8c2","","","","","4461",""," ","key"," ","16.62313432835821","500","250","pog","279","319","2","0","0","300"
"","psychophysics","65","387690","0.0-65.0","63d0272f5a38c78b4d6fa5e2","64cab2b9a779223b1c08e8c2","","","","","5629",""," ","key"," ","16.6","500","250","pog","284","322","2","0","0","305"
"","psychophysics","66","392291","0.0-66.0","63d0272f5a38c78b4d6fa5e2","64cab2b9a779223b1c08e8c2","","","","","4582",""," ","key"," ","16.6231884057971","500","250","pog","362","396","2","0","0","377"
"","psychophysics","67","397842","0.0-67.0","63d0272f5a38c78b4d6fa5e2","64cab2b9a779223b1c08e8c2","","","","","5531",""," ","key"," ","16.62762762762763","500","250","pog","327","381","2","0","0","355"
"","psychophysics","68","401907","0.0-68.0","63d0272f5a38c78b4d6fa5e2","64cab2b9a779223b1c08e8c2","","","","","4052",""," ","key"," ","16.610655737704917","500","250","pog","333","385","2","0","0","372"
"","psychophysics","69","409717","0.0-69.0","63d0272f5a38c78b4d6fa5e2","64cab2b9a779223b1c08e8c2","","","","","7789",""," ","key"," ","16.63888888888889","500","250","pog","320","398","2","0","0","337"
"","psychophysics","70","413135","0.0-70.0","63d0272f5a38c78b4d6fa5e2","64cab2b9a779223b1c08e8c2","","","","","3404",""," ","key"," ","16.567961165048544","500","250","pog","298","292","2","0","0","335"
"","psychophysics","71","417435","0.0-71.0","63d0272f5a38c78b4d6fa5e2","64cab2b9a779223b1c08e8c2","","","","","4290",""," ","key"," ","16.643410852713178","500","250","pog","338","388","2","0","0","369"
"","psychophysics","72","421576","0.0-72.0","63d0272f5a38c78b4d6fa5e2","64cab2b9a779223b1c08e8c2","","","","","4134",""," ","key"," ","16.633064516129032","500","250","pog","279","359","2","0","0","314"
"","psychophysics","73","423606","0.0-73.0","63d0272f5a38c78b4d6fa5e2","64cab2b9a779223b1c08e8c2","","","","","2018",""," ","key"," ","16.557377049180328","500","250","pog","322","332","2","0","0","356"
"","psychophysics","74","425457","0.0-74.0","63d0272f5a38c78b4d6fa5e2","64cab2b9a779223b1c08e8c2","","","","","1837",""," ","key"," ","16.56756756756757","500","250","pog","299","299","2","0","0","342"
"","psychophysics","75","430287","0.0-75.0","63d0272f5a38c78b4d6fa5e2","64cab2b9a779223b1c08e8c2","","","","","4814",""," ","key"," ","16.610344827586207","500","250","pog","313","297","2","0","0","373"
"","psychophysics","76","435036","0.0-76.0","63d0272f5a38c78b4d6fa5e2","64cab2b9a779223b1c08e8c2","","","","","4728",""," ","key"," ","16.63859649122807","500","250","pog","306","388","2","0","0","345"
"","psychophysics","77","439363","0.0-77.0","63d0272f5a38c78b4d6fa5e2","64cab2b9a779223b1c08e8c2","","","","","4320",""," ","key"," ","16.633204633204635","500","250","pog","296","378","2","0","0","333"
"","psychophysics","78","442158","0.0-78.0","63d0272f5a38c78b4d6fa5e2","64cab2b9a779223b1c08e8c2","","","","","2782",""," ","key"," ","16.553571428571427","500","250","inst","","","","","",""
"","psychophysics","79","448353","0.0-79.0","63d0272f5a38c78b4d6fa5e2","64cab2b9a779223b1c08e8c2","","","","","6191",""," ","key"," ","16.631720430107528","500","250","instPz0","50","50","1","","","50"
"","psychophysics","80","454971","0.0-80.0","63d0272f5a38c78b4d6fa5e2","64cab2b9a779223b1c08e8c2","","","","","6599",""," ","key"," ","16.649874055415616","500","250","instPz1","25","25","1","","","50"
"","psychophysics","81","462862","0.0-81.0","63d0272f5a38c78b4d6fa5e2","64cab2b9a779223b1c08e8c2","","","","","7886",""," ","key"," ","16.646934460887948","500","250","instPz2","26","15","1","","","25"
"","psychophysics","82","475238","0.0-82.0","63d0272f5a38c78b4d6fa5e2","64cab2b9a779223b1c08e8c2","","","","","12371",""," ","key"," ","16.643337819650068","500","250","instPz3","111","25","1","","","50"
"","psychophysics","83","479653","0.0-83.0","63d0272f5a38c78b4d6fa5e2","64cab2b9a779223b1c08e8c2","","","","","4412",""," ","key"," ","16.633962264150945","500","250","instPz4","53","15","1","","","30"
"","psychophysics","84","482812","0.0-84.0","63d0272f5a38c78b4d6fa5e2","64cab2b9a779223b1c08e8c2","","","","","3141",""," ","key"," ","16.62962962962963","500","250","inst","","","","","",""
"","psychophysics","85","490817","0.0-85.0","63d0272f5a38c78b4d6fa5e2","64cab2b9a779223b1c08e8c2","","","","","null","","null","key","null","16.62993762993763","500","250","pz","100","20","1","","","46"
"","psychophysics","86","491103","0.0-86.0","63d0272f5a38c78b4d6fa5e2","64cab2b9a779223b1c08e8c2","","","","","277",""," ","key"," ","16.6875","500","250","pz","38","36","1","","","34"
"","psychophysics","87","494890","0.0-87.0","63d0272f5a38c78b4d6fa5e2","64cab2b9a779223b1c08e8c2","","","","","3780",""," ","key"," ","16.634361233480178","500","250","pz","86","33","1","","","37"
"","psychophysics","88","497417","0.0-88.0","63d0272f5a38c78b4d6fa5e2","64cab2b9a779223b1c08e8c2","","","","","2517",""," ","key"," ","16.596026490066226","500","250","pz","52","32","1","","","28"
"","psychophysics","89","500597","0.0-89.0","63d0272f5a38c78b4d6fa5e2","64cab2b9a779223b1c08e8c2","","","","","3171",""," ","key"," ","16.54973821989529","500","250","pz","82","43","1","","","35"
"","psychophysics","90","506083","0.0-90.0","63d0272f5a38c78b4d6fa5e2","64cab2b9a779223b1c08e8c2","","","","","5472",""," ","key"," ","16.61094224924012","500","250","pz","116","27","1","","","57"
"","psychophysics","91","508799","0.0-91.0","63d0272f5a38c78b4d6fa5e2","64cab2b9a779223b1c08e8c2","","","","","2703",""," ","key"," ","16.533742331288344","500","250","pz","82","59","1","","","45"
"","psychophysics","92","513153","0.0-92.0","63d0272f5a38c78b4d6fa5e2","64cab2b9a779223b1c08e8c2","","","","","4346",""," ","key"," ","16.591603053435115","500","250","pz","110","33","1","","","57"
"","psychophysics","93","515857","0.0-93.0","63d0272f5a38c78b4d6fa5e2","64cab2b9a779223b1c08e8c2","","","","","2695",""," ","key"," ","16.62962962962963","500","250","pz","69","38","1","","","26"
"","psychophysics","94","518609","0.0-94.0","63d0272f5a38c78b4d6fa5e2","64cab2b9a779223b1c08e8c2","","","","","2738",""," ","key"," ","16.6","500","250","pz","59","33","1","","","26"
"","psychophysics","95","523724","0.0-95.0","63d0272f5a38c78b4d6fa5e2","64cab2b9a779223b1c08e8c2","","","","","5101",""," ","key"," ","16.62540716612378","500","250","pz","145","45","1","","","56"
"","psychophysics","96","526133","0.0-96.0","63d0272f5a38c78b4d6fa5e2","64cab2b9a779223b1c08e8c2","","","","","2394",""," ","key"," ","16.59027777777778","500","250","pz","73","56","1","","","30"
"","psychophysics","97","531281","0.0-97.0","63d0272f5a38c78b4d6fa5e2","64cab2b9a779223b1c08e8c2","","","","","5135",""," ","key"," ","16.588996763754047","500","250","pz","150","49","1","","","55"
"","psychophysics","98","534547","0.0-98.0","63d0272f5a38c78b4d6fa5e2","64cab2b9a779223b1c08e8c2","","","","","3248",""," ","key"," ","16.571428571428573","500","250","pz","74","30","1","","","25"
"","psychophysics","99","536192","0.0-99.0","63d0272f5a38c78b4d6fa5e2","64cab2b9a779223b1c08e8c2","","","","","1634",""," ","key"," ","16.474747474747474","500","250","pz","58","57","1","","","23"
"","psychophysics","100","538282","0.0-100.0","63d0272f5a38c78b4d6fa5e2","64cab2b9a779223b1c08e8c2","","","","","2082",""," ","key"," ","16.576","500","250","inst","","","","","",""
"","psychophysics","101","542021","0.0-101.0","63d0272f5a38c78b4d6fa5e2","64cab2b9a779223b1c08e8c2","","","","","3733",""," ","key"," ","16.573333333333334","500","250","instBr0","NaN","0","","0","0","300"
"","psychophysics","102","547765","0.0-102.0","63d0272f5a38c78b4d6fa5e2","64cab2b9a779223b1c08e8c2","","","","","5740",""," ","key"," ","16.6453488372093","500","250","instBr1","NaN","-40","","0","0","300"
"","psychophysics","103","556973","0.0-103.0","63d0272f5a38c78b4d6fa5e2","64cab2b9a779223b1c08e8c2","","","","","9204",""," ","key"," ","16.632911392405063","500","250","instBr","-27","40","1","0","0","300"
"","psychophysics","104","557936","0.0-104.0","63d0272f5a38c78b4d6fa5e2","64cab2b9a779223b1c08e8c2","","","","","958",""," ","key"," ","16.46551724137931","500","250","inst","","","","","",""
"","psychophysics","105","562023","0.0-105.0","63d0272f5a38c78b4d6fa5e2","64cab2b9a779223b1c08e8c2","","","","","4082",""," ","key"," ","16.63673469387755","500","250","br","-20","31","1","-21","1","296"
"","psychophysics","106","565885","0.0-106.0","63d0272f5a38c78b4d6fa5e2","64cab2b9a779223b1c08e8c2","","","","","3852",""," ","key"," ","16.61904761904762","500","250","br","-20","-36","1","-30","-20","216"
"","psychophysics","107","570917","0.0-107.0","63d0272f5a38c78b4d6fa5e2","64cab2b9a779223b1c08e8c2","","","","","5019",""," ","key"," ","16.58609271523179","500","250","br","-14","40","1","-12","17","267"
"","psychophysics","108","573633","0.0-108.0","63d0272f5a38c78b4d6fa5e2","64cab2b9a779223b1c08e8c2","","","","","2705",""," ","key"," ","16.533742331288344","500","250","br","-25","-1","1","25","24","230"
"","psychophysics","109","577954","0.0-109.0","63d0272f5a38c78b4d6fa5e2","64cab2b9a779223b1c08e8c2","","","","","4311",""," ","key"," ","16.588461538461537","500","250","br","-17","15","1","21","-18","238"
"","psychophysics","110","580600","0.0-110.0","63d0272f5a38c78b4d6fa5e2","64cab2b9a779223b1c08e8c2","","","","","2631",""," ","key"," ","16.60126582278481","500","250","br","-27","-7","1","12","-14","232"
"","psychophysics","111","583570","0.0-111.0","63d0272f5a38c78b4d6fa5e2","64cab2b9a779223b1c08e8c2","","","","","2960",""," ","key"," ","16.547486033519554","500","250","br","-11","22","1","-2","10","236"
"","psychophysics","112","586416","0.0-112.0","63d0272f5a38c78b4d6fa5e2","64cab2b9a779223b1c08e8c2","","","","","2837",""," ","key"," ","16.629411764705882","500","250","br","-19","12","1","-9","10","295"
"","psychophysics","113","591163","0.0-113.0","63d0272f5a38c78b4d6fa5e2","64cab2b9a779223b1c08e8c2","","","","","4739",""," ","key"," ","16.59298245614035","500","250","br","-15","21","1","7","-27","273"
"","psychophysics","114","595874","0.0-114.0","63d0272f5a38c78b4d6fa5e2","64cab2b9a779223b1c08e8c2","","","","","4695",""," ","key"," ","16.604240282685513","500","250","br","-27","8","1","2","-21","267"
"","psychophysics","115","599072","0.0-115.0","63d0272f5a38c78b4d6fa5e2","64cab2b9a779223b1c08e8c2","","","","","3187",""," ","key"," ","16.604166666666668","500","250","br","-16","6","1","-19","5","244"
"","psychophysics","116","604371","0.0-116.0","63d0272f5a38c78b4d6fa5e2","64cab2b9a779223b1c08e8c2","","","","","5283",""," ","key"," ","16.635220125786162","500","250","br","-17","48","1","29","23","288"
"","psychophysics","117","610947","0.0-117.0","63d0272f5a38c78b4d6fa5e2","64cab2b9a779223b1c08e8c2","","","","","6561",""," ","key"," ","16.64720812182741","500","250","br","-24","44","1","-22","6","298"
"","psychophysics","118","613596","0.0-118.0","63d0272f5a38c78b4d6fa5e2","64cab2b9a779223b1c08e8c2","","","","","2632",""," ","key"," ","16.553459119496857","500","250","br","-21","-13","1","-12","27","237"
"","psychophysics","119","618820","0.0-119.0","63d0272f5a38c78b4d6fa5e2","64cab2b9a779223b1c08e8c2","","","","","5206",""," ","key"," ","16.60702875399361","500","250","br","-14","44","1","-8","-8","297"
"","psychophysics","120","620082","0.0-120.0","63d0272f5a38c78b4d6fa5e2","64cab2b9a779223b1c08e8c2","","","","","1254",""," ","key"," ","16.36842105263158","500","250","inst","","","","","",""
"","psychophysics","121","625947","0.0-121.0","63d0272f5a38c78b4d6fa5e2","64cab2b9a779223b1c08e8c2","","","","","5859",""," ","key"," ","16.607954545454547","500","250","instPz4","49","15","2","","","30"
"","psychophysics","122","626772","0.0-122.0","63d0272f5a38c78b4d6fa5e2","64cab2b9a779223b1c08e8c2","","","","","815",""," ","key"," ","16.34","500","250","inst","","","","","",""
"","psychophysics","123","634778","0.0-123.0","63d0272f5a38c78b4d6fa5e2","64cab2b9a779223b1c08e8c2","","","","","null","","null","key","null","16.647916666666667","500","250","pz","107","58","2","","","29"
"","psychophysics","124","638026","0.0-124.0","63d0272f5a38c78b4d6fa5e2","64cab2b9a779223b1c08e8c2","","","","","3226",""," ","key"," ","16.670103092783506","500","250","pz","14","29","2","","","26"
"","psychophysics","125","643570","0.0-125.0","63d0272f5a38c78b4d6fa5e2","64cab2b9a779223b1c08e8c2","","","","","5532",""," ","key"," ","16.624624624624623","500","250","pz","23","38","2","","","55"
"","psychophysics","126","648668","0.0-126.0","63d0272f5a38c78b4d6fa5e2","64cab2b9a779223b1c08e8c2","","","","","5080",""," ","key"," ","16.639344262295083","500","250","pz","20","48","2","","","57"
"","psychophysics","127","652274","0.0-127.0","63d0272f5a38c78b4d6fa5e2","64cab2b9a779223b1c08e8c2","","","","","3585",""," ","key"," ","16.566820276497698","500","250","pz","27","60","2","","","57"
"","psychophysics","128","655923","0.0-128.0","63d0272f5a38c78b4d6fa5e2","64cab2b9a779223b1c08e8c2","","","","","3637",""," ","key"," ","16.60730593607306","500","250","pz","11","25","2","","","20"
"","psychophysics","129","658403","0.0-129.0","63d0272f5a38c78b4d6fa5e2","64cab2b9a779223b1c08e8c2","","","","","2471",""," ","key"," ","16.604026845637584","500","250","pz","20","26","2","","","45"
"","psychophysics","130","661832","0.0-130.0","63d0272f5a38c78b4d6fa5e2","64cab2b9a779223b1c08e8c2","","","","","3424",""," ","key"," ","16.629268292682926","500","250","pz","15","58","2","","","39"
"","psychophysics","131","664080","0.0-131.0","63d0272f5a38c78b4d6fa5e2","64cab2b9a779223b1c08e8c2","","","","","2238",""," ","key"," ","16.533333333333335","500","250","pz","19","31","2","","","49"
"","psychophysics","132","666559","0.0-132.0","63d0272f5a38c78b4d6fa5e2","64cab2b9a779223b1c08e8c2","","","","","2468",""," ","key"," ","16.550335570469798","500","250","pz","9","26","2","","","22"
"","psychophysics","133","670284","0.0-133.0","63d0272f5a38c78b4d6fa5e2","64cab2b9a779223b1c08e8c2","","","","","3705",""," ","key"," ","16.605381165919283","500","250","pz","25","55","2","","","57"
"","psychophysics","134","673917","0.0-134.0","63d0272f5a38c78b4d6fa5e2","64cab2b9a779223b1c08e8c2","","","","","3614",""," ","key"," ","16.56422018348624","500","250","pz","26","57","2","","","41"
"","psychophysics","135","674484","0.0-135.0","63d0272f5a38c78b4d6fa5e2","64cab2b9a779223b1c08e8c2","","","","","553",""," ","key"," ","16.058823529411764","500","250","pz","26","26","2","","","56"
"","psychophysics","136","679017","0.0-136.0","63d0272f5a38c78b4d6fa5e2","64cab2b9a779223b1c08e8c2","","","","","4524",""," ","key"," ","16.584558823529413","500","250","pz","20","56","2","","","34"
"","psychophysics","137","681402","0.0-137.0","63d0272f5a38c78b4d6fa5e2","64cab2b9a779223b1c08e8c2","","","","","2364",""," ","key"," ","16.506944444444443","500","250","pz","24","39","2","","","45"
"","psychophysics","138","682521","0.0-138.0","63d0272f5a38c78b4d6fa5e2","64cab2b9a779223b1c08e8c2","","","","","1110",""," ","key"," ","16.597014925373134","500","250","inst","","","","","",""
"","psychophysics","139","693679","0.0-139.0","63d0272f5a38c78b4d6fa5e2","64cab2b9a779223b1c08e8c2","","","","","11152",""," ","key"," ","16.651718983557547","500","250","instZol2","-2.1","2","2","0","0",""
"","psychophysics","140","694925","0.0-140.0","63d0272f5a38c78b4d6fa5e2","64cab2b9a779223b1c08e8c2","","","","","1242",""," ","key"," ","16.466666666666665","500","250","inst","","","","","",""
"","psychophysics","141","702933","0.0-141.0","63d0272f5a38c78b4d6fa5e2","64cab2b9a779223b1c08e8c2","","","","","null","","null","key","null","16.639583333333334","500","250","zol","-2.040000000000001","-0.36","2","-21","28",""
"","psychophysics","142","709910","0.0-142.0","63d0272f5a38c78b4d6fa5e2","64cab2b9a779223b1c08e8c2","","","","","6956",""," ","key"," ","16.650717703349283","500","250","zol","-4.490000000000001","-0.51","2","-7","14",""
"","psychophysics","143","710069","0.0-143.0","63d0272f5a38c78b4d6fa5e2","64cab2b9a779223b1c08e8c2","","","","","139",""," ","key"," ","15.1","500","250","zol","-0.38","0.38","2","-18","11",""
"","psychophysics","144","715631","0.0-144.0","63d0272f5a38c78b4d6fa5e2","64cab2b9a779223b1c08e8c2","","","","","5556",""," ","key"," ","16.65765765765766","500","250","zol","-3.8100000000000023","0.11","2","6","-5",""
"","psychophysics","145","719834","0.0-145.0","63d0272f5a38c78b4d6fa5e2","64cab2b9a779223b1c08e8c2","","","","","4187",""," ","key"," ","16.599206349206348","500","250","zol","-3.650000000000002","0.55","2","-10","22",""
"","psychophysics","146","727841","0.0-146.0","63d0272f5a38c78b4d6fa5e2","64cab2b9a779223b1c08e8c2","","","","","null","","null","key","null","16.62162162162162","500","250","zol","-7.959999999999988","-0.64","2","-26","1",""
"","psychophysics","147","731851","0.0-147.0","63d0272f5a38c78b4d6fa5e2","64cab2b9a779223b1c08e8c2","","","","","4002",""," ","key"," ","16.669456066945607","500","250","zol","4.3900000000000015","-0.19","2","7","-10",""
"","psychophysics","148","734968","0.0-148.0","63d0272f5a38c78b4d6fa5e2","64cab2b9a779223b1c08e8c2","","","","","3105",""," ","key"," ","16.540106951871657","500","250","zol","-2.9300000000000015","0.73","2","29","9",""
"","psychophysics","149","739040","0.0-149.0","63d0272f5a38c78b4d6fa5e2","64cab2b9a779223b1c08e8c2","","","","","4060",""," ","key"," ","16.579591836734693","500","250","zol","-2.780000000000001","-0.02","2","-15","-1",""
"","psychophysics","150","743063","0.0-150.0","63d0272f5a38c78b4d6fa5e2","64cab2b9a779223b1c08e8c2","","","","","4010",""," ","key"," ","16.61410788381743","500","250","zol","-2.150000000000001","-0.35","2","6","12",""
"","psychophysics","151","748189","0.0-151.0","63d0272f5a38c78b4d6fa5e2","64cab2b9a779223b1c08e8c2","","","","","5118",""," ","key"," ","16.616883116883116","500","250","zol","-3.530000000000002","-0.37","2","-12","13",""
"","psychophysics","152","752324","0.0-152.0","63d0272f5a38c78b4d6fa5e2","64cab2b9a779223b1c08e8c2","","","","","4126",""," ","key"," ","16.629032258064516","500","250","zol","-3.9900000000000024","0.09","2","1","26",""
"","psychophysics","153","756534","0.0-153.0","63d0272f5a38c78b4d6fa5e2","64cab2b9a779223b1c08e8c2","","","","","4194",""," ","key"," ","16.61904761904762","500","250","zol","-4.53","-0.67","2","12","-14",""
"","psychophysics","154","764518","0.0-154.0","63d0272f5a38c78b4d6fa5e2","64cab2b9a779223b1c08e8c2","","","","","7968",""," ","key"," ","16.620041753653446","500","250","zol","-13.459999999999969","0.16","2","4","-18",""
"","psychophysics","155","767368","0.0-155.0","63d0272f5a38c78b4d6fa5e2","64cab2b9a779223b1c08e8c2","","","","","2825",""," ","key"," ","16.53216374269006","500","250","zol","-3.260000000000002","0.66","2","14","9",""
"","psychophysics","156","769163","0.0-156.0","63d0272f5a38c78b4d6fa5e2","64cab2b9a779223b1c08e8c2","","","","","1786",""," ","key"," ","16.47222222222222","500","250","inst","","","","","",""
"","psychophysics","157","778204","0.0-157.0","63d0272f5a38c78b4d6fa5e2","64cab2b9a779223b1c08e8c2","","","","","9035",""," ","key"," ","16.631675874769797","500","250","instPog0","160","190","1","0","0","160"
"","psychophysics","158","782321","0.0-158.0","63d0272f5a38c78b4d6fa5e2","64cab2b9a779223b1c08e8c2","","","","","4108",""," ","key"," ","16.639676113360323","500","250","instPog1","184","190","1","0","0","160"
"","psychophysics","159","786333","0.0-159.0","63d0272f5a38c78b4d6fa5e2","64cab2b9a779223b1c08e8c2","","","","","4008",""," ","key"," ","16.6375","500","250","instPog2","194","160","1","0","0","160"
"","psychophysics","160","787934","0.0-160.0","63d0272f5a38c78b4d6fa5e2","64cab2b9a779223b1c08e8c2","","","","","1596",""," ","key"," ","16.46875","500","250","inst","","","","","",""
"","psychophysics","161","792568","0.0-161.0","63d0272f5a38c78b4d6fa5e2","64cab2b9a779223b1c08e8c2","","","","","4628",""," ","key"," ","16.593525179856115","500","250","pog","211","137","1","0","0","170"
"","psychophysics","162","797006","0.0-162.0","63d0272f5a38c78b4d6fa5e2","64cab2b9a779223b1c08e8c2","","","","","4428",""," ","key"," ","16.584269662921347","500","250","pog","219","105","1","0","0","178"
"","psychophysics","163","802231","0.0-163.0","63d0272f5a38c78b4d6fa5e2","64cab2b9a779223b1c08e8c2","","","","","5211",""," ","key"," ","16.642172523961662","500","250","pog","182","116","1","0","0","148"
"","psychophysics","164","808532","0.0-164.0","63d0272f5a38c78b4d6fa5e2","64cab2b9a779223b1c08e8c2","","","","","6291",""," ","key"," ","16.624338624338623","500","250","pog","231","131","1","0","0","187"
"","psychophysics","165","811471","0.0-165.0","63d0272f5a38c78b4d6fa5e2","64cab2b9a779223b1c08e8c2","","","","","2922",""," ","key"," ","16.559322033898304","500","250","pog","183","195","1","0","0","139"
"","psychophysics","166","815488","0.0-166.0","63d0272f5a38c78b4d6fa5e2","64cab2b9a779223b1c08e8c2","","","","","4006",""," ","key"," ","16.643153526970956","500","250","pog","229","177","1","0","0","184"
"","psychophysics","167","819849","0.0-167.0","63d0272f5a38c78b4d6fa5e2","64cab2b9a779223b1c08e8c2","","","","","4350",""," ","key"," ","16.632183908045977","500","250","pog","208","180","1","0","0","175"
"","psychophysics","168","823671","0.0-168.0","63d0272f5a38c78b4d6fa5e2","64cab2b9a779223b1c08e8c2","","","","","3812",""," ","key"," ","16.582608695652173","500","250","pog","198","110","1","0","0","162"
"","psychophysics","169","826750","0.0-169.0","63d0272f5a38c78b4d6fa5e2","64cab2b9a779223b1c08e8c2","","","","","3062",""," ","key"," ","16.630434782608695","500","250","pog","201","213","1","0","0","174"
"","psychophysics","170","829891","0.0-170.0","63d0272f5a38c78b4d6fa5e2","64cab2b9a779223b1c08e8c2","","","","","3129",""," ","key"," ","16.566137566137566","500","250","pog","192","118","1","0","0","149"
"","psychophysics","171","832882","0.0-171.0","63d0272f5a38c78b4d6fa5e2","64cab2b9a779223b1c08e8c2","","","","","2980",""," ","key"," ","16.608938547486034","500","250","pog","232","176","1","0","0","183"
"","psychophysics","172","835613","0.0-172.0","63d0272f5a38c78b4d6fa5e2","64cab2b9a779223b1c08e8c2","","","","","2723",""," ","key"," ","16.554878048780488","500","250","pog","173","141","1","0","0","137"
"","psychophysics","173","838243","0.0-173.0","63d0272f5a38c78b4d6fa5e2","64cab2b9a779223b1c08e8c2","","","","","2624",""," ","key"," ","16.582278481012658","500","250","pog","190","140","1","0","0","139"
"","psychophysics","174","841395","0.0-174.0","63d0272f5a38c78b4d6fa5e2","64cab2b9a779223b1c08e8c2","","","","","3133",""," ","key"," ","16.608465608465607","500","250","pog","228","148","1","0","0","184"
"","psychophysics","175","844621","0.0-175.0","63d0272f5a38c78b4d6fa5e2","64cab2b9a779223b1c08e8c2","","","","","3218",""," ","key"," ","16.5979381443299","500","250","pog","240","150","1","0","0","196"
"","psychophysics","176","845908","0.0-176.0","63d0272f5a38c78b4d6fa5e2","64cab2b9a779223b1c08e8c2","","","","","1279",""," ","key"," ","16.584415584415584","500","250","inst","","","","","",""
"","psychophysics","177","857970","0.0-177.0","63d0272f5a38c78b4d6fa5e2","64cab2b9a779223b1c08e8c2","","","","","12055",""," ","key"," ","16.623448275862067","500","250","instBr","30","40","2","0","0","300"
"","psychophysics","178","859418","0.0-178.0","63d0272f5a38c78b4d6fa5e2","64cab2b9a779223b1c08e8c2","","","","","1426",""," ","key"," ","16.61627906976744","500","250","inst","","","","","",""
"","psychophysics","179","862635","0.0-179.0","63d0272f5a38c78b4d6fa5e2","64cab2b9a779223b1c08e8c2","","","","","3212",""," ","key"," ","16.54922279792746","500","250","br","32","30","2","17","-12","225"
"","psychophysics","180","865745","0.0-180.0","63d0272f5a38c78b4d6fa5e2","64cab2b9a779223b1c08e8c2","","","","","3098",""," ","key"," ","16.55614973262032","500","250","br","32","19","2","-7","14","271"
"","psychophysics","181","869787","0.0-181.0","63d0272f5a38c78b4d6fa5e2","64cab2b9a779223b1c08e8c2","","","","","4033",""," ","key"," ","16.609053497942387","500","250","br","31","1","2","5","12","241"
"","psychophysics","182","875991","0.0-182.0","63d0272f5a38c78b4d6fa5e2","64cab2b9a779223b1c08e8c2","","","","","6188",""," ","key"," ","16.64516129032258","500","250","br","31","-41","2","-13","30","264"
"","psychophysics","183","878385","0.0-183.0","63d0272f5a38c78b4d6fa5e2","64cab2b9a779223b1c08e8c2","","","","","2374",""," ","key"," ","16.594405594405593","500","250","br","39","19","2","-5","26","212"
"","psychophysics","184","882574","0.0-184.0","63d0272f5a38c78b4d6fa5e2","64cab2b9a779223b1c08e8c2","","","","","4178",""," ","key"," ","16.575396825396826","500","250","br","30","-41","2","-15","-14","293"
"","psychophysics","185","886486","0.0-185.0","63d0272f5a38c78b4d6fa5e2","64cab2b9a779223b1c08e8c2","","","","","3900",""," ","key"," ","16.623931623931625","500","250","br","31","-34","2","-28","-21","268"
"","psychophysics","186","889540","0.0-186.0","63d0272f5a38c78b4d6fa5e2","64cab2b9a779223b1c08e8c2","","","","","3043",""," ","key"," ","16.54891304347826","500","250","br","33","-4","2","29","-27","219"
"","psychophysics","187","895242","0.0-187.0","63d0272f5a38c78b4d6fa5e2","64cab2b9a779223b1c08e8c2","","","","","5686",""," ","key"," ","16.640350877192983","500","250","br","37","13","2","13","-26","240"
"","psychophysics","188","897899","0.0-188.0","63d0272f5a38c78b4d6fa5e2","64cab2b9a779223b1c08e8c2","","","","","2642",""," ","key"," ","16.59119496855346","500","250","br","36","24","2","18","29","256"
"","psychophysics","189","902205","0.0-189.0","63d0272f5a38c78b4d6fa5e2","64cab2b9a779223b1c08e8c2","","","","","4296",""," ","key"," ","16.602316602316602","500","250","br","23","-44","2","8","4","267"
"","psychophysics","190","904654","0.0-190.0","63d0272f5a38c78b4d6fa5e2","64cab2b9a779223b1c08e8c2","","","","","2444",""," ","key"," ","16.612244897959183","500","250","br","26","2","2","-5","8","267"
"","psychophysics","191","906605","0.0-191.0","63d0272f5a38c78b4d6fa5e2","64cab2b9a779223b1c08e8c2","","","","","1941",""," ","key"," ","16.623931623931625","500","250","br","1","-13","2","10","22","244"
"","psychophysics","192","909819","0.0-192.0","63d0272f5a38c78b4d6fa5e2","64cab2b9a779223b1c08e8c2","","","","","3204",""," ","key"," ","16.630208333333332","500","250","br","28","-8","2","-14","-25","242"
"","psychophysics","193","911369","0.0-193.0","63d0272f5a38c78b4d6fa5e2","64cab2b9a779223b1c08e8c2","","","","","1540",""," ","key"," ","16.419354838709676","500","250","br","32","31","2","20","-13","211"
"","psychophysics","194","912497","0.0-194.0","63d0272f5a38c78b4d6fa5e2","64cab2b9a779223b1c08e8c2","","","","","1119",""," ","key"," ","16.352941176470587","500","250","inst","","","","","",""
"","psychophysics","195","919550","0.0-195.0","63d0272f5a38c78b4d6fa5e2","64cab2b9a779223b1c08e8c2","","","","","7047",""," ","key"," ","16.62647754137116","500","250","instEB4","45","40","1","0","0","40"
"","psychophysics","196","920531","0.0-196.0","63d0272f5a38c78b4d6fa5e2","64cab2b9a779223b1c08e8c2","","","","","976",""," ","key"," ","16.322033898305083","500","250","inst","","","","","",""
"","psychophysics","197","925495","0.0-197.0","63d0272f5a38c78b4d6fa5e2","64cab2b9a779223b1c08e8c2","","","","","4958",""," ","key"," ","16.607382550335572","500","250","eb","56","45","1","0","0","48"
"","psychophysics","198","927427","0.0-198.0","63d0272f5a38c78b4d6fa5e2","64cab2b9a779223b1c08e8c2","","","","","1920",""," ","key"," ","16.54310344827586","500","250","eb","28","27","1","0","0","41"
"","psychophysics","199","932261","0.0-199.0","63d0272f5a38c78b4d6fa5e2","64cab2b9a779223b1c08e8c2","","","","","4819",""," ","key"," ","16.620689655172413","500","250","eb","63","32","1","0","0","54"
"","psychophysics","200","935823","0.0-200.0","63d0272f5a38c78b4d6fa5e2","64cab2b9a779223b1c08e8c2","","","","","3551",""," ","key"," ","16.593457943925234","500","250","eb","28","32","1","0","0","25"
"","psychophysics","201","938539","0.0-201.0","63d0272f5a38c78b4d6fa5e2","64cab2b9a779223b1c08e8c2","","","","","2704",""," ","key"," ","16.613496932515336","500","250","eb","41","46","1","0","0","34"
"","psychophysics","202","942542","0.0-202.0","63d0272f5a38c78b4d6fa5e2","64cab2b9a779223b1c08e8c2","","","","","3993",""," ","key"," ","16.629166666666666","500","250","eb","53","33","1","0","0","47"
"","psychophysics","203","947516","0.0-203.0","63d0272f5a38c78b4d6fa5e2","64cab2b9a779223b1c08e8c2","","","","","4959",""," ","key"," ","16.630872483221477","500","250","eb","51","36","1","0","0","49"
"","psychophysics","204","949279","0.0-204.0","63d0272f5a38c78b4d6fa5e2","64cab2b9a779223b1c08e8c2","","","","","1749",""," ","key"," ","16.471698113207548","500","250","eb","49","49","1","0","0","38"
"","psychophysics","205","953638","0.0-205.0","63d0272f5a38c78b4d6fa5e2","64cab2b9a779223b1c08e8c2","","","","","4352",""," ","key"," ","16.614503816793892","500","250","eb","40","51","1","0","0","34"
"","psychophysics","206","957183","0.0-206.0","63d0272f5a38c78b4d6fa5e2","64cab2b9a779223b1c08e8c2","","","","","3527",""," ","key"," ","16.63679245283019","500","250","eb","46","28","1","0","0","39"
"","psychophysics","207","962636","0.0-207.0","63d0272f5a38c78b4d6fa5e2","64cab2b9a779223b1c08e8c2","","","","","5443",""," ","key"," ","16.6085626911315","500","250","eb","50","26","1","0","0","48"
"","psychophysics","208","965035","0.0-208.0","63d0272f5a38c78b4d6fa5e2","64cab2b9a779223b1c08e8c2","","","","","2384",""," ","key"," ","16.5","500","250","eb","42","27","1","0","0","43"
"","psychophysics","209","970800","0.0-209.0","63d0272f5a38c78b4d6fa5e2","64cab2b9a779223b1c08e8c2","","","","","5757",""," ","key"," ","16.609826589595375","500","250","eb","49","45","1","0","0","46"
"","psychophysics","210","974819","0.0-210.0","63d0272f5a38c78b4d6fa5e2","64cab2b9a779223b1c08e8c2","","","","","4004",""," ","key"," ","16.593360995850624","500","250","eb","53","40","1","0","0","46"
"","psychophysics","211","977967","0.0-211.0","63d0272f5a38c78b4d6fa5e2","64cab2b9a779223b1c08e8c2","","","","","3136",""," ","key"," ","16.55026455026455","500","250","eb","56","32","1","0","0","52"
