"success","trial_type","trial_index","time_elapsed","internal_node_id","pid","sid","timeout","failed_images","failed_audio","failed_video","rt","stimulus","response","response_type","key_press","avg_frame_time","center_x","center_y","task","resp","start","parA","version","jitterX","jitterY"
"true","fullscreen","0","4314","0.0-0.0","60d5353d0248aca07f34435e","64cab0c5e7ad99f28c8f2b31","","","","","","","","","","","","","","","","","","",""
"true","preload","1","4426","0.0-1.0","60d5353d0248aca07f34435e","64cab0c5e7ad99f28c8f2b31","false","[]","[]","[]","","","","","","","","","","","","","","",""
"","html-button-response","2","5705","0.0-2.0","60d5353d0248aca07f34435e","64cab0c5e7ad99f28c8f2b31","","","","","1279","Please Make Sure Your Audio Is On.","0","","","","","","","","","","","",""
"","psychophysics","3","10226","0.0-3.0","60d5353d0248aca07f34435e","64cab0c5e7ad99f28c8f2b31","","","","","4517",""," ","key"," ","16.683729629629624","960","250","","","","","","",""
"","psychophysics","4","13505","0.0-4.0","60d5353d0248aca07f34435e","64cab0c5e7ad99f28c8f2b31","","","","","3277",""," ","key"," ","16.68366666666667","500","250","inst","","","","","",""
"","psychophysics","5","16985","0.0-5.0","60d5353d0248aca07f34435e","64cab0c5e7ad99f28c8f2b31","","","","","3479",""," ","key"," ","16.683259615384607","500","250","sample0","","","","","",""
"","psychophysics","6","18626","0.0-6.0","60d5353d0248aca07f34435e","64cab0c5e7ad99f28c8f2b31","","","","","1639",""," ","key"," ","16.683484536082464","500","250","sample1","","","","","",""
"","psychophysics","7","28371","0.0-7.0","60d5353d0248aca07f34435e","64cab0c5e7ad99f28c8f2b31","","","","","9744",""," ","key"," ","16.683384219554025","500","250","sample2","100","","","","",""
"","psychophysics","8","33644","0.0-8.0","60d5353d0248aca07f34435e","64cab0c5e7ad99f28c8f2b31","","","","","5272",""," ","key"," ","16.683273015873002","500","250","sample3","100","","","","",""
"","psychophysics","9","42758","0.0-9.0","60d5353d0248aca07f34435e","64cab0c5e7ad99f28c8f2b31","","","","","9112",""," ","key"," ","16.683774725274727","500","250","sample4","100","","","","",""
"","psychophysics","10","46047","0.0-10.0","60d5353d0248aca07f34435e","64cab0c5e7ad99f28c8f2b31","","","","","3287",""," ","key"," ","16.682158163265314","500","250","sample5","","","","","",""
"","psychophysics","11","54856","0.0-11.0","60d5353d0248aca07f34435e","64cab0c5e7ad99f28c8f2b31","","","","","8808",""," ","key"," ","16.68342504743833","500","250","sample6","500","","","","",""
"","psychophysics","12","58544","0.0-12.0","60d5353d0248aca07f34435e","64cab0c5e7ad99f28c8f2b31","","","","","3688",""," ","key"," ","16.682527272727285","500","250","inst","","","","","",""
"","psychophysics","13","61401","0.0-13.0","60d5353d0248aca07f34435e","64cab0c5e7ad99f28c8f2b31","","","","","2856",""," ","key"," ","16.681905882352936","500","250","inst","","","","","",""
"","psychophysics","14","64889","0.0-14.0","60d5353d0248aca07f34435e","64cab0c5e7ad99f28c8f2b31","","","","","3488",""," ","key"," ","16.68401923076922","500","250","inst","","","","","",""
"","psychophysics","15","66825","0.0-15.0","60d5353d0248aca07f34435e","64cab0c5e7ad99f28c8f2b31","","","","","1935",""," ","key"," ","16.68262608695659","500","250","inst","","","","","",""
"","psychophysics","16","68154","0.0-16.0","60d5353d0248aca07f34435e","64cab0c5e7ad99f28c8f2b31","","","","","1328",""," ","key"," ","16.68179746835435","500","250","inst","","","","","",""
"","psychophysics","17","72425","0.0-17.0","60d5353d0248aca07f34435e","64cab0c5e7ad99f28c8f2b31","","","","","4270",""," ","key"," ","16.68334509803926","500","250","instPz0","50","50","50","2","",""
"","psychophysics","18","82755","0.0-18.0","60d5353d0248aca07f34435e","64cab0c5e7ad99f28c8f2b31","","","","","10329",""," ","key"," ","16.683398058252422","500","250","instPz1","46","25","50","2","",""
"","psychophysics","19","89245","0.0-19.0","60d5353d0248aca07f34435e","64cab0c5e7ad99f28c8f2b31","","","","","6488",""," ","key"," ","16.683306701030908","500","250","instPz2","25","15","25","2","",""
"","psychophysics","20","98934","0.0-20.0","60d5353d0248aca07f34435e","64cab0c5e7ad99f28c8f2b31","","","","","9688",""," ","key"," ","16.683391379310343","500","250","instPz3","44","25","50","2","",""
"","psychophysics","21","107759","0.0-21.0","60d5353d0248aca07f34435e","64cab0c5e7ad99f28c8f2b31","","","","","8824",""," ","key"," ","16.68335795454547","500","250","instPz4","22","15","30","2","",""
"","psychophysics","22","111896","0.0-22.0","60d5353d0248aca07f34435e","64cab0c5e7ad99f28c8f2b31","","","","","4136",""," ","key"," ","16.683481781376546","500","250","inst","","","","","",""
"","psychophysics","23","117433","0.0-23.0","60d5353d0248aca07f34435e","64cab0c5e7ad99f28c8f2b31","","","","","5535",""," ","key"," ","16.683746223564977","500","250","pz","19","33","21","2","",""
"","psychophysics","24","124266","0.0-24.0","60d5353d0248aca07f34435e","64cab0c5e7ad99f28c8f2b31","","","","","6832",""," ","key"," ","16.682583333333348","500","250","pz","22","50","25","2","",""
"","psychophysics","25","129003","0.0-25.0","60d5353d0248aca07f34435e","64cab0c5e7ad99f28c8f2b31","","","","","4735",""," ","key"," ","16.683901060070653","500","250","pz","47","50","56","2","",""
"","psychophysics","26","135637","0.0-26.0","60d5353d0248aca07f34435e","64cab0c5e7ad99f28c8f2b31","","","","","6632",""," ","key"," ","16.683607052896743","500","250","pz","31","53","38","2","",""
"","psychophysics","27","138389","0.0-27.0","60d5353d0248aca07f34435e","64cab0c5e7ad99f28c8f2b31","","","","","2751",""," ","key"," ","16.68413414634149","500","250","pz","21","20","27","2","",""
"","psychophysics","28","146391","0.0-28.0","60d5353d0248aca07f34435e","64cab0c5e7ad99f28c8f2b31","","","","","null","","null","key","null","16.682926778242706","500","250","pz","43","23","57","2","",""
"","psychophysics","29","146462","0.0-29.0","60d5353d0248aca07f34435e","64cab0c5e7ad99f28c8f2b31","","","","","70",""," ","key"," ","16.676250000004075","500","250","pz","32","32","46","2","",""
"","psychophysics","30","149510","0.0-30.0","60d5353d0248aca07f34435e","64cab0c5e7ad99f28c8f2b31","","","","","3047",""," ","key"," ","16.68349723756916","500","250","pz","20","26","25","2","",""
"","psychophysics","31","154623","0.0-31.0","60d5353d0248aca07f34435e","64cab0c5e7ad99f28c8f2b31","","","","","5112",""," ","key"," ","16.683339869281088","500","250","pz","21","58","24","2","",""
"","psychophysics","32","159216","0.0-32.0","60d5353d0248aca07f34435e","64cab0c5e7ad99f28c8f2b31","","","","","4591",""," ","key"," ","16.684302919708067","500","250","pz","45","39","52","2","",""
"","psychophysics","33","164193","0.0-33.0","60d5353d0248aca07f34435e","64cab0c5e7ad99f28c8f2b31","","","","","4975",""," ","key"," ","16.68310774410765","500","250","pz","21","46","23","2","",""
"","psychophysics","34","169458","0.0-34.0","60d5353d0248aca07f34435e","64cab0c5e7ad99f28c8f2b31","","","","","5261",""," ","key"," ","16.683342857142847","500","250","pz","27","49","31","2","",""
"","psychophysics","35","172362","0.0-35.0","60d5353d0248aca07f34435e","64cab0c5e7ad99f28c8f2b31","","","","","2903",""," ","key"," ","16.681768786127147","500","250","pz","50","51","57","2","",""
"","psychophysics","36","176827","0.0-36.0","60d5353d0248aca07f34435e","64cab0c5e7ad99f28c8f2b31","","","","","4464",""," ","key"," ","16.68310861423226","500","250","pz","47","56","55","2","",""
"","psychophysics","37","181043","0.0-37.0","60d5353d0248aca07f34435e","64cab0c5e7ad99f28c8f2b31","","","","","4215",""," ","key"," ","16.683932270916397","500","250","pz","41","56","42","2","",""
"","psychophysics","38","184876","0.0-38.0","60d5353d0248aca07f34435e","64cab0c5e7ad99f28c8f2b31","","","","","3830",""," ","key"," ","16.683471615720585","500","250","inst","","","","","",""
"","psychophysics","39","187205","0.0-39.0","60d5353d0248aca07f34435e","64cab0c5e7ad99f28c8f2b31","","","","","2327",""," ","key"," ","16.682546762590004","500","250","instBr0","NaN","0","300","","0","0"
"","psychophysics","40","192990","0.0-40.0","60d5353d0248aca07f34435e","64cab0c5e7ad99f28c8f2b31","","","","","5783",""," ","key"," ","16.682933526011514","500","250","instBr1","NaN","-40","300","","0","0"
"","psychophysics","41","202487","0.0-41.0","60d5353d0248aca07f34435e","64cab0c5e7ad99f28c8f2b31","","","","","9495",""," ","key"," ","16.683360915492916","500","250","instBr","-11","40","300","1","0","0"
"","psychophysics","42","204072","0.0-42.0","60d5353d0248aca07f34435e","64cab0c5e7ad99f28c8f2b31","","","","","1584",""," ","key"," ","16.683925531914785","500","250","inst","","","","","",""
"","psychophysics","43","207705","0.0-43.0","60d5353d0248aca07f34435e","64cab0c5e7ad99f28c8f2b31","","","","","3631",""," ","key"," ","16.682792626728098","500","250","br","-12","21","232","1","16","-15"
"","psychophysics","44","210513","0.0-44.0","60d5353d0248aca07f34435e","64cab0c5e7ad99f28c8f2b31","","","","","2807",""," ","key"," ","16.68462874251505","500","250","br","-12","-8","297","1","-5","-19"
"","psychophysics","45","215058","0.0-45.0","60d5353d0248aca07f34435e","64cab0c5e7ad99f28c8f2b31","","","","","4543",""," ","key"," ","16.682361623616284","500","250","br","-12","10","224","1","-27","-3"
"","psychophysics","46","219706","0.0-46.0","60d5353d0248aca07f34435e","64cab0c5e7ad99f28c8f2b31","","","","","4647",""," ","key"," ","16.683086330935204","500","250","br","-16","17","230","1","-16","4"
"","psychophysics","47","226043","0.0-47.0","60d5353d0248aca07f34435e","64cab0c5e7ad99f28c8f2b31","","","","","6336",""," ","key"," ","16.683240105540907","500","250","br","-15","9","220","1","25","21"
"","psychophysics","48","229556","0.0-48.0","60d5353d0248aca07f34435e","64cab0c5e7ad99f28c8f2b31","","","","","3511",""," ","key"," ","16.683311004784713","500","250","br","-21","-37","241","1","12","-11"
"","psychophysics","49","231676","0.0-49.0","60d5353d0248aca07f34435e","64cab0c5e7ad99f28c8f2b31","","","","","2118",""," ","key"," ","16.68308730158721","500","250","br","-18","-16","256","1","15","-17"
"","psychophysics","50","235021","0.0-50.0","60d5353d0248aca07f34435e","64cab0c5e7ad99f28c8f2b31","","","","","3343",""," ","key"," ","16.683505000000004","500","250","br","-17","-40","205","1","0","-29"
"","psychophysics","51","238805","0.0-51.0","60d5353d0248aca07f34435e","64cab0c5e7ad99f28c8f2b31","","","","","3783",""," ","key"," ","16.683190265486783","500","250","br","-19","26","208","1","19","-16"
"","psychophysics","52","242358","0.0-52.0","60d5353d0248aca07f34435e","64cab0c5e7ad99f28c8f2b31","","","","","3551",""," ","key"," ","16.683377358490514","500","250","br","-17","-45","239","1","-13","9"
"","psychophysics","53","243838","0.0-53.0","60d5353d0248aca07f34435e","64cab0c5e7ad99f28c8f2b31","","","","","1479",""," ","key"," ","16.68333333333313","500","250","br","-18","-8","240","1","24","4"
"","psychophysics","54","249071","0.0-54.0","60d5353d0248aca07f34435e","64cab0c5e7ad99f28c8f2b31","","","","","5232",""," ","key"," ","16.683335463258757","500","250","br","-13","-24","218","1","-30","-8"
"","psychophysics","55","251647","0.0-55.0","60d5353d0248aca07f34435e","64cab0c5e7ad99f28c8f2b31","","","","","2575",""," ","key"," ","16.68351633986934","500","250","br","-12","-6","206","1","-26","17"
"","psychophysics","56","255896","0.0-56.0","60d5353d0248aca07f34435e","64cab0c5e7ad99f28c8f2b31","","","","","4245",""," ","key"," ","16.683295275590552","500","250","br","-15","-22","294","1","20","20"
"","psychophysics","57","258064","0.0-57.0","60d5353d0248aca07f34435e","64cab0c5e7ad99f28c8f2b31","","","","","2167",""," ","key"," ","16.68175968992237","500","250","br","-20","-20","205","1","-2","-17"
"","psychophysics","58","259505","0.0-58.0","60d5353d0248aca07f34435e","64cab0c5e7ad99f28c8f2b31","","","","","1440",""," ","key"," ","16.68555294117644","500","250","inst","","","","","",""
"","psychophysics","59","265722","0.0-59.0","60d5353d0248aca07f34435e","64cab0c5e7ad99f28c8f2b31","","","","","6215",""," ","key"," ","16.683370967741954","500","250","instPog0","340","370","340","2","0","0"
"","psychophysics","60","271370","0.0-60.0","60d5353d0248aca07f34435e","64cab0c5e7ad99f28c8f2b31","","","","","5648",""," ","key"," ","16.683621301775013","500","250","instPog1","342","370","340","2","0","0"
"","psychophysics","61","276747","0.0-61.0","60d5353d0248aca07f34435e","64cab0c5e7ad99f28c8f2b31","","","","","5376",""," ","key"," ","16.68280062305297","500","250","instPog2","326","340","340","2","0","0"
"","psychophysics","62","278388","0.0-62.0","60d5353d0248aca07f34435e","64cab0c5e7ad99f28c8f2b31","","","","","1640",""," ","key"," ","16.68656701030937","500","250","inst","","","","","",""
"","psychophysics","63","283716","0.0-63.0","60d5353d0248aca07f34435e","64cab0c5e7ad99f28c8f2b31","","","","","5327",""," ","key"," ","16.68280250783685","500","250","pog","300","370","324","2","0","0"
"","psychophysics","64","286277","0.0-64.0","60d5353d0248aca07f34435e","64cab0c5e7ad99f28c8f2b31","","","","","2560",""," ","key"," ","16.683815789473698","500","250","pog","356","360","374","2","0","0"
"","psychophysics","65","289670","0.0-65.0","60d5353d0248aca07f34435e","64cab0c5e7ad99f28c8f2b31","","","","","3392",""," ","key"," ","16.682334975369294","500","250","pog","326","362","353","2","0","0"
"","psychophysics","66","292742","0.0-66.0","60d5353d0248aca07f34435e","64cab0c5e7ad99f28c8f2b31","","","","","3070",""," ","key"," ","16.683464480874438","500","250","pog","330","312","359","2","0","0"
"","psychophysics","67","299983","0.0-67.0","60d5353d0248aca07f34435e","64cab0c5e7ad99f28c8f2b31","","","","","7240",""," ","key"," ","16.683378752886817","500","250","pog","342","298","368","2","0","0"
"","psychophysics","68","303208","0.0-68.0","60d5353d0248aca07f34435e","64cab0c5e7ad99f28c8f2b31","","","","","3223",""," ","key"," ","16.68256770833341","500","250","pog","327","331","354","2","0","0"
"","psychophysics","69","309481","0.0-69.0","60d5353d0248aca07f34435e","64cab0c5e7ad99f28c8f2b31","","","","","6272",""," ","key"," ","16.68337866666665","500","250","pog","322","388","347","2","0","0"
"","psychophysics","70","311305","0.0-70.0","60d5353d0248aca07f34435e","64cab0c5e7ad99f28c8f2b31","","","","","1823",""," ","key"," ","16.68140740740691","500","250","pog","298","296","317","2","0","0"
"","psychophysics","71","316801","0.0-71.0","60d5353d0248aca07f34435e","64cab0c5e7ad99f28c8f2b31","","","","","5496",""," ","key"," ","16.682696048632273","500","250","pog","287","371","303","2","0","0"
"","psychophysics","72","321442","0.0-72.0","60d5353d0248aca07f34435e","64cab0c5e7ad99f28c8f2b31","","","","","4640",""," ","key"," ","16.684411552346763","500","250","pog","354","302","370","2","0","0"
"","psychophysics","73","323643","0.0-73.0","60d5353d0248aca07f34435e","64cab0c5e7ad99f28c8f2b31","","","","","2199",""," ","key"," ","16.684007633587644","500","250","pog","308","296","328","2","0","0"
"","psychophysics","74","326571","0.0-74.0","60d5353d0248aca07f34435e","64cab0c5e7ad99f28c8f2b31","","","","","2928",""," ","key"," ","16.682005747126404","500","250","pog","325","371","346","2","0","0"
"","psychophysics","75","330068","0.0-75.0","60d5353d0248aca07f34435e","64cab0c5e7ad99f28c8f2b31","","","","","3488",""," ","key"," ","16.683650717703216","500","250","pog","292","316","317","2","0","0"
"","psychophysics","76","335861","0.0-76.0","60d5353d0248aca07f34435e","64cab0c5e7ad99f28c8f2b31","","","","","5791",""," ","key"," ","16.683739884393127","500","250","pog","295","371","321","2","0","0"
"","psychophysics","77","341206","0.0-77.0","60d5353d0248aca07f34435e","64cab0c5e7ad99f28c8f2b31","","","","","5344",""," ","key"," ","16.683562499999972","500","250","pog","340","286","359","2","0","0"
"","psychophysics","78","342407","0.0-78.0","60d5353d0248aca07f34435e","64cab0c5e7ad99f28c8f2b31","","","","","1199",""," ","key"," ","16.68107042253562","500","250","inst","","","","","",""
"","psychophysics","79","344638","0.0-79.0","60d5353d0248aca07f34435e","64cab0c5e7ad99f28c8f2b31","","","","","2230",""," ","key"," ","16.682159090908968","500","250","instEB0","40","40","40","","0","0"
"","psychophysics","80","350143","0.0-80.0","60d5353d0248aca07f34435e","64cab0c5e7ad99f28c8f2b31","","","","","5504",""," ","key"," ","16.683486322188532","500","250","instEB1","69","30","70","1","0","0"
"","psychophysics","81","359144","0.0-81.0","60d5353d0248aca07f34435e","64cab0c5e7ad99f28c8f2b31","","","","","9000",""," ","key"," ","16.683311688311782","500","250","instEB2","42","60","40","1","0","0"
"","psychophysics","82","363361","0.0-82.0","60d5353d0248aca07f34435e","64cab0c5e7ad99f28c8f2b31","","","","","4215",""," ","key"," ","16.68311507936515","500","250","instEB3","69","45","65","1","0","0"
"","psychophysics","83","369842","0.0-83.0","60d5353d0248aca07f34435e","64cab0c5e7ad99f28c8f2b31","","","","","6479",""," ","key"," ","16.683333333333362","500","250","instEB4","47","40","40","1","0","0"
"","psychophysics","84","371394","0.0-84.0","60d5353d0248aca07f34435e","64cab0c5e7ad99f28c8f2b31","","","","","1551",""," ","key"," ","16.683315217391204","500","250","inst","","","","","",""
"","psychophysics","85","374490","0.0-85.0","60d5353d0248aca07f34435e","64cab0c5e7ad99f28c8f2b31","","","","","3095",""," ","key"," ","16.68342162162141","500","250","eb","55","52","47","1","0","0"
"","psychophysics","86","378155","0.0-86.0","60d5353d0248aca07f34435e","64cab0c5e7ad99f28c8f2b31","","","","","3663",""," ","key"," ","16.68292660550444","500","250","eb","57","34","50","1","0","0"
"","psychophysics","87","383428","0.0-87.0","60d5353d0248aca07f34435e","64cab0c5e7ad99f28c8f2b31","","","","","5268",""," ","key"," ","16.68414285714269","500","250","eb","57","25","52","1","0","0"
"","psychophysics","88","389117","0.0-88.0","60d5353d0248aca07f34435e","64cab0c5e7ad99f28c8f2b31","","","","","5686",""," ","key"," ","16.68402352941168","500","250","eb","57","29","52","1","0","0"
"","psychophysics","89","391790","0.0-89.0","60d5353d0248aca07f34435e","64cab0c5e7ad99f28c8f2b31","","","","","2670",""," ","key"," ","16.68476875000015","500","250","eb","45","39","44","1","0","0"
"","psychophysics","90","396054","0.0-90.0","60d5353d0248aca07f34435e","64cab0c5e7ad99f28c8f2b31","","","","","4263",""," ","key"," ","16.684122047244067","500","250","eb","35","45","32","1","0","0"
"","psychophysics","91","400343","0.0-91.0","60d5353d0248aca07f34435e","64cab0c5e7ad99f28c8f2b31","","","","","4287",""," ","key"," ","16.683269531250062","500","250","eb","50","48","41","1","0","0"
"","psychophysics","92","402127","0.0-92.0","60d5353d0248aca07f34435e","64cab0c5e7ad99f28c8f2b31","","","","","1782",""," ","key"," ","16.681962264150947","500","250","eb","48","38","44","1","0","0"
"","psychophysics","93","405800","0.0-93.0","60d5353d0248aca07f34435e","64cab0c5e7ad99f28c8f2b31","","","","","3672",""," ","key"," ","16.684479452054852","500","250","eb","46","29","42","1","0","0"
"","psychophysics","94","408824","0.0-94.0","60d5353d0248aca07f34435e","64cab0c5e7ad99f28c8f2b31","","","","","3021",""," ","key"," ","16.684298342541478","500","250","eb","28","36","27","1","0","0"
"","psychophysics","95","411777","0.0-95.0","60d5353d0248aca07f34435e","64cab0c5e7ad99f28c8f2b31","","","","","2952",""," ","key"," ","16.68253977272715","500","250","eb","50","36","45","1","0","0"
"","psychophysics","96","417609","0.0-96.0","60d5353d0248aca07f34435e","64cab0c5e7ad99f28c8f2b31","","","","","5830",""," ","key"," ","16.682951149425165","500","250","eb","29","50","26","1","0","0"
"","psychophysics","97","420666","0.0-97.0","60d5353d0248aca07f34435e","64cab0c5e7ad99f28c8f2b31","","","","","3055",""," ","key"," ","16.68422527472517","500","250","eb","43","46","33","1","0","0"
"","psychophysics","98","423355","0.0-98.0","60d5353d0248aca07f34435e","64cab0c5e7ad99f28c8f2b31","","","","","2686",""," ","key"," ","16.68327950310542","500","250","eb","40","36","34","1","0","0"
"","psychophysics","99","426035","0.0-99.0","60d5353d0248aca07f34435e","64cab0c5e7ad99f28c8f2b31","","","","","2678",""," ","key"," ","16.68352201257857","500","250","eb","57","41","51","1","0","0"
"","psychophysics","100","426931","0.0-100.0","60d5353d0248aca07f34435e","64cab0c5e7ad99f28c8f2b31","","","","","895",""," ","key"," ","16.68232075471699","500","250","inst","","","","","",""
"","psychophysics","101","428660","0.0-101.0","60d5353d0248aca07f34435e","64cab0c5e7ad99f28c8f2b31","","","","","1728",""," ","key"," ","16.68342718446584","500","250","instZol0","0","0","","","0","0"
"","psychophysics","102","437988","0.0-102.0","60d5353d0248aca07f34435e","64cab0c5e7ad99f28c8f2b31","","","","","9327",""," ","key"," ","16.683293906810125","500","250","instZol1","2.7755575615628914e-17","-1.3","","","0","0"
"","psychophysics","103","455272","0.0-103.0","60d5353d0248aca07f34435e","64cab0c5e7ad99f28c8f2b31","","","","","17281",""," ","key"," ","16.683603864734327","500","250","instZol2","1.600000000000001","2","","1","0","0"
"","psychophysics","104","456216","0.0-104.0","60d5353d0248aca07f34435e","64cab0c5e7ad99f28c8f2b31","","","","","944",""," ","key"," ","16.679218181818513","500","250","inst","","","","","",""
"","psychophysics","105","464220","0.0-105.0","60d5353d0248aca07f34435e","64cab0c5e7ad99f28c8f2b31","","","","","null","","null","key","null","16.68295615866388","500","250","zol","1.03","-0.33","","1","25","-9"
"","psychophysics","106","470170","0.0-106.0","60d5353d0248aca07f34435e","64cab0c5e7ad99f28c8f2b31","","","","","5949",""," ","key"," ","16.68386516853934","500","250","zol","0.6899999999999998","0.31","","1","10","-2"
"","psychophysics","107","472347","0.0-107.0","60d5353d0248aca07f34435e","64cab0c5e7ad99f28c8f2b31","","","","","2174",""," ","key"," ","16.681868217054344","500","250","zol","0.85","0.35","","1","7","-30"
"","psychophysics","108","474699","0.0-108.0","60d5353d0248aca07f34435e","64cab0c5e7ad99f28c8f2b31","","","","","2351",""," ","key"," ","16.684835714285978","500","250","zol","1.07","0.43","","1","-6","-6"
"","psychophysics","109","477188","0.0-109.0","60d5353d0248aca07f34435e","64cab0c5e7ad99f28c8f2b31","","","","","2487",""," ","key"," ","16.682222972972856","500","250","zol","1.3200000000000003","-0.02","","1","-24","24"
"","psychophysics","110","480132","0.0-110.0","60d5353d0248aca07f34435e","64cab0c5e7ad99f28c8f2b31","","","","","2942",""," ","key"," ","16.684534090909107","500","250","zol","1.3800000000000003","-0.68","","1","-23","18"
"","psychophysics","111","484740","0.0-111.0","60d5353d0248aca07f34435e","64cab0c5e7ad99f28c8f2b31","","","","","4607",""," ","key"," ","16.682632727272683","500","250","zol","0.7899999999999999","0.71","","1","10","-29"
"","psychophysics","112","489974","0.0-112.0","60d5353d0248aca07f34435e","64cab0c5e7ad99f28c8f2b31","","","","","5231",""," ","key"," ","16.683741214057502","500","250","zol","1.12","0.28","","1","7","-1"
"","psychophysics","113","491966","0.0-113.0","60d5353d0248aca07f34435e","64cab0c5e7ad99f28c8f2b31","","","","","1990",""," ","key"," ","16.680771186440726","500","250","zol","0.7999999999999999","0.5","","1","-28","20"
"","psychophysics","114","494006","0.0-114.0","60d5353d0248aca07f34435e","64cab0c5e7ad99f28c8f2b31","","","","","2038",""," ","key"," ","16.68331404958711","500","250","zol","0.7699999999999999","0.73","","1","-17","21"
"","psychophysics","115","499079","0.0-115.0","60d5353d0248aca07f34435e","64cab0c5e7ad99f28c8f2b31","","","","","5069",""," ","key"," ","16.683411184210662","500","250","zol","1.27","0.13","","1","2","3"
"","psychophysics","116","501679","0.0-116.0","60d5353d0248aca07f34435e","64cab0c5e7ad99f28c8f2b31","","","","","2597",""," ","key"," ","16.68331818181837","500","250","zol","1.2100000000000002","-0.51","","1","-15","-22"
"","psychophysics","117","505640","0.0-117.0","60d5353d0248aca07f34435e","64cab0c5e7ad99f28c8f2b31","","","","","3955",""," ","key"," ","16.68342616033759","500","250","zol","0.9499999999999998","0.75","","1","-8","-8"
"","psychophysics","118","512049","0.0-118.0","60d5353d0248aca07f34435e","64cab0c5e7ad99f28c8f2b31","","","","","6406",""," ","key"," ","16.683297650130648","500","250","zol","0.7","-0.6","","1","-24","-14"
"","psychophysics","119","515417","0.0-119.0","60d5353d0248aca07f34435e","64cab0c5e7ad99f28c8f2b31","","","","","3366",""," ","key"," ","16.684099502487637","500","250","zol","0.8400000000000001","-0.34","","1","26","-23"
"","psychophysics","120","516402","0.0-120.0","60d5353d0248aca07f34435e","64cab0c5e7ad99f28c8f2b31","","","","","983",""," ","key"," ","16.683775862069712","500","250","inst","","","","","",""
"","psychophysics","121","527700","0.0-121.0","60d5353d0248aca07f34435e","64cab0c5e7ad99f28c8f2b31","","","","","11296",""," ","key"," ","16.683032544378758","500","250","instZol2","-1.3999999999999995","2","","2","0","0"
"","psychophysics","122","528844","0.0-122.0","60d5353d0248aca07f34435e","64cab0c5e7ad99f28c8f2b31","","","","","1143",""," ","key"," ","16.682999999998547","500","250","inst","","","","","",""
"","psychophysics","123","536213","0.0-123.0","60d5353d0248aca07f34435e","64cab0c5e7ad99f28c8f2b31","","","","","7367",""," ","key"," ","16.683118181818017","500","250","zol","-0.8200000000000001","-0.48","","2","-22","29"
"","psychophysics","124","541294","0.0-124.0","60d5353d0248aca07f34435e","64cab0c5e7ad99f28c8f2b31","","","","","5079",""," ","key"," ","16.684138157894747","500","250","zol","-0.9599999999999999","-0.24","","2","0","24"
"","psychophysics","125","544246","0.0-125.0","60d5353d0248aca07f34435e","64cab0c5e7ad99f28c8f2b31","","","","","2950",""," ","key"," ","16.682914772727102","500","250","zol","-0.91","-0.09","","2","-14","-16"
"","psychophysics","126","547607","0.0-126.0","60d5353d0248aca07f34435e","64cab0c5e7ad99f28c8f2b31","","","","","3358",""," ","key"," ","16.682044999999924","500","250","zol","-0.9299999999999999","-0.07","","2","1","-12"
"","psychophysics","127","552159","0.0-127.0","60d5353d0248aca07f34435e","64cab0c5e7ad99f28c8f2b31","","","","","4551",""," ","key"," ","16.683257352941247","500","250","zol","-0.24999999999999997","0.35","","2","2","18"
"","psychophysics","128","554959","0.0-128.0","60d5353d0248aca07f34435e","64cab0c5e7ad99f28c8f2b31","","","","","2798",""," ","key"," ","16.68344910179605","500","250","zol","-0.8699999999999999","-0.33","","2","28","9"
"","psychophysics","129","556824","0.0-129.0","60d5353d0248aca07f34435e","64cab0c5e7ad99f28c8f2b31","","","","","1862",""," ","key"," ","16.684234234233816","500","250","zol","-1.6100000000000005","0.41","","2","-23","26"
"","psychophysics","130","558648","0.0-130.0","60d5353d0248aca07f34435e","64cab0c5e7ad99f28c8f2b31","","","","","1822",""," ","key"," ","16.683555555555763","500","250","zol","-1.4700000000000002","0.07","","2","-11","15"
"","psychophysics","131","561104","0.0-131.0","60d5353d0248aca07f34435e","64cab0c5e7ad99f28c8f2b31","","","","","2455",""," ","key"," ","16.68325342465677","500","250","zol","-1.28","-0.32","","2","-20","-27"
"","psychophysics","132","563601","0.0-132.0","60d5353d0248aca07f34435e","64cab0c5e7ad99f28c8f2b31","","","","","2493",""," ","key"," ","16.684046979865446","500","250","zol","-1.8300000000000007","0.33","","2","-13","12"
"","psychophysics","133","566121","0.0-133.0","60d5353d0248aca07f34435e","64cab0c5e7ad99f28c8f2b31","","","","","2518",""," ","key"," ","16.684480000000136","500","250","zol","-1.35","-0.15","","2","14","1"
"","psychophysics","134","569225","0.0-134.0","60d5353d0248aca07f34435e","64cab0c5e7ad99f28c8f2b31","","","","","3103",""," ","key"," ","16.682675675675274","500","250","zol","-1.4100000000000004","-0.59","","2","-4","22"
"","psychophysics","135","572426","0.0-135.0","60d5353d0248aca07f34435e","64cab0c5e7ad99f28c8f2b31","","","","","3198",""," ","key"," ","16.683293193717688","500","250","zol","-0.9799999999999999","0.58","","2","-24","-14"
"","psychophysics","136","576251","0.0-136.0","60d5353d0248aca07f34435e","64cab0c5e7ad99f28c8f2b31","","","","","3823",""," ","key"," ","16.684157894736895","500","250","zol","-0.7","-0.7","","2","-24","21"
"","psychophysics","137","578859","0.0-137.0","60d5353d0248aca07f34435e","64cab0c5e7ad99f28c8f2b31","","","","","2607",""," ","key"," ","16.682160256409613","500","250","zol","-1.4400000000000004","-0.16","","2","7","-11"
"","psychophysics","138","580692","0.0-138.0","60d5353d0248aca07f34435e","64cab0c5e7ad99f28c8f2b31","","","","","1831",""," ","key"," ","16.685305555555882","500","250","inst","","","","","",""
"","psychophysics","139","589461","0.0-139.0","60d5353d0248aca07f34435e","64cab0c5e7ad99f28c8f2b31","","","","","8766",""," ","key"," ","16.683655238095227","500","250","instPz4","40","15","30","1","",""
"","psychophysics","140","590406","0.0-140.0","60d5353d0248aca07f34435e","64cab0c5e7ad99f28c8f2b31","","","","","944",""," ","key"," ","16.682017857142323","500","250","inst","","","","","",""
"","psychophysics","141","593013","0.0-141.0","60d5353d0248aca07f34435e","64cab0c5e7ad99f28c8f2b31","","","","","2605",""," ","key"," ","16.683574193548562","500","250","pz","46","26","34","1","",""
"","psychophysics","142","596790","0.0-142.0","60d5353d0248aca07f34435e","64cab0c5e7ad99f28c8f2b31","","","","","3775",""," ","key"," ","16.682177777777735","500","250","pz","68","39","59","1","",""
"","psychophysics","143","600583","0.0-143.0","60d5353d0248aca07f34435e","64cab0c5e7ad99f28c8f2b31","","","","","3789",""," ","key"," ","16.683418502202894","500","250","pz","37","39","28","1","",""
"","psychophysics","144","602823","0.0-144.0","60d5353d0248aca07f34435e","64cab0c5e7ad99f28c8f2b31","","","","","2239",""," ","key"," ","16.68329323308203","500","250","pz","46","41","33","1","",""
"","psychophysics","145","605255","0.0-145.0","60d5353d0248aca07f34435e","64cab0c5e7ad99f28c8f2b31","","","","","2431",""," ","key"," ","16.682882758620966","500","250","pz","37","35","30","1","",""
"","psychophysics","146","609424","0.0-146.0","60d5353d0248aca07f34435e","64cab0c5e7ad99f28c8f2b31","","","","","4168",""," ","key"," ","16.682823293172405","500","250","pz","71","42","57","1","",""
"","psychophysics","147","612089","0.0-147.0","60d5353d0248aca07f34435e","64cab0c5e7ad99f28c8f2b31","","","","","2664",""," ","key"," ","16.683284810126782","500","250","pz","47","55","32","1","",""
"","psychophysics","148","614281","0.0-148.0","60d5353d0248aca07f34435e","64cab0c5e7ad99f28c8f2b31","","","","","2191",""," ","key"," ","16.684488549617914","500","250","pz","35","39","22","1","",""
"","psychophysics","149","617185","0.0-149.0","60d5353d0248aca07f34435e","64cab0c5e7ad99f28c8f2b31","","","","","2903",""," ","key"," ","16.68284393063574","500","250","pz","67","44","44","1","",""
"","psychophysics","150","620267","0.0-150.0","60d5353d0248aca07f34435e","64cab0c5e7ad99f28c8f2b31","","","","","3080",""," ","key"," ","16.68355434782659","500","250","pz","53","38","43","1","",""
"","psychophysics","151","622131","0.0-151.0","60d5353d0248aca07f34435e","64cab0c5e7ad99f28c8f2b31","","","","","1862",""," ","key"," ","16.681390909090723","500","250","pz","59","47","57","1","",""
"","psychophysics","152","624803","0.0-152.0","60d5353d0248aca07f34435e","64cab0c5e7ad99f28c8f2b31","","","","","2671",""," ","key"," ","16.682962264151037","500","250","pz","43","41","33","1","",""
"","psychophysics","153","629915","0.0-153.0","60d5353d0248aca07f34435e","64cab0c5e7ad99f28c8f2b31","","","","","5109",""," ","key"," ","16.68323202614385","500","250","pz","46","60","32","1","",""
"","psychophysics","154","632236","0.0-154.0","60d5353d0248aca07f34435e","64cab0c5e7ad99f28c8f2b31","","","","","2319",""," ","key"," ","16.683181159420148","500","250","pz","56","53","52","1","",""
"","psychophysics","155","633749","0.0-155.0","60d5353d0248aca07f34435e","64cab0c5e7ad99f28c8f2b31","","","","","1510",""," ","key"," ","16.683511111111795","500","250","pz","55","51","58","1","",""
"","psychophysics","156","634668","0.0-156.0","60d5353d0248aca07f34435e","64cab0c5e7ad99f28c8f2b31","","","","","918",""," ","key"," ","16.682185185184977","500","250","inst","","","","","",""
"","psychophysics","157","639061","0.0-157.0","60d5353d0248aca07f34435e","64cab0c5e7ad99f28c8f2b31","","","","","4392",""," ","key"," ","16.68327480916046","500","250","instPog0","160","190","160","1","0","0"
"","psychophysics","158","641413","0.0-158.0","60d5353d0248aca07f34435e","64cab0c5e7ad99f28c8f2b31","","","","","2351",""," ","key"," ","16.683121428571344","500","250","instPog1","164","190","160","1","0","0"
"","psychophysics","159","644350","0.0-159.0","60d5353d0248aca07f34435e","64cab0c5e7ad99f28c8f2b31","","","","","2935",""," ","key"," ","16.683085714285262","500","250","instPog2","174","160","160","1","0","0"
"","psychophysics","160","644918","0.0-160.0","60d5353d0248aca07f34435e","64cab0c5e7ad99f28c8f2b31","","","","","567",""," ","key"," ","16.683666666666273","500","250","inst","","","","","",""
"","psychophysics","161","648766","0.0-161.0","60d5353d0248aca07f34435e","64cab0c5e7ad99f28c8f2b31","","","","","3847",""," ","key"," ","16.683100000000053","500","250","pog","206","108","184","1","0","0"
"","psychophysics","162","651295","0.0-162.0","60d5353d0248aca07f34435e","64cab0c5e7ad99f28c8f2b31","","","","","2527",""," ","key"," ","16.684653333333166","500","250","pog","163","155","151","1","0","0"
"","psychophysics","163","653607","0.0-163.0","60d5353d0248aca07f34435e","64cab0c5e7ad99f28c8f2b31","","","","","2307",""," ","key"," ","16.683768115941927","500","250","pog","196","188","181","1","0","0"
"","psychophysics","164","656296","0.0-164.0","60d5353d0248aca07f34435e","64cab0c5e7ad99f28c8f2b31","","","","","2687",""," ","key"," ","16.68263125000012","500","250","pog","164","188","147","1","0","0"
"","psychophysics","165","657992","0.0-165.0","60d5353d0248aca07f34435e","64cab0c5e7ad99f28c8f2b31","","","","","1695",""," ","key"," ","16.681346534653382","500","250","pog","217","219","196","1","0","0"
"","psychophysics","166","661544","0.0-166.0","60d5353d0248aca07f34435e","64cab0c5e7ad99f28c8f2b31","","","","","3551",""," ","key"," ","16.683278301886705","500","250","pog","177","125","157","1","0","0"
"","psychophysics","167","664177","0.0-167.0","60d5353d0248aca07f34435e","64cab0c5e7ad99f28c8f2b31","","","","","2631",""," ","key"," ","16.683108280254913","500","250","pog","147","101","135","1","0","0"
"","psychophysics","168","667289","0.0-168.0","60d5353d0248aca07f34435e","64cab0c5e7ad99f28c8f2b31","","","","","3111",""," ","key"," ","16.6826216216218","500","250","pog","203","165","185","1","0","0"
"","psychophysics","169","671474","0.0-169.0","60d5353d0248aca07f34435e","64cab0c5e7ad99f28c8f2b31","","","","","4184",""," ","key"," ","16.684435999999753","500","250","pog","155","101","135","1","0","0"
"","psychophysics","170","675051","0.0-170.0","60d5353d0248aca07f34435e","64cab0c5e7ad99f28c8f2b31","","","","","3575",""," ","key"," ","16.683413145539543","500","250","pog","188","128","161","1","0","0"
"","psychophysics","171","678828","0.0-171.0","60d5353d0248aca07f34435e","64cab0c5e7ad99f28c8f2b31","","","","","3776",""," ","key"," ","16.682517699115348","500","250","pog","202","102","173","1","0","0"
"","psychophysics","172","680164","0.0-172.0","60d5353d0248aca07f34435e","64cab0c5e7ad99f28c8f2b31","","","","","1335",""," ","key"," ","16.685101265823057","500","250","pog","176","168","169","1","0","0"
"","psychophysics","173","681908","0.0-173.0","60d5353d0248aca07f34435e","64cab0c5e7ad99f28c8f2b31","","","","","1743",""," ","key"," ","16.681504854368434","500","250","pog","192","166","175","1","0","0"
"","psychophysics","174","684276","0.0-174.0","60d5353d0248aca07f34435e","64cab0c5e7ad99f28c8f2b31","","","","","2367",""," ","key"," ","16.684347517730615","500","250","pog","199","179","177","1","0","0"
"","psychophysics","175","688302","0.0-175.0","60d5353d0248aca07f34435e","64cab0c5e7ad99f28c8f2b31","","","","","4024",""," ","key"," ","16.68280912863083","500","250","pog","209","149","188","1","0","0"
"","psychophysics","176","700135","0.0-176.0","60d5353d0248aca07f34435e","64cab0c5e7ad99f28c8f2b31","","","","","11832",""," ","key"," ","16.68308757062137","500","250","inst","","","","","",""
"","psychophysics","177","704216","0.0-177.0","60d5353d0248aca07f34435e","64cab0c5e7ad99f28c8f2b31","","","","","4080",""," ","key"," ","16.682144032922043","500","250","instBr","17","40","300","2","0","0"
"","psychophysics","178","704759","0.0-178.0","60d5353d0248aca07f34435e","64cab0c5e7ad99f28c8f2b31","","","","","543",""," ","key"," ","16.688031249999767","500","250","inst","","","","","",""
"","psychophysics","179","706232","0.0-179.0","60d5353d0248aca07f34435e","64cab0c5e7ad99f28c8f2b31","","","","","1467",""," ","key"," ","16.684942528736595","500","250","br","15","5","240","2","-9","25"
"","psychophysics","180","710689","0.0-180.0","60d5353d0248aca07f34435e","64cab0c5e7ad99f28c8f2b31","","","","","4456",""," ","key"," ","16.682736842104852","500","250","br","16","-17","235","2","28","27"
"","psychophysics","181","712313","0.0-181.0","60d5353d0248aca07f34435e","64cab0c5e7ad99f28c8f2b31","","","","","1622",""," ","key"," ","16.683494845360816","500","250","br","13","6","252","2","-17","25"
"","psychophysics","182","715489","0.0-182.0","60d5353d0248aca07f34435e","64cab0c5e7ad99f28c8f2b31","","","","","3175",""," ","key"," ","16.68422222222268","500","250","br","13","13","228","2","25","14"
"","psychophysics","183","718874","0.0-183.0","60d5353d0248aca07f34435e","64cab0c5e7ad99f28c8f2b31","","","","","3383",""," ","key"," ","16.683202970296946","500","250","br","20","-11","274","2","-7","17"
"","psychophysics","184","726875","0.0-184.0","60d5353d0248aca07f34435e","64cab0c5e7ad99f28c8f2b31","","","","","null","","null","key","null","16.68325469728597","500","250","br","19","-41","294","2","5","23"
"","psychophysics","185","730859","0.0-185.0","60d5353d0248aca07f34435e","64cab0c5e7ad99f28c8f2b31","","","","","3983",""," ","key"," ","16.683443037974296","500","250","br","17","-46","219","2","-15","29"
"","psychophysics","186","733228","0.0-186.0","60d5353d0248aca07f34435e","64cab0c5e7ad99f28c8f2b31","","","","","2366",""," ","key"," ","16.685035460993504","500","250","br","19","49","211","2","-5","-26"
"","psychophysics","187","734772","0.0-187.0","60d5353d0248aca07f34435e","64cab0c5e7ad99f28c8f2b31","","","","","1542",""," ","key"," ","16.683282608696533","500","250","br","14","17","234","2","18","26"
"","psychophysics","188","736292","0.0-188.0","60d5353d0248aca07f34435e","64cab0c5e7ad99f28c8f2b31","","","","","1519",""," ","key"," ","16.68201111111169","500","250","br","15","13","207","2","26","-15"
"","psychophysics","189","739709","0.0-189.0","60d5353d0248aca07f34435e","64cab0c5e7ad99f28c8f2b31","","","","","3415",""," ","key"," ","16.684166666666986","500","250","br","19","-21","283","2","-4","16"
"","psychophysics","190","742037","0.0-190.0","60d5353d0248aca07f34435e","64cab0c5e7ad99f28c8f2b31","","","","","2327",""," ","key"," ","16.68225362318892","500","250","br","18","45","225","2","-26","16"
"","psychophysics","191","746574","0.0-191.0","60d5353d0248aca07f34435e","64cab0c5e7ad99f28c8f2b31","","","","","4535",""," ","key"," ","16.683151291512775","500","250","br","18","-9","220","2","-18","2"
"","psychophysics","192","749174","0.0-192.0","60d5353d0248aca07f34435e","64cab0c5e7ad99f28c8f2b31","","","","","2597",""," ","key"," ","16.68439354838713","500","250","br","15","-2","280","2","15","-21"
"","psychophysics","193","752870","0.0-193.0","60d5353d0248aca07f34435e","64cab0c5e7ad99f28c8f2b31","","","","","3695",""," ","key"," ","16.68242986425357","500","250","br","19","-9","233","2","11","5"
"","psychophysics","194","760376","0.0-194.0","60d5353d0248aca07f34435e","64cab0c5e7ad99f28c8f2b31","","","","","7505",""," ","key"," ","16.683389755011273","500","250","inst","","","","","",""
"","psychophysics","195","765513","0.0-195.0","60d5353d0248aca07f34435e","64cab0c5e7ad99f28c8f2b31","","","","","5135",""," ","key"," ","16.683423452768686","500","250","instEB4","55","40","40","2","0","0"
"","psychophysics","196","766201","0.0-196.0","60d5353d0248aca07f34435e","64cab0c5e7ad99f28c8f2b31","","","","","687",""," ","key"," ","16.676975000000674","500","250","inst","","","","","",""
"","psychophysics","197","767833","0.0-197.0","60d5353d0248aca07f34435e","64cab0c5e7ad99f28c8f2b31","","","","","1631",""," ","key"," ","16.682752577320326","500","250","eb","49","42","38","2","0","0"
"","psychophysics","198","770482","0.0-198.0","60d5353d0248aca07f34435e","64cab0c5e7ad99f28c8f2b31","","","","","2646",""," ","key"," ","16.68325477706974","500","250","eb","61","49","49","2","0","0"
"","psychophysics","199","772706","0.0-199.0","60d5353d0248aca07f34435e","64cab0c5e7ad99f28c8f2b31","","","","","2221",""," ","key"," ","16.68341353383437","500","250","eb","32","32","29","2","0","0"
"","psychophysics","200","774162","0.0-200.0","60d5353d0248aca07f34435e","64cab0c5e7ad99f28c8f2b31","","","","","1454",""," ","key"," ","16.683465116279645","500","250","eb","47","38","42","2","0","0"
"","psychophysics","201","775490","0.0-201.0","60d5353d0248aca07f34435e","64cab0c5e7ad99f28c8f2b31","","","","","1327",""," ","key"," ","16.683316455695696","500","250","eb","32","26","29","2","0","0"
"","psychophysics","202","779627","0.0-202.0","60d5353d0248aca07f34435e","64cab0c5e7ad99f28c8f2b31","","","","","4135",""," ","key"," ","16.6832186234818","500","250","eb","47","24","41","2","0","0"
"","psychophysics","203","783603","0.0-203.0","60d5353d0248aca07f34435e","64cab0c5e7ad99f28c8f2b31","","","","","3974",""," ","key"," ","16.68324472573841","500","250","eb","54","32","40","2","0","0"
"","psychophysics","204","784996","0.0-204.0","60d5353d0248aca07f34435e","64cab0c5e7ad99f28c8f2b31","","","","","1391",""," ","key"," ","16.68563414634086","500","250","eb","52","50","43","2","0","0"
"","psychophysics","205","786564","0.0-205.0","60d5353d0248aca07f34435e","64cab0c5e7ad99f28c8f2b31","","","","","1566",""," ","key"," ","16.68320430107465","500","250","eb","38","31","33","2","0","0"
"","psychophysics","206","791598","0.0-206.0","60d5353d0248aca07f34435e","64cab0c5e7ad99f28c8f2b31","","","","","5031",""," ","key"," ","16.684352159468407","500","250","eb","64","50","54","2","0","0"
"","psychophysics","207","795022","0.0-207.0","60d5353d0248aca07f34435e","64cab0c5e7ad99f28c8f2b31","","","","","3423",""," ","key"," ","16.68223039215709","500","250","eb","36","48","30","2","0","0"
"","psychophysics","208","797406","0.0-208.0","60d5353d0248aca07f34435e","64cab0c5e7ad99f28c8f2b31","","","","","2382",""," ","key"," ","16.683330985915873","500","250","eb","48","53","38","2","0","0"
"","psychophysics","209","799447","0.0-209.0","60d5353d0248aca07f34435e","64cab0c5e7ad99f28c8f2b31","","","","","2039",""," ","key"," ","16.68492622950809","500","250","eb","38","30","28","2","0","0"
"","psychophysics","210","801255","0.0-210.0","60d5353d0248aca07f34435e","64cab0c5e7ad99f28c8f2b31","","","","","1807",""," ","key"," ","16.681317757010007","500","250","eb","43","39","34","2","0","0"
"","psychophysics","211","805368","0.0-211.0","60d5353d0248aca07f34435e","64cab0c5e7ad99f28c8f2b31","","","","","4111",""," ","key"," ","16.68346938775491","500","250","eb","50","25","40","2","0","0"
