"success","trial_type","trial_index","time_elapsed","internal_node_id","pid","sid","timeout","failed_images","failed_audio","failed_video","rt","response_type","key_press","response","avg_frame_time","center_x","center_y","task","ml_len","ml_start","ml_x","ml_y","resp","targ","back"
"true","fullscreen","0","4743","0.0-0.0","13","38","","","","","","","","","","","","","","","","","","",""
"true","preload","1","4750","0.0-1.0","13","38","false","[]","[]","[]","","","","","","","","","","","","","","",""
"","psychophysics","2","10695","0.0-2.0","13","38","","","","","5935","key"," "," ","16.777142857142856","500","250","inst","","","","","","",""
"","psychophysics","3","12823","0.0-3.0","13","38","","","","","2120","key"," "," ","16.669291338582678","500","250","inst","","","","","","",""
"","psychophysics","4","34656","0.0-4.0","13","38","","","","","21827","key"," "," ","16.666921313980136","500","250","instML","188","-31.333333333333332","30","-14","-26.33333333333337","",""
"","psychophysics","5","38394","0.0-5.0","13","38","","","","","3732","key"," "," ","16.659192825112108","500","250","inst","","","","","","",""
"","psychophysics","6","47207","0.0-6.0","13","38","","","","","8809","key"," "," ","16.664772727272727","500","250","ml","200","-27","0","-3","-25","",""
"","psychophysics","7","67632","0.0-7.0","13","38","","","","","20420","key"," "," ","16.666666666666668","500","250","ml","218","8","-21","19","-8","",""
"","psychophysics","8","81001","0.0-8.0","13","38","","","","","13365","key"," "," ","16.66084788029925","500","250","ml","234","-40","26","-9","-23","",""
"","psychophysics","9","95041","0.0-9.0","13","38","","","","","14034","key"," "," ","16.66706302021403","500","250","ml","246","-51","24","-25","-16","",""
"","psychophysics","10","101518","0.0-10.0","13","38","","","","","6473","key"," "," ","16.664948453608247","500","250","ml","212","-10","-25","10","-12","",""
"","psychophysics","11","189546","0.0-11.0","13","38","","","","","88018","key"," "," ","16.666477272727274","500","250","ml","228","-53","26","-12","-14","",""
"","psychophysics","12","203363","0.0-12.0","13","38","","","","","13814","key"," "," ","16.667874396135264","500","250","ml","186","46","28","-13","-7","",""
"","psychophysics","13","209621","0.0-13.0","13","38","","","","","6251","key"," "," ","16.661333333333335","500","250","ml","160","-22","-18","-24","-11","",""
"","psychophysics","14","217500","0.0-14.0","13","38","","","","","7874","key"," "," ","16.666666666666668","500","250","ml","192","-34","-18","-21","-8","",""
"","psychophysics","15","391166","0.0-15.0","13","38","","","","","173657","key"," "," ","16.666186774162586","500","250","ml","194","35","28","-20","-11","",""
"","psychophysics","16","395816","0.0-16.0","13","38","","","","","4646","key"," "," ","16.66906474820144","500","250","ml","170","-20","-13","-9","-14","",""
"","psychophysics","17","398904","0.0-17.0","13","38","","","","","3085","key"," "," ","16.846153846153847","500","250","ml","230","-3","-16","10","-3","",""
"","psychophysics","18","407360","0.0-18.0","13","38","","","","","8451","key"," "," ","16.662721893491124","500","250","ml","154","27","-16","-29","-6","",""
"","psychophysics","19","419458","0.0-19.0","13","38","","","","","12094","key"," "," ","16.666206896551724","500","250","ml","246","-60","17","1","-7","",""
"","psychophysics","20","428955","0.0-20.0","13","38","","","","","9489","key"," "," ","16.66725352112676","500","250","ml","224","18","-12","-1","-5","",""
"","psychophysics","21","430454","0.0-21.0","13","38","","","","","1489","key"," "," ","16.640449438202246","500","250","inst","","","","","","",""
"","psychophysics","22","478318","0.0-22.0","13","38","","","","","47853","key"," "," ","16.66597004528039","500","250","instPog","","","","","130","130",""
"","psychophysics","23","493414","0.0-23.0","13","38","","","","","15091","key"," "," ","16.666298342541438","500","250","instPog","","","","","134","130",""
"","psychophysics","24","506050","0.0-24.0","13","38","","","","","12632","key"," "," ","16.667107001321003","500","250","instPog","","","","","142","130",""
"","psychophysics","25","512402","0.0-25.0","13","38","","","","","6348","key"," "," ","16.66578947368421","500","250","inst","","","","","","",""
"","psychophysics","26","516936","0.0-26.0","13","38","","","","","4531","key"," "," ","16.66789667896679","500","250","pog","","","","","159","141",""
"","psychophysics","27","527445","0.0-27.0","13","38","","","","","10503","key"," "," ","16.66190476190476","500","250","pog","","","","","143","134",""
"","psychophysics","28","540229","0.0-28.0","13","38","","","","","12780","key"," "," ","16.665796344647518","500","250","pog","","","","","168","155",""
"","psychophysics","29","550159","0.0-29.0","13","38","","","","","9926","key"," "," ","16.665546218487396","500","250","pog","","","","","187","175",""
"","psychophysics","30","558253","0.0-30.0","13","38","","","","","8090","key"," "," ","16.667355371900825","500","250","pog","","","","","178","161",""
"","psychophysics","31","576843","0.0-31.0","13","38","","","","","18586","key"," "," ","16.666367713004483","500","250","pog","","","","","200","191",""
"","psychophysics","32","585253","0.0-32.0","13","38","","","","","8406","key"," "," ","16.667992047713717","500","250","pog","","","","","202","189",""
"","psychophysics","33","607104","0.0-33.0","13","38","","","","","21845","key"," "," ","16.664885496183206","500","250","pog","","","","","194","180",""
"","psychophysics","34","616560","0.0-34.0","13","38","","","","","9452","key"," "," ","16.664902998236332","500","250","pog","","","","","212","199",""
"","psychophysics","35","621190","0.0-35.0","13","38","","","","","4626","key"," "," ","16.666666666666668","500","250","pog","","","","","155","145",""
"","psychophysics","36","628019","0.0-36.0","13","38","","","","","6826","key"," "," ","16.660146699266505","500","250","pog","","","","","168","158",""
"","psychophysics","37","635177","0.0-37.0","13","38","","","","","7153","key"," "," ","16.666666666666668","500","250","pog","","","","","183","169",""
"","psychophysics","38","637726","0.0-38.0","13","38","","","","","2546","key"," "," ","16.664473684210527","500","250","pog","","","","","160","142",""
"","psychophysics","39","651136","0.0-39.0","13","38","","","","","13406","key"," "," ","16.666251556662516","500","250","pog","","","","","176","163",""
"","psychophysics","40","656862","0.0-40.0","13","38","","","","","5722","key"," "," ","16.667638483965014","500","250","pog","","","","","187","180",""
"","psychophysics","41","658217","0.0-41.0","13","38","","","","","1351","key"," "," ","16.675","500","250","inst","","","","","","",""
"","psychophysics","42","663192","0.0-42.0","13","38","","","","","4968","key"," "," ","16.67003367003367","500","250","instTilt","","","","","NaN","0","0"
"","psychophysics","43","665488","0.0-43.0","13","38","","","","","2293","key"," "," ","16.64963503649635","500","250","instTilt","","","","","0","0","0"
"","psychophysics","44","682714","0.0-44.0","13","38","","","","","17222","key"," "," ","16.665053242981607","500","250","instTilt","","","","","4","0","0"
"","psychophysics","45","683630","0.0-45.0","13","38","","","","","913","key"," "," ","16.666666666666668","500","250","inst","","","","","","",""
"","psychophysics","46","724293","0.0-46.0","13","38","","","","","40655","key"," "," ","16.666940114848238","500","250","tilt","","","","","-3","-2","1"
"","psychophysics","47","729202","0.0-47.0","13","38","","","","","4905","key"," "," ","16.656462585034014","500","250","tilt","","","","","-6","-7","1"
"","psychophysics","48","735103","0.0-48.0","13","38","","","","","5895","key"," "," ","16.671388101983002","500","250","tilt","","","","","9","10","0"
"","psychophysics","49","738006","0.0-49.0","13","38","","","","","2899","key"," "," ","16.67630057803468","500","250","tilt","","","","","6","3","0"
"","psychophysics","50","743543","0.0-50.0","13","38","","","","","5531","key"," "," ","16.658610271903324","500","250","tilt","","","","","10","8","0"
"","psychophysics","51","748456","0.0-51.0","13","38","","","","","4910","key"," "," ","16.656462585034014","500","250","tilt","","","","","3","6","1"
"","psychophysics","52","755933","0.0-52.0","13","38","","","","","7471","key"," "," ","16.660714285714285","500","250","tilt","","","","","-8","-9","1"
"","psychophysics","53","763266","0.0-53.0","13","38","","","","","7329","key"," "," ","16.667425968109338","500","250","tilt","","","","","8","9","0"
"","psychophysics","54","768979","0.0-54.0","13","38","","","","","5705","key"," "," ","16.66374269005848","500","250","tilt","","","","","2","4","0"
"","psychophysics","55","777037","0.0-55.0","13","38","","","","","8054","key"," "," ","16.66597510373444","500","250","tilt","","","","","-3","-3","1"
"","psychophysics","56","785236","0.0-56.0","13","38","","","","","8194","key"," "," ","16.668024439918533","500","250","tilt","","","","","-2","-4","0"
"","psychophysics","57","793466","0.0-57.0","13","38","","","","","8224","key"," "," ","16.66531440162272","500","250","tilt","","","","","6","8","0"
"","psychophysics","58","797148","0.0-58.0","13","38","","","","","3678","key"," "," ","16.663636363636364","500","250","tilt","","","","","-3","-2","1"
"","psychophysics","59","803514","0.0-59.0","13","38","","","","","6364","key"," "," ","16.666666666666668","500","250","tilt","","","","","-7","-9","0"
"","psychophysics","60","813692","0.0-60.0","13","38","","","","","10172","key"," "," ","16.666666666666668","500","250","tilt","","","","","2","4","1"
"","psychophysics","61","818894","0.0-61.0","13","38","","","","","5198","key"," "," ","16.659163987138264","500","250","tilt","","","","","-7","-6","1"
"","psychophysics","62","824905","0.0-62.0","13","38","","","","","6004","key"," "," ","16.65","500","250","tilt","","","","","6","5","0"
"","psychophysics","63","834427","0.0-63.0","13","38","","","","","9516","key"," "," ","16.66842105263158","500","250","tilt","","","","","-1","-1","0"
"","psychophysics","64","837030","0.0-64.0","13","38","","","","","2594","key"," "," ","16.653846153846153","500","250","tilt","","","","","1","2","1"
"","psychophysics","65","841932","0.0-65.0","13","38","","","","","4897","key"," "," ","16.66552901023891","500","250","tilt","","","","","4","6","1"
"","psychophysics","66","849882","0.0-66.0","13","38","","","","","7946","key"," "," ","16.665966386554622","500","250","tilt","","","","","6","8","0"
"","psychophysics","67","861881","0.0-67.0","13","38","","","","","11996","key"," "," ","16.664812239221142","500","250","tilt","","","","","3","9","1"
"","psychophysics","68","867511","0.0-68.0","13","38","","","","","5626","key"," "," ","16.666666666666668","500","250","tilt","","","","","-3","-4","1"
"","psychophysics","69","871054","0.0-69.0","13","38","","","","","3538","key"," "," ","16.64622641509434","500","250","tilt","","","","","-6","-10","1"
"","psychophysics","70","877725","0.0-70.0","13","38","","","","","6667","key"," "," ","16.666666666666668","500","250","tilt","","","","","6","8","0"
"","psychophysics","71","884002","0.0-71.0","13","38","","","","","6275","key"," "," ","16.66755319148936","500","250","tilt","","","","","1","3","1"
"","psychophysics","72","888478","0.0-72.0","13","38","","","","","4472","key"," "," ","16.670411985018728","500","250","tilt","","","","","-3","-5","0"
"","psychophysics","73","891857","0.0-73.0","13","38","","","","","3373","key"," "," ","16.638613861386137","500","250","tilt","","","","","2","5","1"
"","psychophysics","74","897518","0.0-74.0","13","38","","","","","5658","key"," "," ","16.663716814159294","500","250","tilt","","","","","7","10","0"
"","psychophysics","75","904486","0.0-75.0","13","38","","","","","6962","key"," "," ","16.666666666666668","500","250","tilt","","","","","4","1","0"
"","psychophysics","76","905653","0.0-76.0","13","38","","","","","1166","key"," "," ","16.666666666666668","500","250","inst","","","","","","",""
"","psychophysics","77","928451","0.0-77.0","13","38","","","","","22791","key"," "," ","16.666422823701538","500","250","instPz","","","","","50","50",""
"","psychophysics","78","934110","0.0-78.0","13","38","","","","","5653","key"," "," ","16.66568047337278","500","250","instPz","","","","","45","50",""
"","psychophysics","79","946977","0.0-79.0","13","38","","","","","12862","key"," "," ","16.66407263294423","500","250","instPz","","","","","60","50",""
"","psychophysics","80","948072","0.0-80.0","13","38","","","","","1085","key"," "," ","16.676923076923078","500","250","inst","","","","","","",""
"","psychophysics","81","950066","0.0-81.0","13","38","","","","","1989","key"," "," ","16.65546218487395","500","250","pz","","","","","26","32",""
"","psychophysics","82","959413","0.0-82.0","13","38","","","","","9343","key"," "," ","16.6654740608229","500","250","pz","","","","","34","27",""
"","psychophysics","83","965299","0.0-83.0","13","38","","","","","5876","key"," "," ","16.654390934844194","500","250","pz","","","","","35","29",""
"","psychophysics","84","974318","0.0-84.0","13","38","","","","","9015","key"," "," ","16.666666666666668","500","250","pz","","","","","45","37",""
"","psychophysics","85","981642","0.0-85.0","13","38","","","","","7320","key"," "," ","16.666666666666668","500","250","pz","","","","","60","59",""
"","psychophysics","86","990561","0.0-86.0","13","38","","","","","8916","key"," "," ","16.666666666666668","500","250","pz","","","","","50","44",""
"","psychophysics","87","998047","0.0-87.0","13","38","","","","","7482","key"," "," ","16.660714285714285","500","250","pz","","","","","32","29",""
"","psychophysics","88","1009046","0.0-88.0","13","38","","","","","10993","key"," "," ","16.657056145675266","500","250","pz","","","","","55","51",""
"","psychophysics","89","1015245","0.0-89.0","13","38","","","","","6195","key"," "," ","16.660377358490567","500","250","pz","","","","","25","22",""
"","psychophysics","90","1025983","0.0-90.0","13","38","","","","","10733","key"," "," ","16.66304347826087","500","250","pz","","","","","61","59",""
"","psychophysics","91","1037793","0.0-91.0","13","38","","","","","11805","key"," "," ","16.66902404526167","500","250","pz","","","","","63","59",""
"","psychophysics","92","1049697","0.0-92.0","13","38","","","","","11898","key"," "," ","16.667601683029453","500","250","pz","","","","","57","52",""
"","psychophysics","93","1078155","0.0-93.0","13","38","","","","","28446","key"," "," ","16.66432337434095","500","250","pz","","","","","64","59",""
"","psychophysics","94","1088389","0.0-94.0","13","38","","","","","10231","key"," "," ","16.66557911908646","500","250","pz","","","","","57","56",""
"","psychophysics","95","1093777","0.0-95.0","13","38","","","","","5383","key"," "," ","16.664596273291924","500","250","pz","","","","","44","41",""
"","psychophysics","96","1095365","0.0-96.0","13","38","","","","","1583","key"," "," ","16.659574468085108","500","250","inst","","","","","","",""
"","psychophysics","97","1098935","0.0-97.0","13","38","","","","","3561","key"," "," ","16.649532710280372","500","250","inst","","","","","","",""
"","psychophysics","98","1103172","0.0-98.0","13","38","","","","","4232","key"," "," ","16.66798418972332","500","250","instFlank","","","","","0.5","0.3","1"
"","psychophysics","99","1105613","0.0-99.0","13","38","","","","","2439","key"," "," ","16.66896551724138","500","250","inst","","","","","","",""
"","psychophysics","100","1112676","0.0-100.0","13","38","","","","","7056","key"," "," ","16.6548463356974","500","250","instFlank","","","","","0.43999999999999995","0.3","1"
"","psychophysics","101","1114974","0.0-101.0","13","38","","","","","2294","key"," "," ","16.67153284671533","500","250","inst","","","","","","",""
"","psychophysics","102","1118070","0.0-102.0","13","38","","","","","3091","key"," "," ","16.65945945945946","500","250","instFlank","","","","","0.5","0.3","0"
"","psychophysics","103","1120266","0.0-103.0","13","38","","","","","2192","key"," "," ","16.661538461538463","500","250","inst","","","","","","",""
"","psychophysics","104","1122557","0.0-104.0","13","38","","","","","2287","key"," "," ","16.62773722627737","500","250","flank","","","","","0.5","0.44","1"
"","psychophysics","105","1124926","0.0-105.0","13","38","","","","","2364","key"," "," ","16.666666666666668","500","250","flank","","","","","0.5","0.44","1"
"","psychophysics","106","1127269","0.0-106.0","13","38","","","","","2338","key"," "," ","16.67142857142857","500","250","flank","","","","","0.5","0.22","0"
"","psychophysics","107","1131802","0.0-107.0","13","38","","","","","4529","key"," "," ","16.66420664206642","500","250","flank","","","","","0.6200000000000001","0.68","0"
"","psychophysics","108","1135943","0.0-108.0","13","38","","","","","4136","key"," "," ","16.668016194331983","500","250","flank","","","","","0.6200000000000001","0.66","0"
"","psychophysics","109","1140291","0.0-109.0","13","38","","","","","4344","key"," "," ","16.665384615384614","500","250","flank","","","","","0.7400000000000002","0.76","0"
"","psychophysics","110","1143446","0.0-110.0","13","38","","","","","3148","key"," "," ","16.659574468085108","500","250","flank","","","","","0.56","0.46","0"
"","psychophysics","111","1146190","0.0-111.0","13","38","","","","","2738","key"," "," ","16.652439024390244","500","250","flank","","","","","0.53","0.58","1"
"","psychophysics","112","1149026","0.0-112.0","13","38","","","","","2830","key"," "," ","16.674556213017752","500","250","flank","","","","","0.47","0.42","1"
"","psychophysics","113","1151724","0.0-113.0","13","38","","","","","2693","key"," "," ","16.664596273291924","500","250","flank","","","","","0.47","0.46","1"
"","psychophysics","114","1154695","0.0-114.0","13","38","","","","","2964","key"," "," ","16.666666666666668","500","250","flank","","","","","0.53","0.3","0"
"","psychophysics","115","1158050","0.0-115.0","13","38","","","","","3350","key"," "," ","16.67","500","250","flank","","","","","0.47","0.5","1"
"","psychophysics","116","1160493","0.0-116.0","13","38","","","","","2438","key"," "," ","16.623287671232877","500","250","flank","","","","","0.5","0.56","1"
"","psychophysics","117","1163241","0.0-117.0","13","38","","","","","2743","key"," "," ","16.676829268292682","500","250","flank","","","","","0.5","0.42","1"
"","psychophysics","118","1168785","0.0-118.0","13","38","","","","","5540","key"," "," ","16.662650602409638","500","250","flank","","","","","0.43999999999999995","0.4","1"
"","psychophysics","119","1173431","0.0-119.0","13","38","","","","","4641","key"," "," ","16.667870036101082","500","250","flank","","","","","0.5","0.28","0"
"","psychophysics","120","1177722","0.0-120.0","13","38","","","","","4286","key"," "," ","16.657587548638134","500","250","flank","","","","","0.47","0.36","0"
"","psychophysics","121","1184441","0.0-121.0","13","38","","","","","6715","key"," "," ","16.666666666666668","500","250","flank","","","","","0.6500000000000001","0.78","1"
"","psychophysics","122","1188772","0.0-122.0","13","38","","","","","4326","key"," "," ","16.664092664092664","500","250","flank","","","","","0.6500000000000001","0.6","1"
"","psychophysics","123","1191385","0.0-123.0","13","38","","","","","2608","key"," "," ","16.653846153846153","500","250","flank","","","","","0.5","0.4","0"
"","psychophysics","124","1195342","0.0-124.0","13","38","","","","","3952","key"," "," ","16.665254237288135","500","250","flank","","","","","0.47","0.24","0"
"","psychophysics","125","1201322","0.0-125.0","13","38","","","","","5976","key"," "," ","16.664804469273744","500","250","flank","","","","","0.6500000000000001","0.72","0"
"","psychophysics","126","1206938","0.0-126.0","13","38","","","","","5610","key"," "," ","16.660714285714285","500","250","flank","","","","","0.6200000000000001","0.7","1"
"","psychophysics","127","1209905","0.0-127.0","13","38","","","","","2963","key"," "," ","16.661016949152543","500","250","flank","","","","","0.53","0.62","1"
"","psychophysics","128","1214092","0.0-128.0","13","38","","","","","4180","key"," "," ","16.664","500","250","flank","","","","","0.31999999999999984","0.3","1"
"","psychophysics","129","1217982","0.0-129.0","13","38","","","","","3885","key"," "," ","16.66810344827586","500","250","flank","","","","","0.3799999999999999","0.4","1"
"","psychophysics","130","1221160","0.0-130.0","13","38","","","","","3171","key"," "," ","16.66842105263158","500","250","flank","","","","","0.4099999999999999","0.26","0"
"","psychophysics","131","1225061","0.0-131.0","13","38","","","","","3896","key"," "," ","16.669527896995707","500","250","flank","","","","","0.5","0.38","0"
"","psychophysics","132","1227903","0.0-132.0","13","38","","","","","2837","key"," "," ","16.658823529411766","500","250","flank","","","","","0.43999999999999995","0.32","0"
"","psychophysics","133","1230592","0.0-133.0","13","38","","","","","2684","key"," "," ","16.6625","500","250","flank","","","","","0.47","0.46","1"
"true","fullscreen","134","1230594","0.0-134.0","13","38","","","","","","","","","","","","","","","","","","",""
