"rt","response_type","key_press","response","avg_frame_time","center_x","center_y","task","trial_type","trial_index","time_elapsed","internal_node_id","pid","sid","ml_len","ml_start","ml_x","ml_y","resp","targ","back"
"1990","key"," "," ","13.338000000000001","500","250","inst","psychophysics","0","2004","0.0-0.0","16","34","","","","","","",""
"4157","key"," "," ","13.338000000000001","500","250","inst","psychophysics","1","6164","0.0-1.0","16","34","","","","","","",""
"13589","key"," "," ","13.338165029469549","500","250","instML","psychophysics","2","19754","0.0-2.0","16","34","178","-29.666666666666668","-10","-9","-25.666666666666686","",""
"664","key"," "," ","13.341408163265292","500","250","inst","psychophysics","3","20420","0.0-3.0","16","34","","","","","","",""
"9603","key"," "," ","13.338233657858135","500","250","ml","psychophysics","4","30024","0.0-4.0","16","34","152","-13","-4","11","-16","",""
"11260","key"," "," ","13.338199052132696","500","250","ml","psychophysics","5","41289","0.0-5.0","16","34","242","-31","-13","-19","-21","",""
"10129","key"," "," ","13.33822031662269","500","250","ml","psychophysics","6","51419","0.0-6.0","16","34","196","-48","-7","-7","-24","",""
"9395","key"," "," ","13.338238636363629","500","250","ml","psychophysics","7","60815","0.0-7.0","16","34","176","42","-14","22","-12","",""
"6014","key"," "," ","13.337999999999981","500","250","ml","psychophysics","8","66831","0.0-8.0","16","34","234","47","14","-13","-10","",""
"6309","key"," "," ","13.338355932203385","500","250","ml","psychophysics","9","73142","0.0-9.0","16","34","244","44","-29","-30","-14","",""
"10653","key"," "," ","13.338209273182962","500","250","ml","psychophysics","10","83797","0.0-10.0","16","34","198","37","15","-29","-14","",""
"10506","key"," "," ","13.338213468869123","500","250","ml","psychophysics","11","94304","0.0-11.0","16","34","246","-59","-21","-5","-14","",""
"10753","key"," "," ","13.338208695652158","500","250","ml","psychophysics","12","105059","0.0-12.0","16","34","206","-25","15","-21","-12","",""
"7894","key"," "," ","13.338282571912018","500","250","ml","psychophysics","13","112955","0.0-13.0","16","34","220","46","6","-14","-15","",""
"12889","key"," "," ","13.338174093264252","500","250","ml","psychophysics","14","125845","0.0-14.0","16","34","170","32","-22","-9","-9","",""
"6752","key"," "," ","13.338330039525676","500","250","ml","psychophysics","15","132599","0.0-15.0","16","34","154","-34","-11","16","-12","",""
"6575","key"," "," ","13.338000000000005","500","250","ml","psychophysics","16","139176","0.0-16.0","16","34","216","32","20","11","-15","",""
"3698","key"," "," ","13.338608695652194","500","250","ml","psychophysics","17","142876","0.0-17.0","16","34","204","5","26","-22","-13","",""
"6257","key"," "," ","13.337999999999994","500","250","ml","psychophysics","18","149135","0.0-18.0","16","34","208","-40","-23","-24","-15","",""
"1040","key"," "," ","13.337999999999786","500","250","inst","psychophysics","19","150177","0.0-19.0","16","34","","","","","","",""
"31701","key"," "," ","13.338282407407403","500","250","instPog","psychophysics","20","181878","0.0-20.0","16","34","","","","","180","180",""
"898","key"," "," ","13.338000000000289","500","250","inst","psychophysics","21","182778","0.0-21.0","16","34","","","","","","",""
"27876","key"," "," ","13.33824078506462","500","250","pog","psychophysics","22","210654","0.0-22.0","16","34","","","","","197","189",""
"5839","key"," "," ","13.338000000000013","500","250","pog","psychophysics","23","216494","0.0-23.0","16","34","","","","","160","154",""
"7443","key"," "," ","13.338299820466768","500","250","pog","psychophysics","24","223938","0.0-24.0","16","34","","","","","152","145",""
"7670","key"," "," ","13.338292682926816","500","250","pog","psychophysics","25","231610","0.0-25.0","16","34","","","","","159","156",""
"5154","key"," "," ","13.338000000000058","500","250","pog","psychophysics","26","236765","0.0-26.0","16","34","","","","","145","138",""
"6431","key"," "," ","13.338347193347184","500","250","pog","psychophysics","27","243197","0.0-27.0","16","34","","","","","134","133",""
"8866","key"," "," ","13.338253012048158","500","250","pog","psychophysics","28","252065","0.0-28.0","16","34","","","","","177","178",""
"4472","key"," "," ","13.337999999999978","500","250","pog","psychophysics","29","256538","0.0-29.0","16","34","","","","","144","145",""
"4443","key"," "," ","13.338501501501561","500","250","pog","psychophysics","30","260984","0.0-30.0","16","34","","","","","188","191",""
"3990","key"," "," ","13.338000000000056","500","250","pog","psychophysics","31","264975","0.0-31.0","16","34","","","","","167","168",""
"6663","key"," "," ","13.338336673346726","500","250","pog","psychophysics","32","271639","0.0-32.0","16","34","","","","","206","190",""
"2536","key"," "," ","13.337999999999912","500","250","pog","psychophysics","33","274177","0.0-33.0","16","34","","","","","160","151",""
"4490","key"," "," ","13.338000000000084","500","250","pog","psychophysics","34","278669","0.0-34.0","16","34","","","","","147","144",""
"9784","key"," "," ","13.338229508196685","500","250","pog","psychophysics","35","288454","0.0-35.0","16","34","","","","","140","139",""
"12102","key"," "," ","13.338184123484021","500","250","pog","psychophysics","36","300557","0.0-36.0","16","34","","","","","193","193",""
"708","key"," "," ","13.341230769230886","500","250","inst","psychophysics","37","301267","0.0-37.0","16","34","","","","","","",""
"4352","key"," "," ","13.337999999999928","500","250","instTilt","psychophysics","38","305622","0.0-38.0","16","34","","","","","NaN","0","0"
"12663","key"," "," ","13.338177028451055","500","250","instTilt","psychophysics","39","318288","0.0-39.0","16","34","","","","","-1","0","0"
"5711","key"," "," ","13.338391100702479","500","250","instTilt","psychophysics","40","324000","0.0-40.0","16","34","","","","","0","0","0"
"435","key"," "," ","13.337999999999738","500","250","inst","psychophysics","41","324438","0.0-41.0","16","34","","","","","","",""
"2519","key"," "," ","13.33799999999997","500","250","tilt","psychophysics","42","326958","0.0-42.0","16","34","","","","","0","1","0"
"2284","key"," "," ","13.338000000000058","500","250","tilt","psychophysics","43","329244","0.0-43.0","16","34","","","","","0","1","1"
"5667","key"," "," ","13.338396226415188","500","250","tilt","psychophysics","44","334914","0.0-44.0","16","34","","","","","10","9","0"
"6059","key"," "," ","13.338370860927167","500","250","tilt","psychophysics","45","340975","0.0-45.0","16","34","","","","","4","3","0"
"6370","key"," "," ","13.337999999999928","500","250","tilt","psychophysics","46","347346","0.0-46.0","16","34","","","","","4","6","1"
"4190","key"," "," ","13.338533546325726","500","250","tilt","psychophysics","47","351538","0.0-47.0","16","34","","","","","-7","-7","1"
"2611","key"," "," ","13.33799999999987","500","250","tilt","psychophysics","48","354150","0.0-48.0","16","34","","","","","8","7","1"
"6638","key"," "," ","13.338338028169092","500","250","tilt","psychophysics","49","360790","0.0-49.0","16","34","","","","","-9","-10","0"
"13338","key"," "," ","13.338167167167136","500","250","tilt","psychophysics","50","374129","0.0-50.0","16","34","","","","","0","2","1"
"1998","key"," "," ","13.337999999999763","500","250","tilt","psychophysics","51","376128","0.0-51.0","16","34","","","","","-4","-3","0"
"2136","key"," "," ","13.338000000000173","500","250","tilt","psychophysics","52","378267","0.0-52.0","16","34","","","","","-7","-2","1"
"2778","key"," "," ","13.338807692307736","500","250","tilt","psychophysics","53","381047","0.0-53.0","16","34","","","","","5","3","0"
"1585","key"," "," ","13.33800000000017","500","250","tilt","psychophysics","54","382634","0.0-54.0","16","34","","","","","0","0","0"
"1921","key"," "," ","13.337999999999814","500","250","tilt","psychophysics","55","384557","0.0-55.0","16","34","","","","","-4","-7","1"
"3990","key"," "," ","13.337999999999958","500","250","tilt","psychophysics","56","388548","0.0-56.0","16","34","","","","","-10","-9","0"
"2438","key"," "," ","13.338923076923123","500","250","tilt","psychophysics","57","390989","0.0-57.0","16","34","","","","","3","-2","0"
"2073","key"," "," ","13.33800000000009","500","250","tilt","psychophysics","58","393070","0.0-58.0","16","34","","","","","-6","-6","1"
"2675","key"," "," ","13.337999999999884","500","250","tilt","psychophysics","59","395748","0.0-59.0","16","34","","","","","9","6","1"
"2993","key"," "," ","13.337999999999788","500","250","tilt","psychophysics","60","398742","0.0-60.0","16","34","","","","","-1","-1","1"
"1538","key"," "," ","13.33799999999996","500","250","tilt","psychophysics","61","400283","0.0-61.0","16","34","","","","","-4","-3","1"
"1909","key"," "," ","13.339183098591477","500","250","tilt","psychophysics","62","402193","0.0-62.0","16","34","","","","","-6","-4","1"
"20508","key"," "," ","13.338217957059216","500","250","tilt","psychophysics","63","422702","0.0-63.0","16","34","","","","","3","2","0"
"1425","key"," "," ","13.338000000000356","500","250","tilt","psychophysics","64","424129","0.0-64.0","16","34","","","","","-7","-9","0"
"2890","key"," "," ","13.337999999999873","500","250","tilt","psychophysics","65","427021","0.0-65.0","16","34","","","","","11","10","0"
"2579","key"," "," ","13.337999999999983","500","250","tilt","psychophysics","66","429608","0.0-66.0","16","34","","","","","-5","-6","0"
"1471","key"," "," ","13.339532110091392","500","250","tilt","psychophysics","67","431082","0.0-67.0","16","34","","","","","4","2","0"
"2148","key"," "," ","13.337999999999738","500","250","tilt","psychophysics","68","433231","0.0-68.0","16","34","","","","","-5","-7","1"
"1685","key"," "," ","13.338000000000374","500","250","tilt","psychophysics","69","434918","0.0-69.0","16","34","","","","","6","4","1"
"1384","key"," "," ","13.338000000000127","500","250","tilt","psychophysics","70","436304","0.0-70.0","16","34","","","","","-7","-9","1"
"2044","key"," "," ","13.33799999999993","500","250","tilt","psychophysics","71","438350","0.0-71.0","16","34","","","","","-7","-8","0"
"606","key"," "," ","13.338000000000466","500","250","inst","psychophysics","72","438958","0.0-72.0","16","34","","","","","","",""
"5498","key"," "," ","13.338408759124112","500","250","instPz","psychophysics","73","444458","0.0-73.0","16","34","","","","","17","50",""
"1168","key"," "," ","13.338000000000198","500","250","instPz","psychophysics","74","445628","0.0-74.0","16","34","","","","","10","50",""
"2111","key"," "," ","13.337999999999946","500","250","instPz","psychophysics","75","447741","0.0-75.0","16","34","","","","","10","50",""
"811","key"," "," ","13.338000000000466","500","250","inst","psychophysics","76","448554","0.0-76.0","16","34","","","","","","",""
"13552","key"," "," ","13.338330049261055","500","250","pz","psychophysics","77","462107","0.0-77.0","16","34","","","","","44","41",""
"6545","key"," "," ","13.33799999999999","500","250","pz","psychophysics","78","468654","0.0-78.0","16","34","","","","","23","21",""
"15096","key"," "," ","13.33829619805483","500","250","pz","psychophysics","79","483751","0.0-79.0","16","34","","","","","38","35",""
"5861","key"," "," ","13.337999999999962","500","250","pz","psychophysics","80","489614","0.0-80.0","16","34","","","","","31","26",""
"5962","key"," "," ","13.338374439461967","500","250","pz","psychophysics","81","495577","0.0-81.0","16","34","","","","","45","43",""
"5947","key"," "," ","13.338377528089842","500","250","pz","psychophysics","82","501526","0.0-82.0","16","34","","","","","41","37",""
"4323","key"," "," ","13.337999999999997","500","250","pz","psychophysics","83","505857","0.0-83.0","16","34","","","","","27","26",""
"4979","key"," "," ","13.337999999999903","500","250","pz","psychophysics","84","510839","0.0-84.0","16","34","","","","","51","49",""
"6289","key"," "," ","13.33835668789817","500","250","pz","psychophysics","85","517130","0.0-85.0","16","34","","","","","57","58",""
"6172","key"," "," ","13.338361471861418","500","250","pz","psychophysics","86","523303","0.0-86.0","16","34","","","","","27","29",""
"5050","key"," "," ","13.338000000000095","500","250","pz","psychophysics","87","528356","0.0-87.0","16","34","","","","","34","31",""
"3317","key"," "," ","13.338677419354715","500","250","pz","psychophysics","88","531675","0.0-88.0","16","34","","","","","30","29",""
"40329","key"," "," ","13.338221634138279","500","250","pz","psychophysics","89","572003","0.0-89.0","16","34","","","","","26","26",""
"4948","key"," "," ","13.337999999999836","500","250","pz","psychophysics","90","576953","0.0-90.0","16","34","","","","","50","49",""
"4533","key"," "," ","13.338492625368591","500","250","pz","psychophysics","91","581487","0.0-91.0","16","34","","","","","29","29",""
"596","key"," "," ","13.337999999999408","500","250","inst","psychophysics","92","582085","0.0-92.0","16","34","","","","","","",""
"3946","key"," "," ","13.33800000000027","500","250","inst","psychophysics","93","586032","0.0-93.0","16","34","","","","","","",""
"21913","key"," "," ","13.338204019488431","500","250","instFlank","psychophysics","94","607946","0.0-94.0","16","34","","","","","0.5","0.3","1"
"2200","key"," "," ","13.338000000000182","500","250","inst","psychophysics","95","610148","0.0-95.0","16","34","","","","","","",""
"6344","key"," "," ","13.338353684210512","500","250","instFlank","psychophysics","96","616494","0.0-96.0","16","34","","","","","1","0.3","1"
"492","key"," "," ","13.337999999998525","500","250","inst","psychophysics","97","616988","0.0-97.0","16","34","","","","","","",""
"571","key"," "," ","13.337999999999912","500","250","instFlank","psychophysics","98","617562","0.0-98.0","16","34","","","","","0.5","0.3","0"
"931","key"," "," ","13.338000000000635","500","250","inst","psychophysics","99","618494","0.0-99.0","16","34","","","","","","",""
"4071","key"," "," ","13.338549342105244","500","250","flank","psychophysics","100","622567","0.0-100.0","16","34","","","","","1","0.66","1"
"5432","key"," "," ","13.33799999999998","500","250","flank","psychophysics","101","628002","0.0-101.0","16","34","","","","","0","0.48","0"
"4439","key"," "," ","13.33850602409627","500","250","flank","psychophysics","102","632444","0.0-102.0","16","34","","","","","0","0.22","0"
"3901","key"," "," ","13.338000000000026","500","250","flank","psychophysics","103","636348","0.0-103.0","16","34","","","","","0","0.72","0"
"4823","key"," "," ","13.338000000000111","500","250","flank","psychophysics","104","641173","0.0-104.0","16","34","","","","","1","0.5","1"
"3881","key"," "," ","13.33857931034471","500","250","flank","psychophysics","105","645056","0.0-105.0","16","34","","","","","0","0.66","0"
"3875","key"," "," ","13.338000000000065","500","250","flank","psychophysics","106","648934","0.0-106.0","16","34","","","","","0","0.28","0"
"4028","key"," "," ","13.33855481727584","500","250","flank","psychophysics","107","652964","0.0-107.0","16","34","","","","","0","0.8","0"
"3799","key"," "," ","13.337999999999893","500","250","flank","psychophysics","108","656765","0.0-108.0","16","34","","","","","0","0.74","0"
"4361","key"," "," ","13.338000000000251","500","250","flank","psychophysics","109","661129","0.0-109.0","16","34","","","","","1","0.44","1"
"3666","key"," "," ","13.338613138685808","500","250","flank","psychophysics","110","664797","0.0-110.0","16","34","","","","","0","0.48","0"
"3687","key"," "," ","13.337999999999791","500","250","flank","psychophysics","111","668487","0.0-111.0","16","34","","","","","0","0.38","0"
"3902","key"," "," ","13.338571917808261","500","250","flank","psychophysics","112","672391","0.0-112.0","16","34","","","","","1","0.62","1"
"4303","key"," "," ","13.338000000000031","500","250","flank","psychophysics","113","676697","0.0-113.0","16","34","","","","","1","0.5","1"
"3882","key"," "," ","13.338000000000065","500","250","flank","psychophysics","114","680581","0.0-114.0","16","34","","","","","1","0.62","1"
"4844","key"," "," ","13.338464088397723","500","250","flank","psychophysics","115","685427","0.0-115.0","16","34","","","","","0","0.28","0"
"3910","key"," "," ","13.337999999999987","500","250","flank","psychophysics","116","689339","0.0-116.0","16","34","","","","","0","0.4","0"
"3964","key"," "," ","13.338562289562534","500","250","flank","psychophysics","117","693306","0.0-117.0","16","34","","","","","0","0.56","1"
"4967","key"," "," ","13.33800000000012","500","250","flank","psychophysics","118","698275","0.0-118.0","16","34","","","","","0","0.2","0"
"5847","key"," "," ","13.338381278538836","500","250","flank","psychophysics","119","704125","0.0-119.0","16","34","","","","","0","0.62","0"
"4643","key"," "," ","13.337999999999896","500","250","flank","psychophysics","120","708769","0.0-120.0","16","34","","","","","1","0.56","1"
"4311","key"," "," ","13.338520123839203","500","250","flank","psychophysics","121","713083","0.0-121.0","16","34","","","","","0","0.36","0"
"6002","key"," "," ","13.337999999999973","500","250","flank","psychophysics","122","719087","0.0-122.0","16","34","","","","","1","0.42","1"
"4000","key"," "," ","13.338561872909636","500","250","flank","psychophysics","123","723090","0.0-123.0","16","34","","","","","0","0.58","0"
"3642","key"," "," ","13.337999999999951","500","250","flank","psychophysics","124","726734","0.0-124.0","16","34","","","","","1","0.66","1"
"3859","key"," "," ","13.338000000000104","500","250","flank","psychophysics","125","730596","0.0-125.0","16","34","","","","","0","0.28","0"
"3238","key"," "," ","13.338690082644582","500","250","flank","psychophysics","126","733836","0.0-126.0","16","34","","","","","1","0.76","1"
"3696","key"," "," ","13.338000000000212","500","250","flank","psychophysics","127","737534","0.0-127.0","16","34","","","","","1","0.22","1"
"3822","key"," "," ","13.337999999999814","500","250","flank","psychophysics","128","741359","0.0-128.0","16","34","","","","","1","0.6","1"
"3769","key"," "," ","13.338597864768918","500","250","flank","psychophysics","129","745130","0.0-129.0","16","34","","","","","1","0.66","1"
