"success","trial_type","trial_index","time_elapsed","internal_node_id","pid","sid","timeout","failed_images","failed_audio","failed_video","rt","response_type","key_press","response","avg_frame_time","center_x","center_y","task","ml_len","ml_start","ml_x","ml_y","resp","targ","back"
"true","fullscreen","0","2591","0.0-0.0","5bc8897f462bdb0001a61426","6256d7e65bb4d4899ed34bc7","","","","","","","","","","","","","","","","","","",""
"true","preload","1","2592","0.0-1.0","5bc8897f462bdb0001a61426","6256d7e65bb4d4899ed34bc7","false","[]","[]","[]","","","","","","","","","","","","","","",""
"","psychophysics","2","6530","0.0-2.0","5bc8897f462bdb0001a61426","6256d7e65bb4d4899ed34bc7","","","","","3929","key"," "," ","16.666754237288142","500","250","inst","","","","","","",""
"","psychophysics","3","9144","0.0-3.0","5bc8897f462bdb0001a61426","6256d7e65bb4d4899ed34bc7","","","","","2606","key"," "," ","16.666512820512814","500","250","inst","","","","","","",""
"","psychophysics","4","30796","0.0-4.0","5bc8897f462bdb0001a61426","6256d7e65bb4d4899ed34bc7","","","","","21637","key"," "," ","16.666200923787528","500","250","instMl","240","-40","-20","18","-16","",""
"","psychophysics","5","44702","0.0-5.0","5bc8897f462bdb0001a61426","6256d7e65bb4d4899ed34bc7","","","","","13903","key"," "," ","16.66646218487395","500","250","instMl","220","-36.666666666666664","17","15","-11.666666666666742","",""
"","psychophysics","6","48735","0.0-6.0","5bc8897f462bdb0001a61426","6256d7e65bb4d4899ed34bc7","","","","","4030","key"," "," ","16.6668049792531","500","250","inst","","","","","","",""
"","psychophysics","7","54286","0.0-7.0","5bc8897f462bdb0001a61426","6256d7e65bb4d4899ed34bc7","","","","","5546","key"," "," ","16.666695783132532","500","250","ml","222","52","-24","-27","-8","",""
"","psychophysics","8","58798","0.0-8.0","5bc8897f462bdb0001a61426","6256d7e65bb4d4899ed34bc7","","","","","4510","key"," "," ","16.666422222222227","500","250","ml","206","-6","16","-18","-13","",""
"","psychophysics","9","65059","0.0-9.0","5bc8897f462bdb0001a61426","6256d7e65bb4d4899ed34bc7","","","","","6256","key"," "," ","16.666147058823558","500","250","ml","162","-31","24","-22","-12","",""
"","psychophysics","10","69709","0.0-10.0","5bc8897f462bdb0001a61426","6256d7e65bb4d4899ed34bc7","","","","","4643","key"," "," ","16.666543165467623","500","250","ml","150","-4","-26","30","-14","",""
"","psychophysics","11","79099","0.0-11.0","5bc8897f462bdb0001a61426","6256d7e65bb4d4899ed34bc7","","","","","9389","key"," "," ","16.666447602131424","500","250","ml","228","45","10","10","-12","",""
"","psychophysics","12","83244","0.0-12.0","5bc8897f462bdb0001a61426","6256d7e65bb4d4899ed34bc7","","","","","4143","key"," "," ","16.666068825910934","500","250","ml","218","-46","7","-27","-14","",""
"","psychophysics","13","88158","0.0-13.0","5bc8897f462bdb0001a61426","6256d7e65bb4d4899ed34bc7","","","","","4912","key"," "," ","16.666775510204104","500","250","ml","176","-35","-1","-30","-12","",""
"","psychophysics","14","93605","0.0-14.0","5bc8897f462bdb0001a61426","6256d7e65bb4d4899ed34bc7","","","","","5437","key"," "," ","16.666162576687142","500","250","ml","240","9","10","-22","-19","",""
"","psychophysics","15","97541","0.0-15.0","5bc8897f462bdb0001a61426","6256d7e65bb4d4899ed34bc7","","","","","3931","key"," "," ","16.666080851063807","500","250","ml","154","-11","21","21","-12","",""
"","psychophysics","16","102134","0.0-16.0","5bc8897f462bdb0001a61426","6256d7e65bb4d4899ed34bc7","","","","","4586","key"," "," ","16.666203636363605","500","250","ml","238","-18","16","-22","-14","",""
"","psychophysics","17","106563","0.0-17.0","5bc8897f462bdb0001a61426","6256d7e65bb4d4899ed34bc7","","","","","4424","key"," "," ","16.665547169811358","500","250","ml","168","14","26","4","-11","",""
"","psychophysics","18","111164","0.0-18.0","5bc8897f462bdb0001a61426","6256d7e65bb4d4899ed34bc7","","","","","4599","key"," "," ","16.66634181818184","500","250","ml","184","-16","13","6","-13","",""
"","psychophysics","19","118004","0.0-19.0","5bc8897f462bdb0001a61426","6256d7e65bb4d4899ed34bc7","","","","","6838","key"," "," ","16.666271393643008","500","250","ml","240","-57","3","-14","-11","",""
"","psychophysics","20","121542","0.0-20.0","5bc8897f462bdb0001a61426","6256d7e65bb4d4899ed34bc7","","","","","3536","key"," "," ","16.666710900473966","500","250","ml","204","-21","6","-28","-18","",""
"","psychophysics","21","127365","0.0-21.0","5bc8897f462bdb0001a61426","6256d7e65bb4d4899ed34bc7","","","","","5816","key"," "," ","16.66625501432665","500","250","ml","202","-25","-4","9","-12","",""
"","psychophysics","22","129584","0.0-22.0","5bc8897f462bdb0001a61426","6256d7e65bb4d4899ed34bc7","","","","","2213","key"," "," ","16.666333333333377","500","250","inst","","","","","","",""
"","psychophysics","23","138624","0.0-23.0","5bc8897f462bdb0001a61426","6256d7e65bb4d4899ed34bc7","","","","","9035","key"," "," ","16.66641404805915","500","250","instPog","","","","","160","130",""
"","psychophysics","24","152526","0.0-24.0","5bc8897f462bdb0001a61426","6256d7e65bb4d4899ed34bc7","","","","","13894","key"," "," ","16.666314525810336","500","250","instPog","","","","","135","130",""
"","psychophysics","25","164531","0.0-25.0","5bc8897f462bdb0001a61426","6256d7e65bb4d4899ed34bc7","","","","","11997","key"," "," ","16.666149999999995","500","250","instPog","","","","","135","130",""
"","psychophysics","26","166591","0.0-26.0","5bc8897f462bdb0001a61426","6256d7e65bb4d4899ed34bc7","","","","","2058","key"," "," ","16.66736885245897","500","250","inst","","","","","","",""
"","psychophysics","27","171619","0.0-27.0","5bc8897f462bdb0001a61426","6256d7e65bb4d4899ed34bc7","","","","","5021","key"," "," ","16.665933554817265","500","250","pog","","","","","167","164",""
"","psychophysics","28","179454","0.0-28.0","5bc8897f462bdb0001a61426","6256d7e65bb4d4899ed34bc7","","","","","7833","key"," "," ","16.666573560767574","500","250","pog","","","","","189","181",""
"","psychophysics","29","185859","0.0-29.0","5bc8897f462bdb0001a61426","6256d7e65bb4d4899ed34bc7","","","","","6400","key"," "," ","16.665927083333372","500","250","pog","","","","","196","197",""
"","psychophysics","30","196604","0.0-30.0","5bc8897f462bdb0001a61426","6256d7e65bb4d4899ed34bc7","","","","","10742","key"," "," ","16.66634214618971","500","250","pog","","","","","165","163",""
"","psychophysics","31","200732","0.0-31.0","5bc8897f462bdb0001a61426","6256d7e65bb4d4899ed34bc7","","","","","4127","key"," "," ","16.66624291497978","500","250","pog","","","","","142","124",""
"","psychophysics","32","206899","0.0-32.0","5bc8897f462bdb0001a61426","6256d7e65bb4d4899ed34bc7","","","","","6165","key"," "," ","16.666360433604304","500","250","pog","","","","","139","135",""
"","psychophysics","33","210519","0.0-33.0","5bc8897f462bdb0001a61426","6256d7e65bb4d4899ed34bc7","","","","","3618","key"," "," ","16.744130232558195","500","250","pog","","","","","166","160",""
"","psychophysics","34","219323","0.0-34.0","5bc8897f462bdb0001a61426","6256d7e65bb4d4899ed34bc7","","","","","8800","key"," "," ","16.66601328273245","500","250","pog","","","","","197","185",""
"","psychophysics","35","222003","0.0-35.0","5bc8897f462bdb0001a61426","6256d7e65bb4d4899ed34bc7","","","","","2678","key"," "," ","16.66658750000006","500","250","pog","","","","","153","141",""
"","psychophysics","36","225383","0.0-36.0","5bc8897f462bdb0001a61426","6256d7e65bb4d4899ed34bc7","","","","","3378","key"," "," ","16.66668811881189","500","250","pog","","","","","175","173",""
"","psychophysics","37","228924","0.0-37.0","5bc8897f462bdb0001a61426","6256d7e65bb4d4899ed34bc7","","","","","3538","key"," "," ","16.6659289099526","500","250","pog","","","","","196","196",""
"","psychophysics","38","232622","0.0-38.0","5bc8897f462bdb0001a61426","6256d7e65bb4d4899ed34bc7","","","","","3697","key"," "," ","16.6667647058824","500","250","pog","","","","","166","173",""
"","psychophysics","39","237206","0.0-39.0","5bc8897f462bdb0001a61426","6256d7e65bb4d4899ed34bc7","","","","","4577","key"," "," ","16.66627007299277","500","250","pog","","","","","201","200",""
"","psychophysics","40","239755","0.0-40.0","5bc8897f462bdb0001a61426","6256d7e65bb4d4899ed34bc7","","","","","2542","key"," "," ","16.66533552631575","500","250","pog","","","","","152","142",""
"","psychophysics","41","242699","0.0-41.0","5bc8897f462bdb0001a61426","6256d7e65bb4d4899ed34bc7","","","","","2942","key"," "," ","16.66650568181814","500","250","pog","","","","","141","132",""
"","psychophysics","42","250161","0.0-42.0","5bc8897f462bdb0001a61426","6256d7e65bb4d4899ed34bc7","","","","","7460","key"," "," ","16.666519015659976","500","250","inst","","","","","","",""
"","psychophysics","43","254451","0.0-43.0","5bc8897f462bdb0001a61426","6256d7e65bb4d4899ed34bc7","","","","","4283","key"," "," ","16.66610156249999","500","250","instTilt","","","","","NaN","0","0"
"","psychophysics","44","257653","0.0-44.0","5bc8897f462bdb0001a61426","6256d7e65bb4d4899ed34bc7","","","","","3200","key"," "," ","16.66643455497377","500","250","instTilt","","","","","0","0","0"
"","psychophysics","45","265708","0.0-45.0","5bc8897f462bdb0001a61426","6256d7e65bb4d4899ed34bc7","","","","","8053","key"," "," ","16.666277432712228","500","250","instTilt","","","","","1","0","0"
"","psychophysics","46","267867","0.0-46.0","5bc8897f462bdb0001a61426","6256d7e65bb4d4899ed34bc7","","","","","2157","key"," "," ","16.666281249999884","500","250","inst","","","","","","",""
"","psychophysics","47","274213","0.0-47.0","5bc8897f462bdb0001a61426","6256d7e65bb4d4899ed34bc7","","","","","6344","key"," "," ","16.66638947368422","500","250","tilt","","","","","-3","0","1"
"","psychophysics","48","278875","0.0-48.0","5bc8897f462bdb0001a61426","6256d7e65bb4d4899ed34bc7","","","","","4659","key"," "," ","16.665824372759907","500","250","tilt","","","","","-9","-6","0"
"","psychophysics","49","283052","0.0-49.0","5bc8897f462bdb0001a61426","6256d7e65bb4d4899ed34bc7","","","","","4174","key"," "," ","16.666546184738845","500","250","tilt","","","","","1","-2","0"
"","psychophysics","50","286915","0.0-50.0","5bc8897f462bdb0001a61426","6256d7e65bb4d4899ed34bc7","","","","","3862","key"," "," ","16.666432900432884","500","250","tilt","","","","","7","8","1"
"","psychophysics","51","289947","0.0-51.0","5bc8897f462bdb0001a61426","6256d7e65bb4d4899ed34bc7","","","","","3030","key"," "," ","16.66625966850825","500","250","tilt","","","","","-4","-1","1"
"","psychophysics","52","292044","0.0-52.0","5bc8897f462bdb0001a61426","6256d7e65bb4d4899ed34bc7","","","","","2095","key"," "," ","16.666591999999714","500","250","tilt","","","","","1","-3","0"
"","psychophysics","53","296332","0.0-53.0","5bc8897f462bdb0001a61426","6256d7e65bb4d4899ed34bc7","","","","","4287","key"," "," ","16.666187500000206","500","250","tilt","","","","","10","7","1"
"","psychophysics","54","299646","0.0-54.0","5bc8897f462bdb0001a61426","6256d7e65bb4d4899ed34bc7","","","","","3311","key"," "," ","16.66660606060612","500","250","tilt","","","","","-13","-7","0"
"","psychophysics","55","303222","0.0-55.0","5bc8897f462bdb0001a61426","6256d7e65bb4d4899ed34bc7","","","","","3571","key"," "," ","16.66621596244122","500","250","tilt","","","","","9","5","0"
"","psychophysics","56","307195","0.0-56.0","5bc8897f462bdb0001a61426","6256d7e65bb4d4899ed34bc7","","","","","3968","key"," "," ","16.66568487394966","500","250","tilt","","","","","-2","-2","1"
"","psychophysics","57","310561","0.0-57.0","5bc8897f462bdb0001a61426","6256d7e65bb4d4899ed34bc7","","","","","3364","key"," "," ","16.666885572139567","500","250","tilt","","","","","-5","-5","0"
"","psychophysics","58","313358","0.0-58.0","5bc8897f462bdb0001a61426","6256d7e65bb4d4899ed34bc7","","","","","2793","key"," "," ","16.666437125748754","500","250","tilt","","","","","-2","-3","1"
"","psychophysics","59","317332","0.0-59.0","5bc8897f462bdb0001a61426","6256d7e65bb4d4899ed34bc7","","","","","3968","key"," "," ","16.666143459915567","500","250","tilt","","","","","0","1","1"
"","psychophysics","60","322019","0.0-60.0","5bc8897f462bdb0001a61426","6256d7e65bb4d4899ed34bc7","","","","","4685","key"," "," ","16.666692857142852","500","250","tilt","","","","","-14","-8","1"
"","psychophysics","61","326003","0.0-61.0","5bc8897f462bdb0001a61426","6256d7e65bb4d4899ed34bc7","","","","","3983","key"," "," ","16.66626050420171","500","250","tilt","","","","","-13","-9","1"
"","psychophysics","62","328651","0.0-62.0","5bc8897f462bdb0001a61426","6256d7e65bb4d4899ed34bc7","","","","","2645","key"," "," ","16.666531645569837","500","250","tilt","","","","","-1","-1","0"
"","psychophysics","63","332679","0.0-63.0","5bc8897f462bdb0001a61426","6256d7e65bb4d4899ed34bc7","","","","","4025","key"," "," ","16.666721991701216","500","250","tilt","","","","","0","-3","0"
"","psychophysics","64","336670","0.0-64.0","5bc8897f462bdb0001a61426","6256d7e65bb4d4899ed34bc7","","","","","3986","key"," "," ","16.666466386554404","500","250","tilt","","","","","7","4","0"
"","psychophysics","65","340003","0.0-65.0","5bc8897f462bdb0001a61426","6256d7e65bb4d4899ed34bc7","","","","","3326","key"," "," ","16.665874371859395","500","250","tilt","","","","","12","9","0"
"","psychophysics","66","344956","0.0-66.0","5bc8897f462bdb0001a61426","6256d7e65bb4d4899ed34bc7","","","","","4951","key"," "," ","16.666151515151544","500","250","tilt","","","","","9","6","0"
"","psychophysics","67","350407","0.0-67.0","5bc8897f462bdb0001a61426","6256d7e65bb4d4899ed34bc7","","","","","5449","key"," "," ","16.666603076923103","500","250","tilt","","","","","4","7","1"
"","psychophysics","68","357366","0.0-68.0","5bc8897f462bdb0001a61426","6256d7e65bb4d4899ed34bc7","","","","","6948","key"," "," ","16.666330935251903","500","250","tilt","","","","","-15","-10","1"
"","psychophysics","69","361795","0.0-69.0","5bc8897f462bdb0001a61426","6256d7e65bb4d4899ed34bc7","","","","","4424","key"," "," ","16.665747169811358","500","250","tilt","","","","","8","8","1"
"","psychophysics","70","365812","0.0-70.0","5bc8897f462bdb0001a61426","6256d7e65bb4d4899ed34bc7","","","","","4015","key"," "," ","16.666166666666687","500","250","tilt","","","","","-4","-3","1"
"","psychophysics","71","372733","0.0-71.0","5bc8897f462bdb0001a61426","6256d7e65bb4d4899ed34bc7","","","","","6919","key"," "," ","16.666594202898484","500","250","tilt","","","","","5","3","0"
"","psychophysics","72","376478","0.0-72.0","5bc8897f462bdb0001a61426","6256d7e65bb4d4899ed34bc7","","","","","3734","key"," "," ","16.66609821428574","500","250","tilt","","","","","-10","-9","1"
"","psychophysics","73","379019","0.0-73.0","5bc8897f462bdb0001a61426","6256d7e65bb4d4899ed34bc7","","","","","2536","key"," "," ","16.666291390728386","500","250","tilt","","","","","-2","-2","1"
"","psychophysics","74","383605","0.0-74.0","5bc8897f462bdb0001a61426","6256d7e65bb4d4899ed34bc7","","","","","4583","key"," "," ","16.66654379562055","500","250","tilt","","","","","9","10","1"
"","psychophysics","75","386647","0.0-75.0","5bc8897f462bdb0001a61426","6256d7e65bb4d4899ed34bc7","","","","","3040","key"," "," ","16.66689010988985","500","250","tilt","","","","","-9","-9","1"
"","psychophysics","76","389190","0.0-76.0","5bc8897f462bdb0001a61426","6256d7e65bb4d4899ed34bc7","","","","","2539","key"," "," ","16.66686842105264","500","250","tilt","","","","","-2","-6","0"
"","psychophysics","77","392884","0.0-77.0","5bc8897f462bdb0001a61426","6256d7e65bb4d4899ed34bc7","","","","","3688","key"," "," ","16.665581818181884","500","250","inst","","","","","","",""
"","psychophysics","78","397554","0.0-78.0","5bc8897f462bdb0001a61426","6256d7e65bb4d4899ed34bc7","","","","","4668","key"," "," ","16.666784946236543","500","250","instPz","","","","","15","50",""
"","psychophysics","79","410390","0.0-79.0","5bc8897f462bdb0001a61426","6256d7e65bb4d4899ed34bc7","","","","","12830","key"," "," ","16.6663298701299","500","250","instPz","","","","","52","50",""
"","psychophysics","80","418444","0.0-80.0","5bc8897f462bdb0001a61426","6256d7e65bb4d4899ed34bc7","","","","","8048","key"," "," ","16.666066390041482","500","250","instPz","","","","","15","50",""
"","psychophysics","81","419828","0.0-81.0","5bc8897f462bdb0001a61426","6256d7e65bb4d4899ed34bc7","","","","","1383","key"," "," ","16.666817073170776","500","250","inst","","","","","","",""
"","psychophysics","82","427065","0.0-82.0","5bc8897f462bdb0001a61426","6256d7e65bb4d4899ed34bc7","","","","","7234","key"," "," ","16.666648960738996","500","250","pz","","","","","30","31",""
"","psychophysics","83","435043","0.0-83.0","5bc8897f462bdb0001a61426","6256d7e65bb4d4899ed34bc7","","","","","7974","key"," "," ","16.66605648535565","500","250","pz","","","","","39","43",""
"","psychophysics","84","441707","0.0-84.0","5bc8897f462bdb0001a61426","6256d7e65bb4d4899ed34bc7","","","","","6662","key"," "," ","16.666418546365946","500","250","pz","","","","","31","35",""
"","psychophysics","85","447639","0.0-85.0","5bc8897f462bdb0001a61426","6256d7e65bb4d4899ed34bc7","","","","","5929","key"," "," ","16.666394366197203","500","250","pz","","","","","32","32",""
"","psychophysics","86","451963","0.0-86.0","5bc8897f462bdb0001a61426","6256d7e65bb4d4899ed34bc7","","","","","4319","key"," "," ","16.665899224806072","500","250","pz","","","","","28","28",""
"","psychophysics","87","456003","0.0-87.0","5bc8897f462bdb0001a61426","6256d7e65bb4d4899ed34bc7","","","","","4038","key"," "," ","16.666342975206632","500","250","pz","","","","","34","30",""
"","psychophysics","88","460820","0.0-88.0","5bc8897f462bdb0001a61426","6256d7e65bb4d4899ed34bc7","","","","","4814","key"," "," ","16.666205574912894","500","250","pz","","","","","43","42",""
"","psychophysics","89","466819","0.0-89.0","5bc8897f462bdb0001a61426","6256d7e65bb4d4899ed34bc7","","","","","5997","key"," "," ","16.666467966573784","500","250","pz","","","","","29","26",""
"","psychophysics","90","471189","0.0-90.0","5bc8897f462bdb0001a61426","6256d7e65bb4d4899ed34bc7","","","","","4367","key"," "," ","16.66655343511446","500","250","pz","","","","","51","51",""
"","psychophysics","91","476119","0.0-91.0","5bc8897f462bdb0001a61426","6256d7e65bb4d4899ed34bc7","","","","","4927","key"," "," ","16.66620068027215","500","250","pz","","","","","52","49",""
"","psychophysics","92","480820","0.0-92.0","5bc8897f462bdb0001a61426","6256d7e65bb4d4899ed34bc7","","","","","4694","key"," "," ","16.66587234042537","500","250","pz","","","","","46","39",""
"","psychophysics","93","484750","0.0-93.0","5bc8897f462bdb0001a61426","6256d7e65bb4d4899ed34bc7","","","","","3928","key"," "," ","16.666585470085344","500","250","pz","","","","","55","51",""
"","psychophysics","94","488582","0.0-94.0","5bc8897f462bdb0001a61426","6256d7e65bb4d4899ed34bc7","","","","","3825","key"," "," ","16.666192139738076","500","250","pz","","","","","55","50",""
"","psychophysics","95","491750","0.0-95.0","5bc8897f462bdb0001a61426","6256d7e65bb4d4899ed34bc7","","","","","3160","key"," "," ","16.666301587301493","500","250","pz","","","","","30","26",""
"","psychophysics","96","495796","0.0-96.0","5bc8897f462bdb0001a61426","6256d7e65bb4d4899ed34bc7","","","","","4040","key"," "," ","16.666152892562113","500","250","pz","","","","","56","55",""
"","psychophysics","97","515907","0.0-97.0","5bc8897f462bdb0001a61426","6256d7e65bb4d4899ed34bc7","","","","","20110","key"," "," ","16.666317578772826","500","250","inst","","","","","","",""
"","psychophysics","98","518371","0.0-98.0","5bc8897f462bdb0001a61426","6256d7e65bb4d4899ed34bc7","","","","","2462","key"," "," ","16.6663605442174","500","250","inst","","","","","","",""
"","psychophysics","99","526556","0.0-99.0","5bc8897f462bdb0001a61426","6256d7e65bb4d4899ed34bc7","","","","","8183","key"," "," ","16.666348979591714","500","250","instFlank","","","","","1","0.3","1"
"","psychophysics","100","532867","0.0-100.0","5bc8897f462bdb0001a61426","6256d7e65bb4d4899ed34bc7","","","","","6310","key"," "," ","16.666347480106072","500","250","inst","","","","","","",""
"","psychophysics","101","539527","0.0-101.0","5bc8897f462bdb0001a61426","6256d7e65bb4d4899ed34bc7","","","","","6657","key"," "," ","16.66667167919794","500","250","instFlank","","","","","0.2599999999999998","0.3","1"
"","psychophysics","102","543371","0.0-102.0","5bc8897f462bdb0001a61426","6256d7e65bb4d4899ed34bc7","","","","","3841","key"," "," ","16.665991304347635","500","250","inst","","","","","","",""
"","psychophysics","103","548613","0.0-103.0","5bc8897f462bdb0001a61426","6256d7e65bb4d4899ed34bc7","","","","","5239","key"," "," ","16.666415335463594","500","250","instFlank","","","","","0.3799999999999999","0.3","0"
"","psychophysics","104","551207","0.0-104.0","5bc8897f462bdb0001a61426","6256d7e65bb4d4899ed34bc7","","","","","2591","key"," "," ","16.666470967742406","500","250","inst","","","","","","",""
"","psychophysics","105","556252","0.0-105.0","5bc8897f462bdb0001a61426","6256d7e65bb4d4899ed34bc7","","","","","5041","key"," "," ","16.66649337748331","500","250","flank","","","","","0.6500000000000001","0.4","1"
"","psychophysics","106","561307","0.0-106.0","5bc8897f462bdb0001a61426","6256d7e65bb4d4899ed34bc7","","","","","5051","key"," "," ","16.666278145695415","500","250","flank","","","","","0.7700000000000002","0.6","1"
"","psychophysics","107","565212","0.0-107.0","5bc8897f462bdb0001a61426","6256d7e65bb4d4899ed34bc7","","","","","3903","key"," "," ","16.666175965665413","500","250","flank","","","","","0.3799999999999999","0.24","1"
"","psychophysics","108","568590","0.0-108.0","5bc8897f462bdb0001a61426","6256d7e65bb4d4899ed34bc7","","","","","3374","key"," "," ","16.666613861386512","500","250","flank","","","","","0.4099999999999999","0.3","1"
"","psychophysics","109","571883","0.0-109.0","5bc8897f462bdb0001a61426","6256d7e65bb4d4899ed34bc7","","","","","3286","key"," "," ","16.66556122449015","500","250","flank","","","","","0.6800000000000002","0.44","0"
"","psychophysics","110","574995","0.0-110.0","5bc8897f462bdb0001a61426","6256d7e65bb4d4899ed34bc7","","","","","3109","key"," "," ","16.666462365591084","500","250","flank","","","","","0.43999999999999995","0.36","1"
"","psychophysics","111","578275","0.0-111.0","5bc8897f462bdb0001a61426","6256d7e65bb4d4899ed34bc7","","","","","3279","key"," "," ","16.66668877551066","500","250","flank","","","","","0.56","0.48","1"
"","psychophysics","112","581494","0.0-112.0","5bc8897f462bdb0001a61426","6256d7e65bb4d4899ed34bc7","","","","","3216","key"," "," ","16.66616145833359","500","250","flank","","","","","0.47","0.3","0"
"","psychophysics","113","585485","0.0-113.0","5bc8897f462bdb0001a61426","6256d7e65bb4d4899ed34bc7","","","","","3985","key"," "," ","16.66601255230136","500","250","flank","","","","","0.8300000000000003","0.76","0"
"","psychophysics","114","589270","0.0-114.0","5bc8897f462bdb0001a61426","6256d7e65bb4d4899ed34bc7","","","","","3781","key"," "," ","16.6667168141591","500","250","flank","","","","","0.4099999999999999","0.42","1"
"","psychophysics","115","593405","0.0-115.0","5bc8897f462bdb0001a61426","6256d7e65bb4d4899ed34bc7","","","","","4129","key"," "," ","16.666202429149898","500","250","flank","","","","","0.7400000000000002","0.48","0"
"","psychophysics","116","597597","0.0-116.0","5bc8897f462bdb0001a61426","6256d7e65bb4d4899ed34bc7","","","","","4190","key"," "," ","16.666483999999706","500","250","flank","","","","","0.8600000000000003","0.76","1"
"","psychophysics","117","601557","0.0-117.0","5bc8897f462bdb0001a61426","6256d7e65bb4d4899ed34bc7","","","","","3952","key"," "," ","16.66604219409264","500","250","flank","","","","","0.4099999999999999","0.24","1"
"","psychophysics","118","606524","0.0-118.0","5bc8897f462bdb0001a61426","6256d7e65bb4d4899ed34bc7","","","","","4963","key"," "," ","16.666494949494634","500","250","flank","","","","","0.6800000000000002","0.48","1"
"","psychophysics","119","610550","0.0-119.0","5bc8897f462bdb0001a61426","6256d7e65bb4d4899ed34bc7","","","","","4024","key"," "," ","16.66654166666655","500","250","flank","","","","","0.7700000000000002","0.76","0"
"","psychophysics","120","613923","0.0-120.0","5bc8897f462bdb0001a61426","6256d7e65bb4d4899ed34bc7","","","","","3367","key"," "," ","16.665980198020048","500","250","flank","","","","","0.3799999999999999","0.28","0"
"","psychophysics","121","618391","0.0-121.0","5bc8897f462bdb0001a61426","6256d7e65bb4d4899ed34bc7","","","","","4465","key"," "," ","16.666891385768","500","250","flank","","","","","0.8600000000000003","0.76","0"
"","psychophysics","122","622860","0.0-122.0","5bc8897f462bdb0001a61426","6256d7e65bb4d4899ed34bc7","","","","","4464","key"," "," ","16.66606367041212","500","250","flank","","","","","0.1699999999999998","0.22","1"
"","psychophysics","123","626341","0.0-123.0","5bc8897f462bdb0001a61426","6256d7e65bb4d4899ed34bc7","","","","","3478","key"," "," ","16.66649999999992","500","250","flank","","","","","0.43999999999999995","0.38","0"
"","psychophysics","124","630727","0.0-124.0","5bc8897f462bdb0001a61426","6256d7e65bb4d4899ed34bc7","","","","","4381","key"," "," ","16.66624427480909","500","250","flank","","","","","0.8600000000000003","0.78","0"
"","psychophysics","125","634139","0.0-125.0","5bc8897f462bdb0001a61426","6256d7e65bb4d4899ed34bc7","","","","","3406","key"," "," ","16.66570098039251","500","250","flank","","","","","0.56","0.48","0"
"","psychophysics","126","637883","0.0-126.0","5bc8897f462bdb0001a61426","6256d7e65bb4d4899ed34bc7","","","","","3742","key"," "," ","16.666290178571217","500","250","flank","","","","","0.56","0.36","0"
"","psychophysics","127","641440","0.0-127.0","5bc8897f462bdb0001a61426","6256d7e65bb4d4899ed34bc7","","","","","3554","key"," "," ","16.666698113207392","500","250","flank","","","","","0.7100000000000002","0.56","1"
"","psychophysics","128","644219","0.0-128.0","5bc8897f462bdb0001a61426","6256d7e65bb4d4899ed34bc7","","","","","2774","key"," "," ","16.666066265060476","500","250","flank","","","","","0.47","0.34","1"
"","psychophysics","129","648076","0.0-129.0","5bc8897f462bdb0001a61426","6256d7e65bb4d4899ed34bc7","","","","","3853","key"," "," ","16.666378260869532","500","250","flank","","","","","0.7400000000000002","0.6","1"
"","psychophysics","130","650747","0.0-130.0","5bc8897f462bdb0001a61426","6256d7e65bb4d4899ed34bc7","","","","","2669","key"," "," ","16.665867924527703","500","250","flank","","","","","0.47","0.36","0"
"","psychophysics","131","654019","0.0-131.0","5bc8897f462bdb0001a61426","6256d7e65bb4d4899ed34bc7","","","","","3248","key"," "," ","16.666448979591593","500","250","flank","","","","","0.7700000000000002","0.64","0"
"","psychophysics","132","656758","0.0-132.0","5bc8897f462bdb0001a61426","6256d7e65bb4d4899ed34bc7","","","","","2737","key"," "," ","16.66692024539939","500","250","flank","","","","","0.43999999999999995","0.38","1"
"","psychophysics","133","660947","0.0-133.0","5bc8897f462bdb0001a61426","6256d7e65bb4d4899ed34bc7","","","","","4185","key"," "," ","16.666100000000093","500","250","flank","","","","","0.6800000000000002","0.7","1"
"","psychophysics","134","664587","0.0-134.0","5bc8897f462bdb0001a61426","6256d7e65bb4d4899ed34bc7","","","","","3637","key"," "," ","16.66653669724741","500","250","flank","","","","","0.8300000000000003","0.74","0"
"true","fullscreen","135","664589","0.0-135.0","5bc8897f462bdb0001a61426","6256d7e65bb4d4899ed34bc7","","","","","","","","","","","","","","","","","","",""
