"success","trial_type","trial_index","time_elapsed","internal_node_id","pid","sid","timeout","failed_images","failed_audio","failed_video","rt","response_type","key_press","response","avg_frame_time","center_x","center_y","task","ml_len","ml_start","ml_x","ml_y","resp","targ","back"
"true","fullscreen","0","2981","0.0-0.0","5e815773285d3883ba2fbbcf","6256d74185393196b28964a0","","","","","","","","","","","","","","","","","","",""
"true","preload","1","2983","0.0-1.0","5e815773285d3883ba2fbbcf","6256d74185393196b28964a0","false","[]","[]","[]","","","","","","","","","","","","","","",""
"","psychophysics","2","8170","0.0-2.0","5e815773285d3883ba2fbbcf","6256d74185393196b28964a0","","","","","5181","key"," "," ","6.948515394912985","500","250","inst","","","","","","",""
"","psychophysics","3","10768","0.0-3.0","5e815773285d3883ba2fbbcf","6256d74185393196b28964a0","","","","","2596","key"," "," ","6.9484745308310965","500","250","inst","","","","","","",""
"","psychophysics","4","28011","0.0-4.0","5e815773285d3883ba2fbbcf","6256d74185393196b28964a0","","","","","17241","key"," "," ","6.948492338709677","500","250","instMl","162","-27","0","-29","-9","",""
"","psychophysics","5","34764","0.0-5.0","5e815773285d3883ba2fbbcf","6256d74185393196b28964a0","","","","","6751","key"," "," ","6.948489186405768","500","250","instMl","246","-41","-2","-9","-10","",""
"","psychophysics","6","37736","0.0-6.0","5e815773285d3883ba2fbbcf","6256d74185393196b28964a0","","","","","2969","key"," "," ","6.948491803278691","500","250","inst","","","","","","",""
"","psychophysics","7","49384","0.0-7.0","5e815773285d3883ba2fbbcf","6256d74185393196b28964a0","","","","","11646","key"," "," ","6.948491343283581","500","250","ml","216","35","1","-8","-8","",""
"","psychophysics","8","62333","0.0-8.0","5e815773285d3883ba2fbbcf","6256d74185393196b28964a0","","","","","12947","key"," "," ","6.948489533011272","500","250","ml","238","18","-22","-12","-13","",""
"","psychophysics","9","70659","0.0-9.0","5e815773285d3883ba2fbbcf","6256d74185393196b28964a0","","","","","8324","key"," "," ","6.948485380116959","500","250","ml","176","16","16","-1","-10","",""
"","psychophysics","10","80412","0.0-10.0","5e815773285d3883ba2fbbcf","6256d74185393196b28964a0","","","","","9751","key"," "," ","6.948487161198295","500","250","ml","154","-26","15","-21","-4","",""
"","psychophysics","11","86378","0.0-11.0","5e815773285d3883ba2fbbcf","6256d74185393196b28964a0","","","","","5963","key"," "," ","6.948488344988345","500","250","ml","214","-53","-12","-12","-6","",""
"","psychophysics","12","92760","0.0-12.0","5e815773285d3883ba2fbbcf","6256d74185393196b28964a0","","","","","6380","key"," "," ","6.948488017429193","500","250","ml","182","34","-6","-27","-13","",""
"","psychophysics","13","104924","0.0-13.0","5e815773285d3883ba2fbbcf","6256d74185393196b28964a0","","","","","12162","key"," "," ","6.948487707261291","500","250","ml","212","16","21","-21","-12","",""
"","psychophysics","14","115351","0.0-14.0","5e815773285d3883ba2fbbcf","6256d74185393196b28964a0","","","","","10425","key"," "," ","6.948486666666674","500","250","ml","162","-23","-19","-22","-8","",""
"","psychophysics","15","118249","0.0-15.0","5e815773285d3883ba2fbbcf","6256d74185393196b28964a0","","","","","2896","key"," "," ","6.9484879807692215","500","250","ml","150","-1","20","4","-9","",""
"","psychophysics","16","124452","0.0-16.0","5e815773285d3883ba2fbbcf","6256d74185393196b28964a0","","","","","6201","key"," "," ","6.948482062780255","500","250","ml","210","3","-17","-15","-8","",""
"","psychophysics","17","128896","0.0-17.0","5e815773285d3883ba2fbbcf","6256d74185393196b28964a0","","","","","4442","key"," "," ","6.948489028213187","500","250","ml","184","-31","-24","-19","-7","",""
"","psychophysics","18","138417","0.0-18.0","5e815773285d3883ba2fbbcf","6256d74185393196b28964a0","","","","","9519","key"," "," ","6.948485025566092","500","250","ml","234","-55","12","-5","-11","",""
"","psychophysics","19","142770","0.0-19.0","5e815773285d3883ba2fbbcf","6256d74185393196b28964a0","","","","","4351","key"," "," ","6.948487220447279","500","250","ml","158","-28","-2","-13","-5","",""
"","psychophysics","20","150436","0.0-20.0","5e815773285d3883ba2fbbcf","6256d74185393196b28964a0","","","","","7664","key"," "," ","6.948484573502705","500","250","ml","232","21","-14","21","-12","",""
"","psychophysics","21","155533","0.0-21.0","5e815773285d3883ba2fbbcf","6256d74185393196b28964a0","","","","","5096","key"," "," ","6.948484311050479","500","250","ml","234","43","23","29","-6","",""
"","psychophysics","22","157800","0.0-22.0","5e815773285d3883ba2fbbcf","6256d74185393196b28964a0","","","","","2265","key"," "," ","6.948476923076937","500","250","inst","","","","","","",""
"","psychophysics","23","168806","0.0-23.0","5e815773285d3883ba2fbbcf","6256d74185393196b28964a0","","","","","10999","key"," "," ","6.948484523057487","500","250","instPog","","","","","130","130",""
"","psychophysics","24","179372","0.0-24.0","5e815773285d3883ba2fbbcf","6256d74185393196b28964a0","","","","","10563","key"," "," ","6.948482236842104","500","250","instPog","","","","","132","130",""
"","psychophysics","25","189247","0.0-25.0","5e815773285d3883ba2fbbcf","6256d74185393196b28964a0","","","","","9873","key"," "," ","6.948483802816908","500","250","instPog","","","","","128","130",""
"","psychophysics","26","190725","0.0-26.0","5e815773285d3883ba2fbbcf","6256d74185393196b28964a0","","","","","1476","key"," "," ","6.948497630331762","500","250","inst","","","","","","",""
"","psychophysics","27","210294","0.0-27.0","5e815773285d3883ba2fbbcf","6256d74185393196b28964a0","","","","","19567","key"," "," ","6.9484843750000005","500","250","pog","","","","","188","177",""
"","psychophysics","28","216627","0.0-28.0","5e815773285d3883ba2fbbcf","6256d74185393196b28964a0","","","","","6331","key"," "," ","6.948482417582424","500","250","pog","","","","","151","137",""
"","psychophysics","29","221763","0.0-29.0","5e815773285d3883ba2fbbcf","6256d74185393196b28964a0","","","","","5134","key"," "," ","6.948485094850973","500","250","pog","","","","","155","141",""
"","psychophysics","30","228221","0.0-30.0","5e815773285d3883ba2fbbcf","6256d74185393196b28964a0","","","","","6456","key"," "," ","6.948485468245437","500","250","pog","","","","","155","145",""
"","psychophysics","31","235782","0.0-31.0","5e815773285d3883ba2fbbcf","6256d74185393196b28964a0","","","","","7559","key"," "," ","6.9484839006439545","500","250","pog","","","","","173","158",""
"","psychophysics","32","242547","0.0-32.0","5e815773285d3883ba2fbbcf","6256d74185393196b28964a0","","","","","6763","key"," "," ","6.948480452674907","500","250","pog","","","","","173","159",""
"","psychophysics","33","257454","0.0-33.0","5e815773285d3883ba2fbbcf","6256d74185393196b28964a0","","","","","14905","key"," "," ","6.958216619981326","500","250","pog","","","","","172","172",""
"","psychophysics","34","263241","0.0-34.0","5e815773285d3883ba2fbbcf","6256d74185393196b28964a0","","","","","5785","key"," "," ","6.948477163461575","500","250","pog","","","","","172","176",""
"","psychophysics","35","268262","0.0-35.0","5e815773285d3883ba2fbbcf","6256d74185393196b28964a0","","","","","5019","key"," "," ","6.948485436893214","500","250","pog","","","","","119","127",""
"","psychophysics","36","272376","0.0-36.0","5e815773285d3883ba2fbbcf","6256d74185393196b28964a0","","","","","4112","key"," "," ","6.948482233502562","500","250","pog","","","","","183","191",""
"","psychophysics","37","280322","0.0-37.0","5e815773285d3883ba2fbbcf","6256d74185393196b28964a0","","","","","7944","key"," "," ","6.948482064741899","500","250","pog","","","","","124","138",""
"","psychophysics","38","292300","0.0-38.0","5e815773285d3883ba2fbbcf","6256d74185393196b28964a0","","","","","11976","key"," "," ","6.9484846198491015","500","250","pog","","","","","188","196",""
"","psychophysics","39","299755","0.0-39.0","5e815773285d3883ba2fbbcf","6256d74185393196b28964a0","","","","","7453","key"," "," ","6.948483208955201","500","250","pog","","","","","115","121",""
"","psychophysics","40","312282","0.0-40.0","5e815773285d3883ba2fbbcf","6256d74185393196b28964a0","","","","","12525","key"," "," ","6.948483064963905","500","250","pog","","","","","115","123",""
"","psychophysics","41","317967","0.0-41.0","5e815773285d3883ba2fbbcf","6256d74185393196b28964a0","","","","","5683","key"," "," ","6.948478580171367","500","250","pog","","","","","171","180",""
"","psychophysics","42","319093","0.0-42.0","5e815773285d3883ba2fbbcf","6256d74185393196b28964a0","","","","","1125","key"," "," ","6.9484567901236005","500","250","inst","","","","","","",""
"","psychophysics","43","325026","0.0-43.0","5e815773285d3883ba2fbbcf","6256d74185393196b28964a0","","","","","5930","key"," "," ","6.948482394366218","500","250","instTilt","","","","","NaN","0","0"
"","psychophysics","44","328545","0.0-44.0","5e815773285d3883ba2fbbcf","6256d74185393196b28964a0","","","","","3518","key"," "," ","6.948482213438794","500","250","instTilt","","","","","0","0","0"
"","psychophysics","45","340524","0.0-45.0","5e815773285d3883ba2fbbcf","6256d74185393196b28964a0","","","","","11977","key"," "," ","6.948478816018568","500","250","instTilt","","","","","0","0","0"
"","psychophysics","46","341974","0.0-46.0","5e815773285d3883ba2fbbcf","6256d74185393196b28964a0","","","","","1449","key"," "," ","6.948471153846185","500","250","inst","","","","","","",""
"","psychophysics","47","351827","0.0-47.0","5e815773285d3883ba2fbbcf","6256d74185393196b28964a0","","","","","9851","key"," "," ","6.9484848270995245","500","250","tilt","","","","","7","10","1"
"","psychophysics","48","358586","0.0-48.0","5e815773285d3883ba2fbbcf","6256d74185393196b28964a0","","","","","6757","key"," "," ","6.948481977342911","500","250","tilt","","","","","6","7","0"
"","psychophysics","49","361866","0.0-49.0","5e815773285d3883ba2fbbcf","6256d74185393196b28964a0","","","","","3278","key"," "," ","6.9484883227176475","500","250","tilt","","","","","0","1","0"
"","psychophysics","50","367639","0.0-50.0","5e815773285d3883ba2fbbcf","6256d74185393196b28964a0","","","","","5771","key"," "," ","6.948481927710832","500","250","tilt","","","","","-10","-9","0"
"","psychophysics","51","373833","0.0-51.0","5e815773285d3883ba2fbbcf","6256d74185393196b28964a0","","","","","6192","key"," "," ","6.948481481481491","500","250","tilt","","","","","-7","-5","0"
"","psychophysics","52","380215","0.0-52.0","5e815773285d3883ba2fbbcf","6256d74185393196b28964a0","","","","","6380","key"," "," ","6.9484820065430455","500","250","tilt","","","","","-12","-10","0"
"","psychophysics","53","381913","0.0-53.0","5e815773285d3883ba2fbbcf","6256d74185393196b28964a0","","","","","1696","key"," "," ","6.948493827160481","500","250","tilt","","","","","0","-1","0"
"","psychophysics","54","386668","0.0-54.0","5e815773285d3883ba2fbbcf","6256d74185393196b28964a0","","","","","4753","key"," "," ","6.948480994152045","500","250","tilt","","","","","2","4","1"
"","psychophysics","55","392313","0.0-55.0","5e815773285d3883ba2fbbcf","6256d74185393196b28964a0","","","","","5642","key"," "," ","6.948480887792912","500","250","tilt","","","","","0","1","0"
"","psychophysics","56","400878","0.0-56.0","5e815773285d3883ba2fbbcf","6256d74185393196b28964a0","","","","","8563","key"," "," ","6.948482954545422","500","250","tilt","","","","","-10","-10","1"
"","psychophysics","57","404816","0.0-57.0","5e815773285d3883ba2fbbcf","6256d74185393196b28964a0","","","","","3936","key"," "," ","6.94848586572437","500","250","tilt","","","","","7","10","0"
"","psychophysics","58","410168","0.0-58.0","5e815773285d3883ba2fbbcf","6256d74185393196b28964a0","","","","","5351","key"," "," ","6.948475942782869","500","250","tilt","","","","","6","8","1"
"","psychophysics","59","416672","0.0-59.0","5e815773285d3883ba2fbbcf","6256d74185393196b28964a0","","","","","6502","key"," "," ","6.948480213903772","500","250","tilt","","","","","6","10","0"
"","psychophysics","60","421210","0.0-60.0","5e815773285d3883ba2fbbcf","6256d74185393196b28964a0","","","","","4536","key"," "," ","6.94847699386504","500","250","tilt","","","","","4","3","0"
"","psychophysics","61","426850","0.0-61.0","5e815773285d3883ba2fbbcf","6256d74185393196b28964a0","","","","","5637","key"," "," ","6.94848581997535","500","250","tilt","","","","","-10","-8","1"
"","psychophysics","62","432204","0.0-62.0","5e815773285d3883ba2fbbcf","6256d74185393196b28964a0","","","","","5353","key"," "," ","6.948482444733385","500","250","tilt","","","","","5","9","1"
"","psychophysics","63","437935","0.0-63.0","5e815773285d3883ba2fbbcf","6256d74185393196b28964a0","","","","","5729","key"," "," ","6.948480582524284","500","250","tilt","","","","","-11","-9","1"
"","psychophysics","64","443156","0.0-64.0","5e815773285d3883ba2fbbcf","6256d74185393196b28964a0","","","","","5220","key"," "," ","6.948475999999947","500","250","tilt","","","","","8","10","0"
"","psychophysics","65","449373","0.0-65.0","5e815773285d3883ba2fbbcf","6256d74185393196b28964a0","","","","","6215","key"," "," ","6.948482102908309","500","250","tilt","","","","","-10","-9","1"
"","psychophysics","66","454081","0.0-66.0","5e815773285d3883ba2fbbcf","6256d74185393196b28964a0","","","","","4706","key"," "," ","6.948483013293975","500","250","tilt","","","","","-12","-10","1"
"","psychophysics","67","456781","0.0-67.0","5e815773285d3883ba2fbbcf","6256d74185393196b28964a0","","","","","2698","key"," "," ","6.9484883720930295","500","250","tilt","","","","","0","1","1"
"","psychophysics","68","463892","0.0-68.0","5e815773285d3883ba2fbbcf","6256d74185393196b28964a0","","","","","7110","key"," "," ","6.948479960899356","500","250","tilt","","","","","6","8","1"
"","psychophysics","69","470876","0.0-69.0","5e815773285d3883ba2fbbcf","6256d74185393196b28964a0","","","","","6981","key"," "," ","6.94848207171316","500","250","tilt","","","","","8","9","1"
"","psychophysics","70","477378","0.0-70.0","5e815773285d3883ba2fbbcf","6256d74185393196b28964a0","","","","","6500","key"," "," ","6.948483940042848","500","250","tilt","","","","","7","8","0"
"","psychophysics","71","479625","0.0-71.0","5e815773285d3883ba2fbbcf","6256d74185393196b28964a0","","","","","2245","key"," "," ","6.94848297213618","500","250","tilt","","","","","0","3","1"
"","psychophysics","72","485823","0.0-72.0","5e815773285d3883ba2fbbcf","6256d74185393196b28964a0","","","","","6196","key"," "," ","6.948481481481491","500","250","tilt","","","","","-9","-10","0"
"","psychophysics","73","487502","0.0-73.0","5e815773285d3883ba2fbbcf","6256d74185393196b28964a0","","","","","1677","key"," "," ","6.948483333333328","500","250","tilt","","","","","0","0","0"
"","psychophysics","74","491266","0.0-74.0","5e815773285d3883ba2fbbcf","6256d74185393196b28964a0","","","","","3763","key"," "," ","6.948471349353089","500","250","tilt","","","","","-1","-1","1"
"","psychophysics","75","498921","0.0-75.0","5e815773285d3883ba2fbbcf","6256d74185393196b28964a0","","","","","7653","key"," "," ","6.948479564032709","500","250","tilt","","","","","8","10","1"
"","psychophysics","76","503403","0.0-76.0","5e815773285d3883ba2fbbcf","6256d74185393196b28964a0","","","","","4479","key"," "," ","6.948478260869486","500","250","tilt","","","","","7","5","0"
"","psychophysics","77","505072","0.0-77.0","5e815773285d3883ba2fbbcf","6256d74185393196b28964a0","","","","","1668","key"," "," ","6.948497907949756","500","250","inst","","","","","","",""
"","psychophysics","78","514547","0.0-78.0","5e815773285d3883ba2fbbcf","6256d74185393196b28964a0","","","","","9472","key"," "," ","6.948484959647817","500","250","instPz","","","","","47","50",""
"","psychophysics","79","521401","0.0-79.0","5e815773285d3883ba2fbbcf","6256d74185393196b28964a0","","","","","6853","key"," "," ","6.948475126903516","500","250","instPz","","","","","49","50",""
"","psychophysics","80","531333","0.0-80.0","5e815773285d3883ba2fbbcf","6256d74185393196b28964a0","","","","","9929","key"," "," ","6.9484845938374855","500","250","instPz","","","","","48","50",""
"","psychophysics","81","532459","0.0-81.0","5e815773285d3883ba2fbbcf","6256d74185393196b28964a0","","","","","1124","key"," "," ","6.94848765432116","500","250","inst","","","","","","",""
"","psychophysics","82","539478","0.0-82.0","5e815773285d3883ba2fbbcf","6256d74185393196b28964a0","","","","","7017","key"," "," ","6.948480673934581","500","250","pz","","","","","55","55",""
"","psychophysics","83","543439","0.0-83.0","5e815773285d3883ba2fbbcf","6256d74185393196b28964a0","","","","","3959","key"," "," ","6.948469244288232","500","250","pz","","","","","21","20",""
"","psychophysics","84","548724","0.0-84.0","5e815773285d3883ba2fbbcf","6256d74185393196b28964a0","","","","","5283","key"," "," ","6.94848353096176","500","250","pz","","","","","62","56",""
"","psychophysics","85","554031","0.0-85.0","5e815773285d3883ba2fbbcf","6256d74185393196b28964a0","","","","","5305","key"," "," ","6.948483617300244","500","250","pz","","","","","34","26",""
"","psychophysics","86","560032","0.0-86.0","5e815773285d3883ba2fbbcf","6256d74185393196b28964a0","","","","","5999","key"," "," ","6.948479721900281","500","250","pz","","","","","54","54",""
"","psychophysics","87","563917","0.0-87.0","5e815773285d3883ba2fbbcf","6256d74185393196b28964a0","","","","","3883","key"," "," ","6.948480286738313","500","250","pz","","","","","47","45",""
"","psychophysics","88","568479","0.0-88.0","5e815773285d3883ba2fbbcf","6256d74185393196b28964a0","","","","","4560","key"," "," ","6.948485496183253","500","250","pz","","","","","33","33",""
"","psychophysics","89","574013","0.0-89.0","5e815773285d3883ba2fbbcf","6256d74185393196b28964a0","","","","","5533","key"," "," ","6.948481155778943","500","250","pz","","","","","41","36",""
"","psychophysics","90","583638","0.0-90.0","5e815773285d3883ba2fbbcf","6256d74185393196b28964a0","","","","","9623","key"," "," ","6.948480491329427","500","250","pz","","","","","53","50",""
"","psychophysics","91","589378","0.0-91.0","5e815773285d3883ba2fbbcf","6256d74185393196b28964a0","","","","","5738","key"," "," ","6.94848121212118","500","250","pz","","","","","62","59",""
"","psychophysics","92","597279","0.0-92.0","5e815773285d3883ba2fbbcf","6256d74185393196b28964a0","","","","","7899","key"," "," ","6.948481514084486","500","250","pz","","","","","23","23",""
"","psychophysics","93","600999","0.0-93.0","5e815773285d3883ba2fbbcf","6256d74185393196b28964a0","","","","","3718","key"," "," ","6.948478504672873","500","250","pz","","","","","28","27",""
"","psychophysics","94","604835","0.0-94.0","5e815773285d3883ba2fbbcf","6256d74185393196b28964a0","","","","","3834","key"," "," ","6.948484573502917","500","250","pz","","","","","22","21",""
"","psychophysics","95","609854","0.0-95.0","5e815773285d3883ba2fbbcf","6256d74185393196b28964a0","","","","","5016","key"," "," ","6.9484771151178295","500","250","pz","","","","","33","31",""
"","psychophysics","96","614079","0.0-96.0","5e815773285d3883ba2fbbcf","6256d74185393196b28964a0","","","","","4223","key"," "," ","6.948485996705155","500","250","pz","","","","","21","21",""
"","psychophysics","97","616322","0.0-97.0","5e815773285d3883ba2fbbcf","6256d74185393196b28964a0","","","","","2241","key"," "," ","6.948484472049724","500","250","inst","","","","","","",""
"","psychophysics","98","619454","0.0-98.0","5e815773285d3883ba2fbbcf","6256d74185393196b28964a0","","","","","3131","key"," "," ","6.948471111111187","500","250","inst","","","","","","",""
"","psychophysics","99","626770","0.0-99.0","5e815773285d3883ba2fbbcf","6256d74185393196b28964a0","","","","","7313","key"," "," ","6.948477640342508","500","250","instFlank","","","","","0.5","0.3","1"
"","psychophysics","100","634048","0.0-100.0","5e815773285d3883ba2fbbcf","6256d74185393196b28964a0","","","","","7276","key"," "," ","6.948481375358108","500","250","inst","","","","","","",""
"","psychophysics","101","641904","0.0-101.0","5e815773285d3883ba2fbbcf","6256d74185393196b28964a0","","","","","7853","key"," "," ","6.94847918511956","500","250","instFlank","","","","","0.34999999999999987","0.3","1"
"","psychophysics","102","645335","0.0-102.0","5e815773285d3883ba2fbbcf","6256d74185393196b28964a0","","","","","3429","key"," "," ","6.948476673427848","500","250","inst","","","","","","",""
"","psychophysics","103","652405","0.0-103.0","5e815773285d3883ba2fbbcf","6256d74185393196b28964a0","","","","","7068","key"," "," ","6.96244630541875","500","250","instFlank","","","","","0.3799999999999999","0.3","0"
"","psychophysics","104","653451","0.0-104.0","5e815773285d3883ba2fbbcf","6256d74185393196b28964a0","","","","","1044","key"," "," ","6.970006711409121","500","250","inst","","","","","","",""
"","psychophysics","105","657764","0.0-105.0","5e815773285d3883ba2fbbcf","6256d74185393196b28964a0","","","","","4310","key"," "," ","6.948277867528172","500","250","flank","","","","","0.5","0.42","0"
"","psychophysics","106","662689","0.0-106.0","5e815773285d3883ba2fbbcf","6256d74185393196b28964a0","","","","","4923","key"," "," ","6.948502824858645","500","250","flank","","","","","0.5","0.5","1"
"","psychophysics","107","666081","0.0-107.0","5e815773285d3883ba2fbbcf","6256d74185393196b28964a0","","","","","3390","key"," "," ","6.948375770020647","500","250","flank","","","","","0.5900000000000001","0.46","1"
"","psychophysics","108","671784","0.0-108.0","5e815773285d3883ba2fbbcf","6256d74185393196b28964a0","","","","","5701","key"," "," ","6.948481707317079","500","250","flank","","","","","0.7400000000000002","0.48","1"
"","psychophysics","109","677013","0.0-109.0","5e815773285d3883ba2fbbcf","6256d74185393196b28964a0","","","","","5227","key"," "," ","6.948483355525948","500","250","flank","","","","","0.1999999999999998","0.24","1"
"","psychophysics","110","681233","0.0-110.0","5e815773285d3883ba2fbbcf","6256d74185393196b28964a0","","","","","4218","key"," "," ","6.948483498349767","500","250","flank","","","","","0.2299999999999998","0.22","1"
"","psychophysics","111","686755","0.0-111.0","5e815773285d3883ba2fbbcf","6256d74185393196b28964a0","","","","","5520","key"," "," ","6.948478589420587","500","250","flank","","","","","0.34999999999999987","0.36","1"
"","psychophysics","112","691083","0.0-112.0","5e815773285d3883ba2fbbcf","6256d74185393196b28964a0","","","","","4325","key"," "," ","6.948480707395431","500","250","flank","","","","","0.2299999999999998","0.2","1"
"","psychophysics","113","695856","0.0-113.0","5e815773285d3883ba2fbbcf","6256d74185393196b28964a0","","","","","4771","key"," "," ","6.948470845480983","500","250","flank","","","","","0.6500000000000001","0.6","1"
"","psychophysics","114","699864","0.0-114.0","5e815773285d3883ba2fbbcf","6256d74185393196b28964a0","","","","","4006","key"," "," ","6.948480902777899","500","250","flank","","","","","0.53","0.42","1"
"","psychophysics","115","704404","0.0-115.0","5e815773285d3883ba2fbbcf","6256d74185393196b28964a0","","","","","4538","key"," "," ","6.948484662576704","500","250","flank","","","","","0.7400000000000002","0.54","0"
"","psychophysics","116","709024","0.0-116.0","5e815773285d3883ba2fbbcf","6256d74185393196b28964a0","","","","","4618","key"," "," ","6.948478915662707","500","250","flank","","","","","0.43999999999999995","0.44","1"
"","psychophysics","117","713023","0.0-117.0","5e815773285d3883ba2fbbcf","6256d74185393196b28964a0","","","","","3997","key"," "," ","6.948486956521747","500","250","flank","","","","","0.6500000000000001","0.52","0"
"","psychophysics","118","716338","0.0-118.0","5e815773285d3883ba2fbbcf","6256d74185393196b28964a0","","","","","3313","key"," "," ","6.948476890756254","500","250","flank","","","","","0.6500000000000001","0.4","0"
"","psychophysics","119","721194","0.0-119.0","5e815773285d3883ba2fbbcf","6256d74185393196b28964a0","","","","","4854","key"," "," ","6.94847851002857","500","250","flank","","","","","0.8600000000000003","0.72","0"
"","psychophysics","120","725997","0.0-120.0","5e815773285d3883ba2fbbcf","6256d74185393196b28964a0","","","","","4800","key"," "," ","6.948485507246316","500","250","flank","","","","","0.2299999999999998","0.2","1"
"","psychophysics","121","730937","0.0-121.0","5e815773285d3883ba2fbbcf","6256d74185393196b28964a0","","","","","4938","key"," "," ","6.948477464788724","500","250","flank","","","","","0.6500000000000001","0.38","0"
"","psychophysics","122","735443","0.0-122.0","5e815773285d3883ba2fbbcf","6256d74185393196b28964a0","","","","","4504","key"," "," ","6.948485316846871","500","250","flank","","","","","0.5","0.44","1"
"","psychophysics","123","741008","0.0-123.0","5e815773285d3883ba2fbbcf","6256d74185393196b28964a0","","","","","5563","key"," "," ","6.948476249999949","500","250","flank","","","","","0.34999999999999987","0.26","1"
"","psychophysics","124","745223","0.0-124.0","5e815773285d3883ba2fbbcf","6256d74185393196b28964a0","","","","","4212","key"," "," ","6.94848844884486","500","250","flank","","","","","0.2899999999999998","0.3","1"
"","psychophysics","125","749004","0.0-125.0","5e815773285d3883ba2fbbcf","6256d74185393196b28964a0","","","","","3780","key"," "," ","6.948480662983468","500","250","flank","","","","","0.56","0.48","0"
"","psychophysics","126","752575","0.0-126.0","5e815773285d3883ba2fbbcf","6256d74185393196b28964a0","","","","","3569","key"," "," ","6.948475633528207","500","250","flank","","","","","0.53","0.42","0"
"","psychophysics","127","756757","0.0-127.0","5e815773285d3883ba2fbbcf","6256d74185393196b28964a0","","","","","4180","key"," "," ","6.948487520798616","500","250","flank","","","","","0.8000000000000003","0.78","1"
"","psychophysics","128","761775","0.0-128.0","5e815773285d3883ba2fbbcf","6256d74185393196b28964a0","","","","","5015","key"," "," ","6.948474341192917","500","250","flank","","","","","0.7400000000000002","0.78","1"
"","psychophysics","129","765332","0.0-129.0","5e815773285d3883ba2fbbcf","6256d74185393196b28964a0","","","","","3555","key"," "," ","6.948487279843493","500","250","flank","","","","","0.6200000000000001","0.54","1"
"","psychophysics","130","769969","0.0-130.0","5e815773285d3883ba2fbbcf","6256d74185393196b28964a0","","","","","4635","key"," "," ","6.94848648648637","500","250","flank","","","","","0.9200000000000004","0.78","0"
"","psychophysics","131","775465","0.0-131.0","5e815773285d3883ba2fbbcf","6256d74185393196b28964a0","","","","","5494","key"," "," ","6.948474683544357","500","250","flank","","","","","0.8300000000000003","0.66","0"
"","psychophysics","132","779092","0.0-132.0","5e815773285d3883ba2fbbcf","6256d74185393196b28964a0","","","","","3625","key"," "," ","6.948477927063352","500","250","flank","","","","","0.6200000000000001","0.6","1"
"","psychophysics","133","782741","0.0-133.0","5e815773285d3883ba2fbbcf","6256d74185393196b28964a0","","","","","3647","key"," "," ","6.948480916030452","500","250","flank","","","","","0.6800000000000002","0.5","0"
"","psychophysics","134","786892","0.0-134.0","5e815773285d3883ba2fbbcf","6256d74185393196b28964a0","","","","","4149","key"," "," ","6.948472361809065","500","250","flank","","","","","0.7700000000000002","0.6","1"
"true","fullscreen","135","786894","0.0-135.0","5e815773285d3883ba2fbbcf","6256d74185393196b28964a0","","","","","","","","","","","","","","","","","","",""
