"success","trial_type","trial_index","time_elapsed","internal_node_id","pid","sid","timeout","failed_images","failed_audio","failed_video","rt","response_type","key_press","response","avg_frame_time","center_x","center_y","task","ml_len","ml_start","ml_x","ml_y","resp","targ","back"
"true","fullscreen","0","3131","0.0-0.0","57c725d89a5f4f0001f661bd","6256dda3380110ffc61c7466","","","","","","","","","","","","","","","","","","",""
"true","preload","1","3139","0.0-1.0","57c725d89a5f4f0001f661bd","6256dda3380110ffc61c7466","false","[]","[]","[]","","","","","","","","","","","","","","",""
"","psychophysics","2","5800","0.0-2.0","57c725d89a5f4f0001f661bd","6256dda3380110ffc61c7466","","","","","2613","key"," "," ","16.858069620253165","500","250","inst","","","","","","",""
"","psychophysics","3","7616","0.0-3.0","57c725d89a5f4f0001f661bd","6256dda3380110ffc61c7466","","","","","1813","key"," "," ","16.64809259259259","500","250","inst","","","","","","",""
"","psychophysics","4","26342","0.0-4.0","57c725d89a5f4f0001f661bd","6256dda3380110ffc61c7466","","","","","18721","key"," "," ","16.64733185053381","500","250","instMl","210","-35","21","-8","-15","",""
"","psychophysics","5","39049","0.0-5.0","57c725d89a5f4f0001f661bd","6256dda3380110ffc61c7466","","","","","12699","key"," "," ","16.64737401574803","500","250","instMl","242","-40.333333333333336","26","-7","-20.333333333333258","",""
"","psychophysics","6","47690","0.0-6.0","57c725d89a5f4f0001f661bd","6256dda3380110ffc61c7466","","","","","8637","key"," "," ","16.647305019305026","500","250","inst","","","","","","",""
"","psychophysics","7","51362","0.0-7.0","57c725d89a5f4f0001f661bd","6256dda3380110ffc61c7466","","","","","3669","key"," "," ","16.647809090909107","500","250","ml","174","2","-29","17","-8","",""
"","psychophysics","8","55654","0.0-8.0","57c725d89a5f4f0001f661bd","6256dda3380110ffc61c7466","","","","","4286","key"," "," ","16.64673828125001","500","250","ml","230","0","-21","-28","-13","",""
"","psychophysics","9","60368","0.0-9.0","57c725d89a5f4f0001f661bd","6256dda3380110ffc61c7466","","","","","4705","key"," "," ","16.6479184397163","500","250","ml","160","-7","17","-6","-13","",""
"","psychophysics","10","64434","0.0-10.0","57c725d89a5f4f0001f661bd","6256dda3380110ffc61c7466","","","","","4058","key"," "," ","16.64760245901639","500","250","ml","168","-41","-1","-27","-21","",""
"","psychophysics","11","73041","0.0-11.0","57c725d89a5f4f0001f661bd","6256dda3380110ffc61c7466","","","","","8598","key"," "," ","16.64749418604652","500","250","ml","248","29","-22","-25","-15","",""
"","psychophysics","12","76333","0.0-12.0","57c725d89a5f4f0001f661bd","6256dda3380110ffc61c7466","","","","","3285","key"," "," ","16.647385786801973","500","250","ml","208","-17","11","19","-21","",""
"","psychophysics","13","82030","0.0-13.0","57c725d89a5f4f0001f661bd","6256dda3380110ffc61c7466","","","","","5692","key"," "," ","16.647454545454565","500","250","ml","164","-37","-6","-15","-13","",""
"","psychophysics","14","88770","0.0-14.0","57c725d89a5f4f0001f661bd","6256dda3380110ffc61c7466","","","","","6728","key"," "," ","16.647371287128713","500","250","ml","236","50","20","-30","-21","",""
"","psychophysics","15","93781","0.0-15.0","57c725d89a5f4f0001f661bd","6256dda3380110ffc61c7466","","","","","5006","key"," "," ","16.64731666666664","500","250","ml","152","-18","-11","28","-15","",""
"","psychophysics","16","100355","0.0-16.0","57c725d89a5f4f0001f661bd","6256dda3380110ffc61c7466","","","","","6569","key"," "," ","16.647406091370545","500","250","ml","240","17","5","19","-20","",""
"","psychophysics","17","105272","0.0-17.0","57c725d89a5f4f0001f661bd","6256dda3380110ffc61c7466","","","","","4911","key"," "," ","16.703754266211593","500","250","ml","206","21","-11","-19","-15","",""
"","psychophysics","18","112231","0.0-18.0","57c725d89a5f4f0001f661bd","6256dda3380110ffc61c7466","","","","","6957","key"," "," ","16.687790865384613","500","250","ml","200","-3","10","1","-20","",""
"","psychophysics","19","115705","0.0-19.0","57c725d89a5f4f0001f661bd","6256dda3380110ffc61c7466","","","","","3467","key"," "," ","16.646971153846188","500","250","ml","182","0","-6","17","-11","",""
"","psychophysics","20","122081","0.0-20.0","57c725d89a5f4f0001f661bd","6256dda3380110ffc61c7466","","","","","6372","key"," "," ","16.647620418848177","500","250","ml","246","43","-24","24","-27","",""
"","psychophysics","21","127947","0.0-21.0","57c725d89a5f4f0001f661bd","6256dda3380110ffc61c7466","","","","","5858","key"," "," ","16.647797720797744","500","250","ml","152","24","6","19","-16","",""
"","psychophysics","22","129906","0.0-22.0","57c725d89a5f4f0001f661bd","6256dda3380110ffc61c7466","","","","","1950","key"," "," ","16.646504273504178","500","250","inst","","","","","","",""
"","psychophysics","23","147763","0.0-23.0","57c725d89a5f4f0001f661bd","6256dda3380110ffc61c7466","","","","","17854","key"," "," ","16.64736134453781","500","250","instPog","","","","","130","130",""
"","psychophysics","24","156358","0.0-24.0","57c725d89a5f4f0001f661bd","6256dda3380110ffc61c7466","","","","","8589","key"," "," ","16.64774418604652","500","250","instPog","","","","","149","130",""
"","psychophysics","25","163188","0.0-25.0","57c725d89a5f4f0001f661bd","6256dda3380110ffc61c7466","","","","","6822","key"," "," ","16.647134474327594","500","250","instPog","","","","","158","130",""
"","psychophysics","26","164315","0.0-26.0","57c725d89a5f4f0001f661bd","6256dda3380110ffc61c7466","","","","","1123","key"," "," ","16.649925373134085","500","250","inst","","","","","","",""
"","psychophysics","27","169617","0.0-27.0","57c725d89a5f4f0001f661bd","6256dda3380110ffc61c7466","","","","","5298","key"," "," ","16.646788643533142","500","250","pog","","","","","218","198",""
"","psychophysics","28","173854","0.0-28.0","57c725d89a5f4f0001f661bd","6256dda3380110ffc61c7466","","","","","4234","key"," "," ","16.647755905511808","500","250","pog","","","","","192","177",""
"","psychophysics","29","178017","0.0-29.0","57c725d89a5f4f0001f661bd","6256dda3380110ffc61c7466","","","","","4159","key"," "," ","16.646642570281106","500","250","pog","","","","","212","200",""
"","psychophysics","30","181562","0.0-30.0","57c725d89a5f4f0001f661bd","6256dda3380110ffc61c7466","","","","","3542","key"," "," ","16.64733490566045","500","250","pog","","","","","208","194",""
"","psychophysics","31","186942","0.0-31.0","57c725d89a5f4f0001f661bd","6256dda3380110ffc61c7466","","","","","5378","key"," "," ","16.647223602484434","500","250","pog","","","","","215","197",""
"","psychophysics","32","192164","0.0-32.0","57c725d89a5f4f0001f661bd","6256dda3380110ffc61c7466","","","","","5218","key"," "," ","16.64792307692308","500","250","pog","","","","","160","145",""
"","psychophysics","33","194280","0.0-33.0","57c725d89a5f4f0001f661bd","6256dda3380110ffc61c7466","","","","","2108","key"," "," ","16.64712598425218","500","250","pog","","","","","160","139",""
"","psychophysics","34","196819","0.0-34.0","57c725d89a5f4f0001f661bd","6256dda3380110ffc61c7466","","","","","2534","key"," "," ","16.647947019867527","500","250","pog","","","","","160","138",""
"","psychophysics","35","204886","0.0-35.0","57c725d89a5f4f0001f661bd","6256dda3380110ffc61c7466","","","","","8061","key"," "," ","16.647334710743795","500","250","pog","","","","","152","123",""
"","psychophysics","36","210926","0.0-36.0","57c725d89a5f4f0001f661bd","6256dda3380110ffc61c7466","","","","","6033","key"," "," ","16.64729085872574","500","250","pog","","","","","209","185",""
"","psychophysics","37","216066","0.0-37.0","57c725d89a5f4f0001f661bd","6256dda3380110ffc61c7466","","","","","5124","key"," "," ","16.647834415584402","500","250","pog","","","","","209","193",""
"","psychophysics","38","220887","0.0-38.0","57c725d89a5f4f0001f661bd","6256dda3380110ffc61c7466","","","","","4810","key"," "," ","16.647214532872017","500","250","pog","","","","","197","186",""
"","psychophysics","39","224950","0.0-39.0","57c725d89a5f4f0001f661bd","6256dda3380110ffc61c7466","","","","","4059","key"," "," ","16.64703703703708","500","250","pog","","","","","161","142",""
"","psychophysics","40","231890","0.0-40.0","57c725d89a5f4f0001f661bd","6256dda3380110ffc61c7466","","","","","6937","key"," "," ","16.64789663461537","500","250","pog","","","","","165","149",""
"","psychophysics","41","240208","0.0-41.0","57c725d89a5f4f0001f661bd","6256dda3380110ffc61c7466","","","","","8313","key"," "," ","16.647331325301174","500","250","pog","","","","","183","174",""
"","psychophysics","42","241546","0.0-42.0","57c725d89a5f4f0001f661bd","6256dda3380110ffc61c7466","","","","","1326","key"," "," ","16.646199999999954","500","250","inst","","","","","","",""
"","psychophysics","43","245579","0.0-43.0","57c725d89a5f4f0001f661bd","6256dda3380110ffc61c7466","","","","","4030","key"," "," ","16.648070539419077","500","250","instTilt","","","","","NaN","0","0"
"","psychophysics","44","248388","0.0-44.0","57c725d89a5f4f0001f661bd","6256dda3380110ffc61c7466","","","","","2796","key"," "," ","16.647380952381006","500","250","instTilt","","","","","-1","0","0"
"","psychophysics","45","252519","0.0-45.0","57c725d89a5f4f0001f661bd","6256dda3380110ffc61c7466","","","","","4126","key"," "," ","16.647137651821954","500","250","instTilt","","","","","0","0","0"
"","psychophysics","46","255367","0.0-46.0","57c725d89a5f4f0001f661bd","6256dda3380110ffc61c7466","","","","","2844","key"," "," ","16.64735882352945","500","250","inst","","","","","","",""
"","psychophysics","47","261524","0.0-47.0","57c725d89a5f4f0001f661bd","6256dda3380110ffc61c7466","","","","","6148","key"," "," ","16.6475989159891","500","250","tilt","","","","","8","8","1"
"","psychophysics","48","266397","0.0-48.0","57c725d89a5f4f0001f661bd","6256dda3380110ffc61c7466","","","","","4868","key"," "," ","16.647458904109655","500","250","tilt","","","","","-6","-1","1"
"","psychophysics","49","269726","0.0-49.0","57c725d89a5f4f0001f661bd","6256dda3380110ffc61c7466","","","","","3325","key"," "," ","16.64748241206024","500","250","tilt","","","","","1","-2","0"
"","psychophysics","50","271551","0.0-50.0","57c725d89a5f4f0001f661bd","6256dda3380110ffc61c7466","","","","","1815","key"," "," ","16.646314814815046","500","250","tilt","","","","","0","-1","1"
"","psychophysics","51","275272","0.0-51.0","57c725d89a5f4f0001f661bd","6256dda3380110ffc61c7466","","","","","3714","key"," "," ","16.648161434977485","500","250","tilt","","","","","-2","-1","1"
"","psychophysics","52","278300","0.0-52.0","57c725d89a5f4f0001f661bd","6256dda3380110ffc61c7466","","","","","2989","key"," "," ","16.647834254143493","500","250","tilt","","","","","4","4","1"
"","psychophysics","53","284244","0.0-53.0","57c725d89a5f4f0001f661bd","6256dda3380110ffc61c7466","","","","","5938","key"," "," ","16.647306179775256","500","250","tilt","","","","","4","3","1"
"","psychophysics","54","291644","0.0-54.0","57c725d89a5f4f0001f661bd","6256dda3380110ffc61c7466","","","","","7395","key"," "," ","16.647532731377016","500","250","tilt","","","","","14","10","0"
"","psychophysics","55","300823","0.0-55.0","57c725d89a5f4f0001f661bd","6256dda3380110ffc61c7466","","","","","9168","key"," "," ","16.64752087114335","500","250","tilt","","","","","5","8","1"
"","psychophysics","56","305485","0.0-56.0","57c725d89a5f4f0001f661bd","6256dda3380110ffc61c7466","","","","","4656","key"," "," ","16.647727598566362","500","250","tilt","","","","","-10","-4","1"
"","psychophysics","57","309671","0.0-57.0","57c725d89a5f4f0001f661bd","6256dda3380110ffc61c7466","","","","","4181","key"," "," ","16.647384000000077","500","250","tilt","","","","","-4","-4","0"
"","psychophysics","58","316771","0.0-58.0","57c725d89a5f4f0001f661bd","6256dda3380110ffc61c7466","","","","","7053","key"," "," ","16.686416470588266","500","250","tilt","","","","","-8","-8","0"
"","psychophysics","59","323749","0.0-59.0","57c725d89a5f4f0001f661bd","6256dda3380110ffc61c7466","","","","","6960","key"," "," ","16.647610047846893","500","250","tilt","","","","","9","8","0"
"","psychophysics","60","327923","0.0-60.0","57c725d89a5f4f0001f661bd","6256dda3380110ffc61c7466","","","","","4167","key"," "," ","16.64703600000008","500","250","tilt","","","","","6","6","0"
"","psychophysics","61","331847","0.0-61.0","57c725d89a5f4f0001f661bd","6256dda3380110ffc61c7466","","","","","3919","key"," "," ","16.648034188034","500","250","tilt","","","","","-11","-10","1"
"","psychophysics","62","337119","0.0-62.0","57c725d89a5f4f0001f661bd","6256dda3380110ffc61c7466","","","","","5255","key"," "," ","16.647550632911358","500","250","tilt","","","","","0","2","1"
"","psychophysics","63","341691","0.0-63.0","57c725d89a5f4f0001f661bd","6256dda3380110ffc61c7466","","","","","4566","key"," "," ","16.647339416058337","500","250","tilt","","","","","6","5","0"
"","psychophysics","64","345172","0.0-64.0","57c725d89a5f4f0001f661bd","6256dda3380110ffc61c7466","","","","","3477","key"," "," ","16.648019230769233","500","250","tilt","","","","","6","6","0"
"","psychophysics","65","349784","0.0-65.0","57c725d89a5f4f0001f661bd","6256dda3380110ffc61c7466","","","","","4606","key"," "," ","16.647481884057818","500","250","tilt","","","","","5","9","1"
"","psychophysics","66","353059","0.0-66.0","57c725d89a5f4f0001f661bd","6256dda3380110ffc61c7466","","","","","3267","key"," "," ","16.647799999999982","500","250","tilt","","","","","6","8","0"
"","psychophysics","67","356286","0.0-67.0","57c725d89a5f4f0001f661bd","6256dda3380110ffc61c7466","","","","","3217","key"," "," ","16.64694818652867","500","250","tilt","","","","","4","9","1"
"","psychophysics","68","361714","0.0-68.0","57c725d89a5f4f0001f661bd","6256dda3380110ffc61c7466","","","","","5422","key"," "," ","16.647753846153723","500","250","tilt","","","","","2","1","0"
"","psychophysics","69","365332","0.0-69.0","57c725d89a5f4f0001f661bd","6256dda3380110ffc61c7466","","","","","3610","key"," "," ","16.64787096774215","500","250","tilt","","","","","-4","2","1"
"","psychophysics","70","368193","0.0-70.0","57c725d89a5f4f0001f661bd","6256dda3380110ffc61c7466","","","","","2856","key"," "," ","16.646824561403275","500","250","tilt","","","","","3","6","0"
"","psychophysics","71","370276","0.0-71.0","57c725d89a5f4f0001f661bd","6256dda3380110ffc61c7466","","","","","2079","key"," "," ","16.64743548387102","500","250","tilt","","","","","-1","-2","1"
"","psychophysics","72","375290","0.0-72.0","57c725d89a5f4f0001f661bd","6256dda3380110ffc61c7466","","","","","5010","key"," "," ","16.647243333333172","500","250","tilt","","","","","-10","-8","1"
"","psychophysics","73","379676","0.0-73.0","57c725d89a5f4f0001f661bd","6256dda3380110ffc61c7466","","","","","4383","key"," "," ","16.64774427480928","500","250","tilt","","","","","-4","0","1"
"","psychophysics","74","386198","0.0-74.0","57c725d89a5f4f0001f661bd","6256dda3380110ffc61c7466","","","","","6514","key"," "," ","16.64724552429676","500","250","tilt","","","","","-4","-7","0"
"","psychophysics","75","391938","0.0-75.0","57c725d89a5f4f0001f661bd","6256dda3380110ffc61c7466","","","","","5737","key"," "," ","16.647793604651206","500","250","tilt","","","","","6","8","0"
"","psychophysics","76","397265","0.0-76.0","57c725d89a5f4f0001f661bd","6256dda3380110ffc61c7466","","","","","5320","key"," "," ","16.647589341692626","500","250","tilt","","","","","2","6","1"
"","psychophysics","77","399199","0.0-77.0","57c725d89a5f4f0001f661bd","6256dda3380110ffc61c7466","","","","","1929","key"," "," ","16.646765217391025","500","250","inst","","","","","","",""
"","psychophysics","78","421168","0.0-78.0","57c725d89a5f4f0001f661bd","6256dda3380110ffc61c7466","","","","","21961","key"," "," ","16.64742077331314","500","250","instPz","","","","","48","50",""
"","psychophysics","79","425679","0.0-79.0","57c725d89a5f4f0001f661bd","6256dda3380110ffc61c7466","","","","","4507","key"," "," ","16.64743703703689","500","250","instPz","","","","","49","50",""
"","psychophysics","80","434577","0.0-80.0","57c725d89a5f4f0001f661bd","6256dda3380110ffc61c7466","","","","","8857","key"," "," ","16.647204502814297","500","250","instPz","","","","","59","50",""
"","psychophysics","81","436044","0.0-81.0","57c725d89a5f4f0001f661bd","6256dda3380110ffc61c7466","","","","","1462","key"," "," ","16.647942528735456","500","250","inst","","","","","","",""
"","psychophysics","82","440090","0.0-82.0","57c725d89a5f4f0001f661bd","6256dda3380110ffc61c7466","","","","","4033","key"," "," ","16.647061983470984","500","250","pz","","","","","56","37",""
"","psychophysics","83","444761","0.0-83.0","57c725d89a5f4f0001f661bd","6256dda3380110ffc61c7466","","","","","4666","key"," "," ","16.647317857142895","500","250","pz","","","","","58","43",""
"","psychophysics","84","452922","0.0-84.0","57c725d89a5f4f0001f661bd","6256dda3380110ffc61c7466","","","","","8159","key"," "," ","16.647341513292528","500","250","pz","","","","","71","59",""
"","psychophysics","85","462437","0.0-85.0","57c725d89a5f4f0001f661bd","6256dda3380110ffc61c7466","","","","","9512","key"," "," ","16.647698774080578","500","250","pz","","","","","73","48",""
"","psychophysics","86","469726","0.0-86.0","57c725d89a5f4f0001f661bd","6256dda3380110ffc61c7466","","","","","7284","key"," "," ","16.64708466819225","500","250","pz","","","","","58","44",""
"","psychophysics","87","474295","0.0-87.0","57c725d89a5f4f0001f661bd","6256dda3380110ffc61c7466","","","","","4568","key"," "," ","16.648010989011013","500","250","pz","","","","","48","34",""
"","psychophysics","88","477520","0.0-88.0","57c725d89a5f4f0001f661bd","6256dda3380110ffc61c7466","","","","","3220","key"," "," ","16.647601036269247","500","250","pz","","","","","39","26",""
"","psychophysics","89","484621","0.0-89.0","57c725d89a5f4f0001f661bd","6256dda3380110ffc61c7466","","","","","7096","key"," "," ","16.646957647058812","500","250","pz","","","","","60","50",""
"","psychophysics","90","492524","0.0-90.0","57c725d89a5f4f0001f661bd","6256dda3380110ffc61c7466","","","","","7898","key"," "," ","16.64741350210973","500","250","pz","","","","","35","25",""
"","psychophysics","91","495836","0.0-91.0","57c725d89a5f4f0001f661bd","6256dda3380110ffc61c7466","","","","","3308","key"," "," ","16.648111111111117","500","250","pz","","","","","45","26",""
"","psychophysics","92","499683","0.0-92.0","57c725d89a5f4f0001f661bd","6256dda3380110ffc61c7466","","","","","3840","key"," "," ","16.647717391304248","500","250","pz","","","","","42","30",""
"","psychophysics","93","505366","0.0-93.0","57c725d89a5f4f0001f661bd","6256dda3380110ffc61c7466","","","","","5677","key"," "," ","16.64736176470589","500","250","pz","","","","","66","50",""
"","psychophysics","94","511227","0.0-94.0","57c725d89a5f4f0001f661bd","6256dda3380110ffc61c7466","","","","","5851","key"," "," ","16.64739601139594","500","250","pz","","","","","38","29",""
"","psychophysics","95","513450","0.0-95.0","57c725d89a5f4f0001f661bd","6256dda3380110ffc61c7466","","","","","2212","key"," "," ","16.647150375939823","500","250","pz","","","","","36","20",""
"","psychophysics","96","518780","0.0-96.0","57c725d89a5f4f0001f661bd","6256dda3380110ffc61c7466","","","","","5325","key"," "," ","16.647699059561248","500","250","pz","","","","","58","43",""
"","psychophysics","97","519977","0.0-97.0","57c725d89a5f4f0001f661bd","6256dda3380110ffc61c7466","","","","","1184","key"," "," ","16.645943661971334","500","250","inst","","","","","","",""
"","psychophysics","98","528674","0.0-98.0","57c725d89a5f4f0001f661bd","6256dda3380110ffc61c7466","","","","","8694","key"," "," ","16.647388888888845","500","250","inst","","","","","","",""
"","psychophysics","99","544683","0.0-99.0","57c725d89a5f4f0001f661bd","6256dda3380110ffc61c7466","","","","","16007","key"," "," ","16.647361458333275","500","250","instFlank","","","","","0.5","0.3","1"
"","psychophysics","100","555962","0.0-100.0","57c725d89a5f4f0001f661bd","6256dda3380110ffc61c7466","","","","","11272","key"," "," ","16.647313146233426","500","250","inst","","","","","","",""
"","psychophysics","101","562855","0.0-101.0","57c725d89a5f4f0001f661bd","6256dda3380110ffc61c7466","","","","","6890","key"," "," ","16.647723970944334","500","250","instFlank","","","","","0.24000000000000002","0.3","1"
"","psychophysics","102","566324","0.0-102.0","57c725d89a5f4f0001f661bd","6256dda3380110ffc61c7466","","","","","3464","key"," "," ","16.647753623188787","500","250","inst","","","","","","",""
"","psychophysics","103","571077","0.0-103.0","57c725d89a5f4f0001f661bd","6256dda3380110ffc61c7466","","","","","4723","key"," "," ","16.64714035087739","500","250","instFlank","","","","","0.43999999999999995","0.3","0"
"","psychophysics","104","582229","0.0-104.0","57c725d89a5f4f0001f661bd","6256dda3380110ffc61c7466","","","","","11148","key"," "," ","16.647431988041827","500","250","inst","","","","","","",""
"","psychophysics","105","587402","0.0-105.0","57c725d89a5f4f0001f661bd","6256dda3380110ffc61c7466","","","","","5167","key"," "," ","16.647598705501643","500","250","flank","","","","","0.5","0.62","0"
"","psychophysics","106","591136","0.0-106.0","57c725d89a5f4f0001f661bd","6256dda3380110ffc61c7466","","","","","3722","key"," "," ","16.647053571428323","500","250","flank","","","","","0.34999999999999987","0.34","0"
"","psychophysics","107","596132","0.0-107.0","57c725d89a5f4f0001f661bd","6256dda3380110ffc61c7466","","","","","4991","key"," "," ","16.647929765886385","500","250","flank","","","","","0.4099999999999999","0.5","1"
"","psychophysics","108","603183","0.0-108.0","57c725d89a5f4f0001f661bd","6256dda3380110ffc61c7466","","","","","7044","key"," "," ","16.647409952606484","500","250","flank","","","","","0.1999999999999998","0.2","0"
"","psychophysics","109","607777","0.0-109.0","57c725d89a5f4f0001f661bd","6256dda3380110ffc61c7466","","","","","4583","key"," "," ","16.646978181818163","500","250","flank","","","","","0.47","0.5","1"
"","psychophysics","110","612578","0.0-110.0","57c725d89a5f4f0001f661bd","6256dda3380110ffc61c7466","","","","","4797","key"," "," ","16.647843750000092","500","250","flank","","","","","0.6500000000000001","0.62","0"
"","psychophysics","111","616941","0.0-111.0","57c725d89a5f4f0001f661bd","6256dda3380110ffc61c7466","","","","","4357","key"," "," ","16.64742528735633","500","250","flank","","","","","0.1999999999999998","0.26","0"
"","psychophysics","112","621607","0.0-112.0","57c725d89a5f4f0001f661bd","6256dda3380110ffc61c7466","","","","","4658","key"," "," ","16.647577060931898","500","250","flank","","","","","0.2899999999999998","0.28","1"
"","psychophysics","113","624738","0.0-113.0","57c725d89a5f4f0001f661bd","6256dda3380110ffc61c7466","","","","","3119","key"," "," ","16.647828877005193","500","250","flank","","","","","0.47","0.4","0"
"","psychophysics","114","629026","0.0-114.0","57c725d89a5f4f0001f661bd","6256dda3380110ffc61c7466","","","","","4277","key"," "," ","16.647171875000367","500","250","flank","","","","","0.43999999999999995","0.46","1"
"","psychophysics","115","632837","0.0-115.0","57c725d89a5f4f0001f661bd","6256dda3380110ffc61c7466","","","","","3804","key"," "," ","16.64712719298264","500","250","flank","","","","","0.31999999999999984","0.34","0"
"","psychophysics","116","635962","0.0-116.0","57c725d89a5f4f0001f661bd","6256dda3380110ffc61c7466","","","","","3117","key"," "," ","16.647401069518786","500","250","flank","","","","","0.5","0.46","0"
"","psychophysics","117","641317","0.0-117.0","57c725d89a5f4f0001f661bd","6256dda3380110ffc61c7466","","","","","5350","key"," "," ","16.64784735202502","500","250","flank","","","","","0.6800000000000002","0.64","0"
"","psychophysics","118","645610","0.0-118.0","57c725d89a5f4f0001f661bd","6256dda3380110ffc61c7466","","","","","4280","key"," "," ","16.64719066147852","500","250","flank","","","","","0.1999999999999998","0.26","1"
"","psychophysics","119","648862","0.0-119.0","57c725d89a5f4f0001f661bd","6256dda3380110ffc61c7466","","","","","3246","key"," "," ","16.646927835051326","500","250","flank","","","","","0.5","0.44","1"
"","psychophysics","120","652178","0.0-120.0","57c725d89a5f4f0001f661bd","6256dda3380110ffc61c7466","","","","","3313","key"," "," ","16.648232323232207","500","250","flank","","","","","0.2899999999999998","0.24","1"
"","psychophysics","121","655856","0.0-121.0","57c725d89a5f4f0001f661bd","6256dda3380110ffc61c7466","","","","","3667","key"," "," ","16.647595454545545","500","250","flank","","","","","0.53","0.48","0"
"","psychophysics","122","659560","0.0-122.0","57c725d89a5f4f0001f661bd","6256dda3380110ffc61c7466","","","","","3693","key"," "," ","16.64745945945961","500","250","flank","","","","","0.53","0.5","1"
"","psychophysics","123","662896","0.0-123.0","57c725d89a5f4f0001f661bd","6256dda3380110ffc61c7466","","","","","3329","key"," "," ","16.64762814070365","500","250","flank","","","","","0.8300000000000003","0.8","0"
"","psychophysics","124","666259","0.0-124.0","57c725d89a5f4f0001f661bd","6256dda3380110ffc61c7466","","","","","3350","key"," "," ","16.647283582089802","500","250","flank","","","","","0.3799999999999999","0.4","0"
"","psychophysics","125","670495","0.0-125.0","57c725d89a5f4f0001f661bd","6256dda3380110ffc61c7466","","","","","4217","key"," "," ","16.64756299212564","500","250","flank","","","","","0.5900000000000001","0.64","1"
"","psychophysics","126","674192","0.0-126.0","57c725d89a5f4f0001f661bd","6256dda3380110ffc61c7466","","","","","3678","key"," "," ","16.64725339366492","500","250","flank","","","","","0.7400000000000002","0.68","1"
"","psychophysics","127","677491","0.0-127.0","57c725d89a5f4f0001f661bd","6256dda3380110ffc61c7466","","","","","3279","key"," "," ","16.64705076142153","500","250","flank","","","","","0.7700000000000002","0.68","0"
"","psychophysics","128","681396","0.0-128.0","57c725d89a5f4f0001f661bd","6256dda3380110ffc61c7466","","","","","3902","key"," "," ","16.648120171673767","500","250","flank","","","","","0.7100000000000002","0.66","0"
"","psychophysics","129","684928","0.0-129.0","57c725d89a5f4f0001f661bd","6256dda3380110ffc61c7466","","","","","3520","key"," "," ","16.646985849056982","500","250","flank","","","","","0.8000000000000003","0.76","1"
"","psychophysics","130","688872","0.0-130.0","57c725d89a5f4f0001f661bd","6256dda3380110ffc61c7466","","","","","3941","key"," "," ","16.647491525423565","500","250","flank","","","","","0.7700000000000002","0.68","1"
"","psychophysics","131","692545","0.0-131.0","57c725d89a5f4f0001f661bd","6256dda3380110ffc61c7466","","","","","3665","key"," "," ","16.723582568807515","500","250","flank","","","","","0.8000000000000003","0.72","0"
"","psychophysics","132","697180","0.0-132.0","57c725d89a5f4f0001f661bd","6256dda3380110ffc61c7466","","","","","4632","key"," "," ","16.647413669064854","500","250","flank","","","","","0.7100000000000002","0.64","0"
"","psychophysics","133","700881","0.0-133.0","57c725d89a5f4f0001f661bd","6256dda3380110ffc61c7466","","","","","3697","key"," "," ","16.648248868778442","500","250","flank","","","","","0.34999999999999987","0.36","0"
"","psychophysics","134","705760","0.0-134.0","57c725d89a5f4f0001f661bd","6256dda3380110ffc61c7466","","","","","4875","key"," "," ","16.647390410958707","500","250","flank","","","","","0.43999999999999995","0.38","0"
"true","fullscreen","135","705763","0.0-135.0","57c725d89a5f4f0001f661bd","6256dda3380110ffc61c7466","","","","","","","","","","","","","","","","","","",""
"true","fullscreen","0","2591","0.0-0.0","5bc8897f462bdb0001a61426","6256d7e65bb4d4899ed34bc7","","","","","","","","","","","","","","","","","","",""
"true","preload","1","2592","0.0-1.0","5bc8897f462bdb0001a61426","6256d7e65bb4d4899ed34bc7","false","[]","[]","[]","","","","","","","","","","","","","","",""
"","psychophysics","2","6530","0.0-2.0","5bc8897f462bdb0001a61426","6256d7e65bb4d4899ed34bc7","","","","","3929","key"," "," ","16.666754237288142","500","250","inst","","","","","","",""
"","psychophysics","3","9144","0.0-3.0","5bc8897f462bdb0001a61426","6256d7e65bb4d4899ed34bc7","","","","","2606","key"," "," ","16.666512820512814","500","250","inst","","","","","","",""
"","psychophysics","4","30796","0.0-4.0","5bc8897f462bdb0001a61426","6256d7e65bb4d4899ed34bc7","","","","","21637","key"," "," ","16.666200923787528","500","250","instMl","240","-40","-20","18","-16","",""
"","psychophysics","5","44702","0.0-5.0","5bc8897f462bdb0001a61426","6256d7e65bb4d4899ed34bc7","","","","","13903","key"," "," ","16.66646218487395","500","250","instMl","220","-36.666666666666664","17","15","-11.666666666666742","",""
"","psychophysics","6","48735","0.0-6.0","5bc8897f462bdb0001a61426","6256d7e65bb4d4899ed34bc7","","","","","4030","key"," "," ","16.6668049792531","500","250","inst","","","","","","",""
"","psychophysics","7","54286","0.0-7.0","5bc8897f462bdb0001a61426","6256d7e65bb4d4899ed34bc7","","","","","5546","key"," "," ","16.666695783132532","500","250","ml","222","52","-24","-27","-8","",""
"","psychophysics","8","58798","0.0-8.0","5bc8897f462bdb0001a61426","6256d7e65bb4d4899ed34bc7","","","","","4510","key"," "," ","16.666422222222227","500","250","ml","206","-6","16","-18","-13","",""
"","psychophysics","9","65059","0.0-9.0","5bc8897f462bdb0001a61426","6256d7e65bb4d4899ed34bc7","","","","","6256","key"," "," ","16.666147058823558","500","250","ml","162","-31","24","-22","-12","",""
"","psychophysics","10","69709","0.0-10.0","5bc8897f462bdb0001a61426","6256d7e65bb4d4899ed34bc7","","","","","4643","key"," "," ","16.666543165467623","500","250","ml","150","-4","-26","30","-14","",""
"","psychophysics","11","79099","0.0-11.0","5bc8897f462bdb0001a61426","6256d7e65bb4d4899ed34bc7","","","","","9389","key"," "," ","16.666447602131424","500","250","ml","228","45","10","10","-12","",""
"","psychophysics","12","83244","0.0-12.0","5bc8897f462bdb0001a61426","6256d7e65bb4d4899ed34bc7","","","","","4143","key"," "," ","16.666068825910934","500","250","ml","218","-46","7","-27","-14","",""
"","psychophysics","13","88158","0.0-13.0","5bc8897f462bdb0001a61426","6256d7e65bb4d4899ed34bc7","","","","","4912","key"," "," ","16.666775510204104","500","250","ml","176","-35","-1","-30","-12","",""
"","psychophysics","14","93605","0.0-14.0","5bc8897f462bdb0001a61426","6256d7e65bb4d4899ed34bc7","","","","","5437","key"," "," ","16.666162576687142","500","250","ml","240","9","10","-22","-19","",""
"","psychophysics","15","97541","0.0-15.0","5bc8897f462bdb0001a61426","6256d7e65bb4d4899ed34bc7","","","","","3931","key"," "," ","16.666080851063807","500","250","ml","154","-11","21","21","-12","",""
"","psychophysics","16","102134","0.0-16.0","5bc8897f462bdb0001a61426","6256d7e65bb4d4899ed34bc7","","","","","4586","key"," "," ","16.666203636363605","500","250","ml","238","-18","16","-22","-14","",""
"","psychophysics","17","106563","0.0-17.0","5bc8897f462bdb0001a61426","6256d7e65bb4d4899ed34bc7","","","","","4424","key"," "," ","16.665547169811358","500","250","ml","168","14","26","4","-11","",""
"","psychophysics","18","111164","0.0-18.0","5bc8897f462bdb0001a61426","6256d7e65bb4d4899ed34bc7","","","","","4599","key"," "," ","16.66634181818184","500","250","ml","184","-16","13","6","-13","",""
"","psychophysics","19","118004","0.0-19.0","5bc8897f462bdb0001a61426","6256d7e65bb4d4899ed34bc7","","","","","6838","key"," "," ","16.666271393643008","500","250","ml","240","-57","3","-14","-11","",""
"","psychophysics","20","121542","0.0-20.0","5bc8897f462bdb0001a61426","6256d7e65bb4d4899ed34bc7","","","","","3536","key"," "," ","16.666710900473966","500","250","ml","204","-21","6","-28","-18","",""
"","psychophysics","21","127365","0.0-21.0","5bc8897f462bdb0001a61426","6256d7e65bb4d4899ed34bc7","","","","","5816","key"," "," ","16.66625501432665","500","250","ml","202","-25","-4","9","-12","",""
"","psychophysics","22","129584","0.0-22.0","5bc8897f462bdb0001a61426","6256d7e65bb4d4899ed34bc7","","","","","2213","key"," "," ","16.666333333333377","500","250","inst","","","","","","",""
"","psychophysics","23","138624","0.0-23.0","5bc8897f462bdb0001a61426","6256d7e65bb4d4899ed34bc7","","","","","9035","key"," "," ","16.66641404805915","500","250","instPog","","","","","160","130",""
"","psychophysics","24","152526","0.0-24.0","5bc8897f462bdb0001a61426","6256d7e65bb4d4899ed34bc7","","","","","13894","key"," "," ","16.666314525810336","500","250","instPog","","","","","135","130",""
"","psychophysics","25","164531","0.0-25.0","5bc8897f462bdb0001a61426","6256d7e65bb4d4899ed34bc7","","","","","11997","key"," "," ","16.666149999999995","500","250","instPog","","","","","135","130",""
"","psychophysics","26","166591","0.0-26.0","5bc8897f462bdb0001a61426","6256d7e65bb4d4899ed34bc7","","","","","2058","key"," "," ","16.66736885245897","500","250","inst","","","","","","",""
"","psychophysics","27","171619","0.0-27.0","5bc8897f462bdb0001a61426","6256d7e65bb4d4899ed34bc7","","","","","5021","key"," "," ","16.665933554817265","500","250","pog","","","","","167","164",""
"","psychophysics","28","179454","0.0-28.0","5bc8897f462bdb0001a61426","6256d7e65bb4d4899ed34bc7","","","","","7833","key"," "," ","16.666573560767574","500","250","pog","","","","","189","181",""
"","psychophysics","29","185859","0.0-29.0","5bc8897f462bdb0001a61426","6256d7e65bb4d4899ed34bc7","","","","","6400","key"," "," ","16.665927083333372","500","250","pog","","","","","196","197",""
"","psychophysics","30","196604","0.0-30.0","5bc8897f462bdb0001a61426","6256d7e65bb4d4899ed34bc7","","","","","10742","key"," "," ","16.66634214618971","500","250","pog","","","","","165","163",""
"","psychophysics","31","200732","0.0-31.0","5bc8897f462bdb0001a61426","6256d7e65bb4d4899ed34bc7","","","","","4127","key"," "," ","16.66624291497978","500","250","pog","","","","","142","124",""
"","psychophysics","32","206899","0.0-32.0","5bc8897f462bdb0001a61426","6256d7e65bb4d4899ed34bc7","","","","","6165","key"," "," ","16.666360433604304","500","250","pog","","","","","139","135",""
"","psychophysics","33","210519","0.0-33.0","5bc8897f462bdb0001a61426","6256d7e65bb4d4899ed34bc7","","","","","3618","key"," "," ","16.744130232558195","500","250","pog","","","","","166","160",""
"","psychophysics","34","219323","0.0-34.0","5bc8897f462bdb0001a61426","6256d7e65bb4d4899ed34bc7","","","","","8800","key"," "," ","16.66601328273245","500","250","pog","","","","","197","185",""
"","psychophysics","35","222003","0.0-35.0","5bc8897f462bdb0001a61426","6256d7e65bb4d4899ed34bc7","","","","","2678","key"," "," ","16.66658750000006","500","250","pog","","","","","153","141",""
"","psychophysics","36","225383","0.0-36.0","5bc8897f462bdb0001a61426","6256d7e65bb4d4899ed34bc7","","","","","3378","key"," "," ","16.66668811881189","500","250","pog","","","","","175","173",""
"","psychophysics","37","228924","0.0-37.0","5bc8897f462bdb0001a61426","6256d7e65bb4d4899ed34bc7","","","","","3538","key"," "," ","16.6659289099526","500","250","pog","","","","","196","196",""
"","psychophysics","38","232622","0.0-38.0","5bc8897f462bdb0001a61426","6256d7e65bb4d4899ed34bc7","","","","","3697","key"," "," ","16.6667647058824","500","250","pog","","","","","166","173",""
"","psychophysics","39","237206","0.0-39.0","5bc8897f462bdb0001a61426","6256d7e65bb4d4899ed34bc7","","","","","4577","key"," "," ","16.66627007299277","500","250","pog","","","","","201","200",""
"","psychophysics","40","239755","0.0-40.0","5bc8897f462bdb0001a61426","6256d7e65bb4d4899ed34bc7","","","","","2542","key"," "," ","16.66533552631575","500","250","pog","","","","","152","142",""
"","psychophysics","41","242699","0.0-41.0","5bc8897f462bdb0001a61426","6256d7e65bb4d4899ed34bc7","","","","","2942","key"," "," ","16.66650568181814","500","250","pog","","","","","141","132",""
"","psychophysics","42","250161","0.0-42.0","5bc8897f462bdb0001a61426","6256d7e65bb4d4899ed34bc7","","","","","7460","key"," "," ","16.666519015659976","500","250","inst","","","","","","",""
"","psychophysics","43","254451","0.0-43.0","5bc8897f462bdb0001a61426","6256d7e65bb4d4899ed34bc7","","","","","4283","key"," "," ","16.66610156249999","500","250","instTilt","","","","","NaN","0","0"
"","psychophysics","44","257653","0.0-44.0","5bc8897f462bdb0001a61426","6256d7e65bb4d4899ed34bc7","","","","","3200","key"," "," ","16.66643455497377","500","250","instTilt","","","","","0","0","0"
"","psychophysics","45","265708","0.0-45.0","5bc8897f462bdb0001a61426","6256d7e65bb4d4899ed34bc7","","","","","8053","key"," "," ","16.666277432712228","500","250","instTilt","","","","","1","0","0"
"","psychophysics","46","267867","0.0-46.0","5bc8897f462bdb0001a61426","6256d7e65bb4d4899ed34bc7","","","","","2157","key"," "," ","16.666281249999884","500","250","inst","","","","","","",""
"","psychophysics","47","274213","0.0-47.0","5bc8897f462bdb0001a61426","6256d7e65bb4d4899ed34bc7","","","","","6344","key"," "," ","16.66638947368422","500","250","tilt","","","","","-3","0","1"
"","psychophysics","48","278875","0.0-48.0","5bc8897f462bdb0001a61426","6256d7e65bb4d4899ed34bc7","","","","","4659","key"," "," ","16.665824372759907","500","250","tilt","","","","","-9","-6","0"
"","psychophysics","49","283052","0.0-49.0","5bc8897f462bdb0001a61426","6256d7e65bb4d4899ed34bc7","","","","","4174","key"," "," ","16.666546184738845","500","250","tilt","","","","","1","-2","0"
"","psychophysics","50","286915","0.0-50.0","5bc8897f462bdb0001a61426","6256d7e65bb4d4899ed34bc7","","","","","3862","key"," "," ","16.666432900432884","500","250","tilt","","","","","7","8","1"
"","psychophysics","51","289947","0.0-51.0","5bc8897f462bdb0001a61426","6256d7e65bb4d4899ed34bc7","","","","","3030","key"," "," ","16.66625966850825","500","250","tilt","","","","","-4","-1","1"
"","psychophysics","52","292044","0.0-52.0","5bc8897f462bdb0001a61426","6256d7e65bb4d4899ed34bc7","","","","","2095","key"," "," ","16.666591999999714","500","250","tilt","","","","","1","-3","0"
"","psychophysics","53","296332","0.0-53.0","5bc8897f462bdb0001a61426","6256d7e65bb4d4899ed34bc7","","","","","4287","key"," "," ","16.666187500000206","500","250","tilt","","","","","10","7","1"
"","psychophysics","54","299646","0.0-54.0","5bc8897f462bdb0001a61426","6256d7e65bb4d4899ed34bc7","","","","","3311","key"," "," ","16.66660606060612","500","250","tilt","","","","","-13","-7","0"
"","psychophysics","55","303222","0.0-55.0","5bc8897f462bdb0001a61426","6256d7e65bb4d4899ed34bc7","","","","","3571","key"," "," ","16.66621596244122","500","250","tilt","","","","","9","5","0"
"","psychophysics","56","307195","0.0-56.0","5bc8897f462bdb0001a61426","6256d7e65bb4d4899ed34bc7","","","","","3968","key"," "," ","16.66568487394966","500","250","tilt","","","","","-2","-2","1"
"","psychophysics","57","310561","0.0-57.0","5bc8897f462bdb0001a61426","6256d7e65bb4d4899ed34bc7","","","","","3364","key"," "," ","16.666885572139567","500","250","tilt","","","","","-5","-5","0"
"","psychophysics","58","313358","0.0-58.0","5bc8897f462bdb0001a61426","6256d7e65bb4d4899ed34bc7","","","","","2793","key"," "," ","16.666437125748754","500","250","tilt","","","","","-2","-3","1"
"","psychophysics","59","317332","0.0-59.0","5bc8897f462bdb0001a61426","6256d7e65bb4d4899ed34bc7","","","","","3968","key"," "," ","16.666143459915567","500","250","tilt","","","","","0","1","1"
"","psychophysics","60","322019","0.0-60.0","5bc8897f462bdb0001a61426","6256d7e65bb4d4899ed34bc7","","","","","4685","key"," "," ","16.666692857142852","500","250","tilt","","","","","-14","-8","1"
"","psychophysics","61","326003","0.0-61.0","5bc8897f462bdb0001a61426","6256d7e65bb4d4899ed34bc7","","","","","3983","key"," "," ","16.66626050420171","500","250","tilt","","","","","-13","-9","1"
"","psychophysics","62","328651","0.0-62.0","5bc8897f462bdb0001a61426","6256d7e65bb4d4899ed34bc7","","","","","2645","key"," "," ","16.666531645569837","500","250","tilt","","","","","-1","-1","0"
"","psychophysics","63","332679","0.0-63.0","5bc8897f462bdb0001a61426","6256d7e65bb4d4899ed34bc7","","","","","4025","key"," "," ","16.666721991701216","500","250","tilt","","","","","0","-3","0"
"","psychophysics","64","336670","0.0-64.0","5bc8897f462bdb0001a61426","6256d7e65bb4d4899ed34bc7","","","","","3986","key"," "," ","16.666466386554404","500","250","tilt","","","","","7","4","0"
"","psychophysics","65","340003","0.0-65.0","5bc8897f462bdb0001a61426","6256d7e65bb4d4899ed34bc7","","","","","3326","key"," "," ","16.665874371859395","500","250","tilt","","","","","12","9","0"
"","psychophysics","66","344956","0.0-66.0","5bc8897f462bdb0001a61426","6256d7e65bb4d4899ed34bc7","","","","","4951","key"," "," ","16.666151515151544","500","250","tilt","","","","","9","6","0"
"","psychophysics","67","350407","0.0-67.0","5bc8897f462bdb0001a61426","6256d7e65bb4d4899ed34bc7","","","","","5449","key"," "," ","16.666603076923103","500","250","tilt","","","","","4","7","1"
"","psychophysics","68","357366","0.0-68.0","5bc8897f462bdb0001a61426","6256d7e65bb4d4899ed34bc7","","","","","6948","key"," "," ","16.666330935251903","500","250","tilt","","","","","-15","-10","1"
"","psychophysics","69","361795","0.0-69.0","5bc8897f462bdb0001a61426","6256d7e65bb4d4899ed34bc7","","","","","4424","key"," "," ","16.665747169811358","500","250","tilt","","","","","8","8","1"
"","psychophysics","70","365812","0.0-70.0","5bc8897f462bdb0001a61426","6256d7e65bb4d4899ed34bc7","","","","","4015","key"," "," ","16.666166666666687","500","250","tilt","","","","","-4","-3","1"
"","psychophysics","71","372733","0.0-71.0","5bc8897f462bdb0001a61426","6256d7e65bb4d4899ed34bc7","","","","","6919","key"," "," ","16.666594202898484","500","250","tilt","","","","","5","3","0"
"","psychophysics","72","376478","0.0-72.0","5bc8897f462bdb0001a61426","6256d7e65bb4d4899ed34bc7","","","","","3734","key"," "," ","16.66609821428574","500","250","tilt","","","","","-10","-9","1"
"","psychophysics","73","379019","0.0-73.0","5bc8897f462bdb0001a61426","6256d7e65bb4d4899ed34bc7","","","","","2536","key"," "," ","16.666291390728386","500","250","tilt","","","","","-2","-2","1"
"","psychophysics","74","383605","0.0-74.0","5bc8897f462bdb0001a61426","6256d7e65bb4d4899ed34bc7","","","","","4583","key"," "," ","16.66654379562055","500","250","tilt","","","","","9","10","1"
"","psychophysics","75","386647","0.0-75.0","5bc8897f462bdb0001a61426","6256d7e65bb4d4899ed34bc7","","","","","3040","key"," "," ","16.66689010988985","500","250","tilt","","","","","-9","-9","1"
"","psychophysics","76","389190","0.0-76.0","5bc8897f462bdb0001a61426","6256d7e65bb4d4899ed34bc7","","","","","2539","key"," "," ","16.66686842105264","500","250","tilt","","","","","-2","-6","0"
"","psychophysics","77","392884","0.0-77.0","5bc8897f462bdb0001a61426","6256d7e65bb4d4899ed34bc7","","","","","3688","key"," "," ","16.665581818181884","500","250","inst","","","","","","",""
"","psychophysics","78","397554","0.0-78.0","5bc8897f462bdb0001a61426","6256d7e65bb4d4899ed34bc7","","","","","4668","key"," "," ","16.666784946236543","500","250","instPz","","","","","15","50",""
"","psychophysics","79","410390","0.0-79.0","5bc8897f462bdb0001a61426","6256d7e65bb4d4899ed34bc7","","","","","12830","key"," "," ","16.6663298701299","500","250","instPz","","","","","52","50",""
"","psychophysics","80","418444","0.0-80.0","5bc8897f462bdb0001a61426","6256d7e65bb4d4899ed34bc7","","","","","8048","key"," "," ","16.666066390041482","500","250","instPz","","","","","15","50",""
"","psychophysics","81","419828","0.0-81.0","5bc8897f462bdb0001a61426","6256d7e65bb4d4899ed34bc7","","","","","1383","key"," "," ","16.666817073170776","500","250","inst","","","","","","",""
"","psychophysics","82","427065","0.0-82.0","5bc8897f462bdb0001a61426","6256d7e65bb4d4899ed34bc7","","","","","7234","key"," "," ","16.666648960738996","500","250","pz","","","","","30","31",""
"","psychophysics","83","435043","0.0-83.0","5bc8897f462bdb0001a61426","6256d7e65bb4d4899ed34bc7","","","","","7974","key"," "," ","16.66605648535565","500","250","pz","","","","","39","43",""
"","psychophysics","84","441707","0.0-84.0","5bc8897f462bdb0001a61426","6256d7e65bb4d4899ed34bc7","","","","","6662","key"," "," ","16.666418546365946","500","250","pz","","","","","31","35",""
"","psychophysics","85","447639","0.0-85.0","5bc8897f462bdb0001a61426","6256d7e65bb4d4899ed34bc7","","","","","5929","key"," "," ","16.666394366197203","500","250","pz","","","","","32","32",""
"","psychophysics","86","451963","0.0-86.0","5bc8897f462bdb0001a61426","6256d7e65bb4d4899ed34bc7","","","","","4319","key"," "," ","16.665899224806072","500","250","pz","","","","","28","28",""
"","psychophysics","87","456003","0.0-87.0","5bc8897f462bdb0001a61426","6256d7e65bb4d4899ed34bc7","","","","","4038","key"," "," ","16.666342975206632","500","250","pz","","","","","34","30",""
"","psychophysics","88","460820","0.0-88.0","5bc8897f462bdb0001a61426","6256d7e65bb4d4899ed34bc7","","","","","4814","key"," "," ","16.666205574912894","500","250","pz","","","","","43","42",""
"","psychophysics","89","466819","0.0-89.0","5bc8897f462bdb0001a61426","6256d7e65bb4d4899ed34bc7","","","","","5997","key"," "," ","16.666467966573784","500","250","pz","","","","","29","26",""
"","psychophysics","90","471189","0.0-90.0","5bc8897f462bdb0001a61426","6256d7e65bb4d4899ed34bc7","","","","","4367","key"," "," ","16.66655343511446","500","250","pz","","","","","51","51",""
"","psychophysics","91","476119","0.0-91.0","5bc8897f462bdb0001a61426","6256d7e65bb4d4899ed34bc7","","","","","4927","key"," "," ","16.66620068027215","500","250","pz","","","","","52","49",""
"","psychophysics","92","480820","0.0-92.0","5bc8897f462bdb0001a61426","6256d7e65bb4d4899ed34bc7","","","","","4694","key"," "," ","16.66587234042537","500","250","pz","","","","","46","39",""
"","psychophysics","93","484750","0.0-93.0","5bc8897f462bdb0001a61426","6256d7e65bb4d4899ed34bc7","","","","","3928","key"," "," ","16.666585470085344","500","250","pz","","","","","55","51",""
"","psychophysics","94","488582","0.0-94.0","5bc8897f462bdb0001a61426","6256d7e65bb4d4899ed34bc7","","","","","3825","key"," "," ","16.666192139738076","500","250","pz","","","","","55","50",""
"","psychophysics","95","491750","0.0-95.0","5bc8897f462bdb0001a61426","6256d7e65bb4d4899ed34bc7","","","","","3160","key"," "," ","16.666301587301493","500","250","pz","","","","","30","26",""
"","psychophysics","96","495796","0.0-96.0","5bc8897f462bdb0001a61426","6256d7e65bb4d4899ed34bc7","","","","","4040","key"," "," ","16.666152892562113","500","250","pz","","","","","56","55",""
"","psychophysics","97","515907","0.0-97.0","5bc8897f462bdb0001a61426","6256d7e65bb4d4899ed34bc7","","","","","20110","key"," "," ","16.666317578772826","500","250","inst","","","","","","",""
"","psychophysics","98","518371","0.0-98.0","5bc8897f462bdb0001a61426","6256d7e65bb4d4899ed34bc7","","","","","2462","key"," "," ","16.6663605442174","500","250","inst","","","","","","",""
"","psychophysics","99","526556","0.0-99.0","5bc8897f462bdb0001a61426","6256d7e65bb4d4899ed34bc7","","","","","8183","key"," "," ","16.666348979591714","500","250","instFlank","","","","","1","0.3","1"
"","psychophysics","100","532867","0.0-100.0","5bc8897f462bdb0001a61426","6256d7e65bb4d4899ed34bc7","","","","","6310","key"," "," ","16.666347480106072","500","250","inst","","","","","","",""
"","psychophysics","101","539527","0.0-101.0","5bc8897f462bdb0001a61426","6256d7e65bb4d4899ed34bc7","","","","","6657","key"," "," ","16.66667167919794","500","250","instFlank","","","","","0.2599999999999998","0.3","1"
"","psychophysics","102","543371","0.0-102.0","5bc8897f462bdb0001a61426","6256d7e65bb4d4899ed34bc7","","","","","3841","key"," "," ","16.665991304347635","500","250","inst","","","","","","",""
"","psychophysics","103","548613","0.0-103.0","5bc8897f462bdb0001a61426","6256d7e65bb4d4899ed34bc7","","","","","5239","key"," "," ","16.666415335463594","500","250","instFlank","","","","","0.3799999999999999","0.3","0"
"","psychophysics","104","551207","0.0-104.0","5bc8897f462bdb0001a61426","6256d7e65bb4d4899ed34bc7","","","","","2591","key"," "," ","16.666470967742406","500","250","inst","","","","","","",""
"","psychophysics","105","556252","0.0-105.0","5bc8897f462bdb0001a61426","6256d7e65bb4d4899ed34bc7","","","","","5041","key"," "," ","16.66649337748331","500","250","flank","","","","","0.6500000000000001","0.4","1"
"","psychophysics","106","561307","0.0-106.0","5bc8897f462bdb0001a61426","6256d7e65bb4d4899ed34bc7","","","","","5051","key"," "," ","16.666278145695415","500","250","flank","","","","","0.7700000000000002","0.6","1"
"","psychophysics","107","565212","0.0-107.0","5bc8897f462bdb0001a61426","6256d7e65bb4d4899ed34bc7","","","","","3903","key"," "," ","16.666175965665413","500","250","flank","","","","","0.3799999999999999","0.24","1"
"","psychophysics","108","568590","0.0-108.0","5bc8897f462bdb0001a61426","6256d7e65bb4d4899ed34bc7","","","","","3374","key"," "," ","16.666613861386512","500","250","flank","","","","","0.4099999999999999","0.3","1"
"","psychophysics","109","571883","0.0-109.0","5bc8897f462bdb0001a61426","6256d7e65bb4d4899ed34bc7","","","","","3286","key"," "," ","16.66556122449015","500","250","flank","","","","","0.6800000000000002","0.44","0"
"","psychophysics","110","574995","0.0-110.0","5bc8897f462bdb0001a61426","6256d7e65bb4d4899ed34bc7","","","","","3109","key"," "," ","16.666462365591084","500","250","flank","","","","","0.43999999999999995","0.36","1"
"","psychophysics","111","578275","0.0-111.0","5bc8897f462bdb0001a61426","6256d7e65bb4d4899ed34bc7","","","","","3279","key"," "," ","16.66668877551066","500","250","flank","","","","","0.56","0.48","1"
"","psychophysics","112","581494","0.0-112.0","5bc8897f462bdb0001a61426","6256d7e65bb4d4899ed34bc7","","","","","3216","key"," "," ","16.66616145833359","500","250","flank","","","","","0.47","0.3","0"
"","psychophysics","113","585485","0.0-113.0","5bc8897f462bdb0001a61426","6256d7e65bb4d4899ed34bc7","","","","","3985","key"," "," ","16.66601255230136","500","250","flank","","","","","0.8300000000000003","0.76","0"
"","psychophysics","114","589270","0.0-114.0","5bc8897f462bdb0001a61426","6256d7e65bb4d4899ed34bc7","","","","","3781","key"," "," ","16.6667168141591","500","250","flank","","","","","0.4099999999999999","0.42","1"
"","psychophysics","115","593405","0.0-115.0","5bc8897f462bdb0001a61426","6256d7e65bb4d4899ed34bc7","","","","","4129","key"," "," ","16.666202429149898","500","250","flank","","","","","0.7400000000000002","0.48","0"
"","psychophysics","116","597597","0.0-116.0","5bc8897f462bdb0001a61426","6256d7e65bb4d4899ed34bc7","","","","","4190","key"," "," ","16.666483999999706","500","250","flank","","","","","0.8600000000000003","0.76","1"
"","psychophysics","117","601557","0.0-117.0","5bc8897f462bdb0001a61426","6256d7e65bb4d4899ed34bc7","","","","","3952","key"," "," ","16.66604219409264","500","250","flank","","","","","0.4099999999999999","0.24","1"
"","psychophysics","118","606524","0.0-118.0","5bc8897f462bdb0001a61426","6256d7e65bb4d4899ed34bc7","","","","","4963","key"," "," ","16.666494949494634","500","250","flank","","","","","0.6800000000000002","0.48","1"
"","psychophysics","119","610550","0.0-119.0","5bc8897f462bdb0001a61426","6256d7e65bb4d4899ed34bc7","","","","","4024","key"," "," ","16.66654166666655","500","250","flank","","","","","0.7700000000000002","0.76","0"
"","psychophysics","120","613923","0.0-120.0","5bc8897f462bdb0001a61426","6256d7e65bb4d4899ed34bc7","","","","","3367","key"," "," ","16.665980198020048","500","250","flank","","","","","0.3799999999999999","0.28","0"
"","psychophysics","121","618391","0.0-121.0","5bc8897f462bdb0001a61426","6256d7e65bb4d4899ed34bc7","","","","","4465","key"," "," ","16.666891385768","500","250","flank","","","","","0.8600000000000003","0.76","0"
"","psychophysics","122","622860","0.0-122.0","5bc8897f462bdb0001a61426","6256d7e65bb4d4899ed34bc7","","","","","4464","key"," "," ","16.66606367041212","500","250","flank","","","","","0.1699999999999998","0.22","1"
"","psychophysics","123","626341","0.0-123.0","5bc8897f462bdb0001a61426","6256d7e65bb4d4899ed34bc7","","","","","3478","key"," "," ","16.66649999999992","500","250","flank","","","","","0.43999999999999995","0.38","0"
"","psychophysics","124","630727","0.0-124.0","5bc8897f462bdb0001a61426","6256d7e65bb4d4899ed34bc7","","","","","4381","key"," "," ","16.66624427480909","500","250","flank","","","","","0.8600000000000003","0.78","0"
"","psychophysics","125","634139","0.0-125.0","5bc8897f462bdb0001a61426","6256d7e65bb4d4899ed34bc7","","","","","3406","key"," "," ","16.66570098039251","500","250","flank","","","","","0.56","0.48","0"
"","psychophysics","126","637883","0.0-126.0","5bc8897f462bdb0001a61426","6256d7e65bb4d4899ed34bc7","","","","","3742","key"," "," ","16.666290178571217","500","250","flank","","","","","0.56","0.36","0"
"","psychophysics","127","641440","0.0-127.0","5bc8897f462bdb0001a61426","6256d7e65bb4d4899ed34bc7","","","","","3554","key"," "," ","16.666698113207392","500","250","flank","","","","","0.7100000000000002","0.56","1"
"","psychophysics","128","644219","0.0-128.0","5bc8897f462bdb0001a61426","6256d7e65bb4d4899ed34bc7","","","","","2774","key"," "," ","16.666066265060476","500","250","flank","","","","","0.47","0.34","1"
"","psychophysics","129","648076","0.0-129.0","5bc8897f462bdb0001a61426","6256d7e65bb4d4899ed34bc7","","","","","3853","key"," "," ","16.666378260869532","500","250","flank","","","","","0.7400000000000002","0.6","1"
"","psychophysics","130","650747","0.0-130.0","5bc8897f462bdb0001a61426","6256d7e65bb4d4899ed34bc7","","","","","2669","key"," "," ","16.665867924527703","500","250","flank","","","","","0.47","0.36","0"
"","psychophysics","131","654019","0.0-131.0","5bc8897f462bdb0001a61426","6256d7e65bb4d4899ed34bc7","","","","","3248","key"," "," ","16.666448979591593","500","250","flank","","","","","0.7700000000000002","0.64","0"
"","psychophysics","132","656758","0.0-132.0","5bc8897f462bdb0001a61426","6256d7e65bb4d4899ed34bc7","","","","","2737","key"," "," ","16.66692024539939","500","250","flank","","","","","0.43999999999999995","0.38","1"
"","psychophysics","133","660947","0.0-133.0","5bc8897f462bdb0001a61426","6256d7e65bb4d4899ed34bc7","","","","","4185","key"," "," ","16.666100000000093","500","250","flank","","","","","0.6800000000000002","0.7","1"
"","psychophysics","134","664587","0.0-134.0","5bc8897f462bdb0001a61426","6256d7e65bb4d4899ed34bc7","","","","","3637","key"," "," ","16.66653669724741","500","250","flank","","","","","0.8300000000000003","0.74","0"
"true","fullscreen","135","664589","0.0-135.0","5bc8897f462bdb0001a61426","6256d7e65bb4d4899ed34bc7","","","","","","","","","","","","","","","","","","",""
"true","fullscreen","0","5195","0.0-0.0","5d2a068fd7d4940019e63136","6256d16c021666e5d1a45eb1","","","","","","","","","","","","","","","","","","",""
"true","preload","1","5200","0.0-1.0","5d2a068fd7d4940019e63136","6256d16c021666e5d1a45eb1","false","[]","[]","[]","","","","","","","","","","","","","","",""
"","psychophysics","2","12436","0.0-2.0","5d2a068fd7d4940019e63136","6256d16c021666e5d1a45eb1","","","","","7230","key"," "," ","16.671059907834096","500","250","inst","","","","","","",""
"","psychophysics","3","15317","0.0-3.0","5d2a068fd7d4940019e63136","6256d16c021666e5d1a45eb1","","","","","2877","key"," "," ","16.666666666666668","500","250","inst","","","","","","",""
"","psychophysics","4","39981","0.0-4.0","5d2a068fd7d4940019e63136","6256d16c021666e5d1a45eb1","","","","","24656","key"," "," ","16.67181879648411","500","250","instMl","204","-34","-7","22","-23","",""
"","psychophysics","5","66260","0.0-5.0","5d2a068fd7d4940019e63136","6256d16c021666e5d1a45eb1","","","","","26268","key"," "," ","16.672736507936513","500","250","instMl","226","-37.666666666666664","-19","3","-19.666666666666686","",""
"","psychophysics","6","70556","0.0-6.0","5d2a068fd7d4940019e63136","6256d16c021666e5d1a45eb1","","","","","4292","key"," "," ","16.666692607003935","500","250","inst","","","","","","",""
"","psychophysics","7","78773","0.0-7.0","5d2a068fd7d4940019e63136","6256d16c021666e5d1a45eb1","","","","","8212","key"," "," ","16.67443089430896","500","250","ml","222","-44","15","-29","-26","",""
"","psychophysics","8","98460","0.0-8.0","5d2a068fd7d4940019e63136","6256d16c021666e5d1a45eb1","","","","","19683","key"," "," ","16.671535199321465","500","250","ml","222","48","-20","-22","-18","",""
"","psychophysics","9","111002","0.0-9.0","5d2a068fd7d4940019e63136","6256d16c021666e5d1a45eb1","","","","","12537","key"," "," ","16.671781914893607","500","250","ml","208","-17","26","-10","-18","",""
"","psychophysics","10","119411","0.0-10.0","5d2a068fd7d4940019e63136","6256d16c021666e5d1a45eb1","","","","","8407","key"," "," ","16.670536779324053","500","250","ml","196","-3","-15","16","-15","",""
"","psychophysics","11","130789","0.0-11.0","5d2a068fd7d4940019e63136","6256d16c021666e5d1a45eb1","","","","","11375","key"," "," ","16.672287390029304","500","250","ml","228","2","-1","-11","-15","",""
"","psychophysics","12","144804","0.0-12.0","5d2a068fd7d4940019e63136","6256d16c021666e5d1a45eb1","","","","","14009","key"," "," ","16.671179976162094","500","250","ml","150","34","17","25","-8","",""
"","psychophysics","13","159107","0.0-13.0","5d2a068fd7d4940019e63136","6256d16c021666e5d1a45eb1","","","","","14300","key"," "," ","16.673278879813303","500","250","ml","218","-53","-28","22","-19","",""
"","psychophysics","14","170771","0.0-14.0","5d2a068fd7d4940019e63136","6256d16c021666e5d1a45eb1","","","","","11661","key"," "," ","16.672017167382002","500","250","ml","208","25","-13","1","-12","",""
"","psychophysics","15","180315","0.0-15.0","5d2a068fd7d4940019e63136","6256d16c021666e5d1a45eb1","","","","","9539","key"," "," ","16.669982486865145","500","250","ml","240","-1","30","-11","-16","",""
"","psychophysics","16","190980","0.0-16.0","5d2a068fd7d4940019e63136","6256d16c021666e5d1a45eb1","","","","","10664","key"," "," ","16.67261345852898","500","250","ml","160","-31","18","-5","-14","",""
"","psychophysics","17","200628","0.0-17.0","5d2a068fd7d4940019e63136","6256d16c021666e5d1a45eb1","","","","","9646","key"," "," ","16.66996539792386","500","250","ml","172","-6","-18","-9","-12","",""
"","psychophysics","18","208580","0.0-18.0","5d2a068fd7d4940019e63136","6256d16c021666e5d1a45eb1","","","","","7949","key"," "," ","16.670672268907545","500","250","ml","180","-5","-9","28","-12","",""
"","psychophysics","19","217308","0.0-19.0","5d2a068fd7d4940019e63136","6256d16c021666e5d1a45eb1","","","","","8723","key"," "," ","16.670344827586177","500","250","ml","210","-6","-6","-2","-15","",""
"","psychophysics","20","234563","0.0-20.0","5d2a068fd7d4940019e63136","6256d16c021666e5d1a45eb1","","","","","17253","key"," "," ","16.67218568665378","500","250","ml","170","38","2","-29","-11","",""
"","psychophysics","21","243915","0.0-21.0","5d2a068fd7d4940019e63136","6256d16c021666e5d1a45eb1","","","","","9346","key"," "," ","16.67346428571426","500","250","ml","234","37","-21","5","-12","",""
"","psychophysics","22","248387","0.0-22.0","5d2a068fd7d4940019e63136","6256d16c021666e5d1a45eb1","","","","","4468","key"," "," ","16.666666666666668","500","250","inst","","","","","","",""
"","psychophysics","23","278068","0.0-23.0","5d2a068fd7d4940019e63136","6256d16c021666e5d1a45eb1","","","","","29674","key"," "," ","16.672033707865154","500","250","instPog","","","","","131","130",""
"","psychophysics","24","312012","0.0-24.0","5d2a068fd7d4940019e63136","6256d16c021666e5d1a45eb1","","","","","33941","key"," "," ","16.67229484029484","500","250","instPog","","","","","152","130",""
"","psychophysics","25","327979","0.0-25.0","5d2a068fd7d4940019e63136","6256d16c021666e5d1a45eb1","","","","","15965","key"," "," ","16.67064853556481","500","250","instPog","","","","","153","130",""
"","psychophysics","26","332307","0.0-26.0","5d2a068fd7d4940019e63136","6256d16c021666e5d1a45eb1","","","","","4322","key"," "," ","16.67428571428577","500","250","inst","","","","","","",""
"","psychophysics","27","341875","0.0-27.0","5d2a068fd7d4940019e63136","6256d16c021666e5d1a45eb1","","","","","9564","key"," "," ","16.669982547993058","500","250","pog","","","","","241","200",""
"","psychophysics","28","350667","0.0-28.0","5d2a068fd7d4940019e63136","6256d16c021666e5d1a45eb1","","","","","8791","key"," "," ","16.67391634980985","500","250","pog","","","","","231","195",""
"","psychophysics","29","360123","0.0-29.0","5d2a068fd7d4940019e63136","6256d16c021666e5d1a45eb1","","","","","9454","key"," "," ","16.67003533568903","500","250","pog","","","","","198","160",""
"","psychophysics","30","369715","0.0-30.0","5d2a068fd7d4940019e63136","6256d16c021666e5d1a45eb1","","","","","9588","key"," "," ","16.673391304347845","500","250","pog","","","","","167","124",""
"","psychophysics","31","375900","0.0-31.0","5d2a068fd7d4940019e63136","6256d16c021666e5d1a45eb1","","","","","6181","key"," "," ","16.67189189189183","500","250","pog","","","","","163","121",""
"","psychophysics","32","386228","0.0-32.0","5d2a068fd7d4940019e63136","6256d16c021666e5d1a45eb1","","","","","10325","key"," "," ","16.69983792544578","500","250","pog","","","","","231","188",""
"","psychophysics","33","394516","0.0-33.0","5d2a068fd7d4940019e63136","6256d16c021666e5d1a45eb1","","","","","8276","key"," "," ","16.670483870967736","500","250","pog","","","","","191","143",""
"","psychophysics","34","405348","0.0-34.0","5d2a068fd7d4940019e63136","6256d16c021666e5d1a45eb1","","","","","10822","key"," "," ","16.672542372881416","500","250","pog","","","","","216","173",""
"","psychophysics","35","411788","0.0-35.0","5d2a068fd7d4940019e63136","6256d16c021666e5d1a45eb1","","","","","6434","key"," "," ","16.67158441558441","500","250","pog","","","","","238","198",""
"","psychophysics","36","422731","0.0-36.0","5d2a068fd7d4940019e63136","6256d16c021666e5d1a45eb1","","","","","10937","key"," "," ","16.672469512195143","500","250","pog","","","","","235","199",""
"","psychophysics","37","429771","0.0-37.0","5d2a068fd7d4940019e63136","6256d16c021666e5d1a45eb1","","","","","7037","key"," "," ","16.67116389548693","500","250","pog","","","","","233","188",""
"","psychophysics","38","444373","0.0-38.0","5d2a068fd7d4940019e63136","6256d16c021666e5d1a45eb1","","","","","14598","key"," "," ","16.671017142857092","500","250","pog","","","","","231","194",""
"","psychophysics","39","457916","0.0-39.0","5d2a068fd7d4940019e63136","6256d16c021666e5d1a45eb1","","","","","13534","key"," "," ","16.671368680641162","500","250","pog","","","","","221","188",""
"","psychophysics","40","469859","0.0-40.0","5d2a068fd7d4940019e63136","6256d16c021666e5d1a45eb1","","","","","11939","key"," "," ","16.671999999999972","500","250","pog","","","","","179","143",""
"","psychophysics","41","485772","0.0-41.0","5d2a068fd7d4940019e63136","6256d16c021666e5d1a45eb1","","","","","15906","key"," "," ","16.672704402515734","500","250","pog","","","","","195","165",""
"","psychophysics","42","487836","0.0-42.0","5d2a068fd7d4940019e63136","6256d16c021666e5d1a45eb1","","","","","2060","key"," "," ","16.666666666666668","500","250","inst","","","","","","",""
"","psychophysics","43","492827","0.0-43.0","5d2a068fd7d4940019e63136","6256d16c021666e5d1a45eb1","","","","","4984","key"," "," ","16.67295302013416","500","250","instTilt","","","","","NaN","0","0"
"","psychophysics","44","496715","0.0-44.0","5d2a068fd7d4940019e63136","6256d16c021666e5d1a45eb1","","","","","3884","key"," "," ","16.67500000000015","500","250","instTilt","","","","","0","0","0"
"","psychophysics","45","511475","0.0-45.0","5d2a068fd7d4940019e63136","6256d16c021666e5d1a45eb1","","","","","14755","key"," "," ","16.67102824858762","500","250","instTilt","","","","","0","0","0"
"","psychophysics","46","532611","0.0-46.0","5d2a068fd7d4940019e63136","6256d16c021666e5d1a45eb1","","","","","21133","key"," "," ","16.67113744075832","500","250","inst","","","","","","",""
"","psychophysics","47","543274","0.0-47.0","5d2a068fd7d4940019e63136","6256d16c021666e5d1a45eb1","","","","","10657","key"," "," ","16.67273865414711","500","250","tilt","","","","","5","7","1"
"","psychophysics","48","545394","0.0-48.0","5d2a068fd7d4940019e63136","6256d16c021666e5d1a45eb1","","","","","2116","key"," "," ","16.68190476190417","500","250","tilt","","","","","0","4","1"
"","psychophysics","49","547346","0.0-49.0","5d2a068fd7d4940019e63136","6256d16c021666e5d1a45eb1","","","","","1949","key"," "," ","16.666724137930753","500","250","tilt","","","","","0","0","1"
"","psychophysics","50","555731","0.0-50.0","5d2a068fd7d4940019e63136","6256d16c021666e5d1a45eb1","","","","","8379","key"," "," ","16.670438247012065","500","250","tilt","","","","","5","7","1"
"","psychophysics","51","561602","0.0-51.0","5d2a068fd7d4940019e63136","6256d16c021666e5d1a45eb1","","","","","5868","key"," "," ","16.672193732193904","500","250","tilt","","","","","-4","-7","0"
"","psychophysics","52","569210","0.0-52.0","5d2a068fd7d4940019e63136","6256d16c021666e5d1a45eb1","","","","","7601","key"," "," ","16.670833333333384","500","250","tilt","","","","","-4","-4","0"
"","psychophysics","53","574514","0.0-53.0","5d2a068fd7d4940019e63136","6256d16c021666e5d1a45eb1","","","","","5302","key"," "," ","16.672807570978005","500","250","tilt","","","","","-8","-10","1"
"","psychophysics","54","579307","0.0-54.0","5d2a068fd7d4940019e63136","6256d16c021666e5d1a45eb1","","","","","4788","key"," "," ","16.673356643356904","500","250","tilt","","","","","1","-2","0"
"","psychophysics","55","585643","0.0-55.0","5d2a068fd7d4940019e63136","6256d16c021666e5d1a45eb1","","","","","6330","key"," "," ","16.671662269129435","500","250","tilt","","","","","4","6","1"
"","psychophysics","56","591435","0.0-56.0","5d2a068fd7d4940019e63136","6256d16c021666e5d1a45eb1","","","","","5785","key"," "," ","16.672161383285612","500","250","tilt","","","","","-3","-1","1"
"","psychophysics","57","598035","0.0-57.0","5d2a068fd7d4940019e63136","6256d16c021666e5d1a45eb1","","","","","6597","key"," "," ","16.671443037974612","500","250","tilt","","","","","4","3","0"
"","psychophysics","58","603827","0.0-58.0","5d2a068fd7d4940019e63136","6256d16c021666e5d1a45eb1","","","","","5788","key"," "," ","16.672196531791787","500","250","tilt","","","","","6","9","0"
"","psychophysics","59","611723","0.0-59.0","5d2a068fd7d4940019e63136","6256d16c021666e5d1a45eb1","","","","","7894","key"," "," ","16.670655391120448","500","250","tilt","","","","","-2","0","1"
"","psychophysics","60","617515","0.0-60.0","5d2a068fd7d4940019e63136","6256d16c021666e5d1a45eb1","","","","","5789","key"," "," ","16.672138728323862","500","250","tilt","","","","","5","6","0"
"","psychophysics","61","624715","0.0-61.0","5d2a068fd7d4940019e63136","6256d16c021666e5d1a45eb1","","","","","7197","key"," "," ","16.671090487238956","500","250","tilt","","","","","8","9","0"
"","psychophysics","62","630714","0.0-62.0","5d2a068fd7d4940019e63136","6256d16c021666e5d1a45eb1","","","","","5997","key"," "," ","16.718603351955334","500","250","tilt","","","","","-7","-3","1"
"","psychophysics","63","635322","0.0-63.0","5d2a068fd7d4940019e63136","6256d16c021666e5d1a45eb1","","","","","4604","key"," "," ","16.673672727272763","500","250","tilt","","","","","-1","3","1"
"","psychophysics","64","637242","0.0-64.0","5d2a068fd7d4940019e63136","6256d16c021666e5d1a45eb1","","","","","1917","key"," "," ","16.666666666666668","500","250","tilt","","","","","0","7","1"
"","psychophysics","65","645969","0.0-65.0","5d2a068fd7d4940019e63136","6256d16c021666e5d1a45eb1","","","","","8719","key"," "," ","16.673996175908222","500","250","tilt","","","","","-10","-9","1"
"","psychophysics","66","647066","0.0-66.0","5d2a068fd7d4940019e63136","6256d16c021666e5d1a45eb1","","","","","1095","key"," "," ","16.66676923076873","500","250","tilt","","","","","0","7","1"
"","psychophysics","67","653626","0.0-67.0","5d2a068fd7d4940019e63136","6256d16c021666e5d1a45eb1","","","","","6557","key"," "," ","16.67158163265279","500","250","tilt","","","","","-4","-3","0"
"","psychophysics","68","662017","0.0-68.0","5d2a068fd7d4940019e63136","6256d16c021666e5d1a45eb1","","","","","8385","key"," "," ","16.670517928286806","500","250","tilt","","","","","8","8","0"
"","psychophysics","69","668355","0.0-69.0","5d2a068fd7d4940019e63136","6256d16c021666e5d1a45eb1","","","","","6334","key"," "," ","16.671789473684285","500","250","tilt","","","","","4","8","1"
"","psychophysics","70","673651","0.0-70.0","5d2a068fd7d4940019e63136","6256d16c021666e5d1a45eb1","","","","","5290","key"," "," ","16.67265822784791","500","250","tilt","","","","","-3","1","1"
"","psychophysics","71","681723","0.0-71.0","5d2a068fd7d4940019e63136","6256d16c021666e5d1a45eb1","","","","","8067","key"," "," ","16.674575569358073","500","250","tilt","","","","","2","2","0"
"","psychophysics","72","686977","0.0-72.0","5d2a068fd7d4940019e63136","6256d16c021666e5d1a45eb1","","","","","5246","key"," "," ","16.672698412698487","500","250","tilt","","","","","7","9","0"
"","psychophysics","73","693667","0.0-73.0","5d2a068fd7d4940019e63136","6256d16c021666e5d1a45eb1","","","","","6687","key"," "," ","16.671500000000233","500","250","tilt","","","","","-5","-5","0"
"","psychophysics","74","698331","0.0-74.0","5d2a068fd7d4940019e63136","6256d16c021666e5d1a45eb1","","","","","4661","key"," "," ","16.666666666666668","500","250","tilt","","","","","-7","-10","1"
"","psychophysics","75","712260","0.0-75.0","5d2a068fd7d4940019e63136","6256d16c021666e5d1a45eb1","","","","","13923","key"," "," ","16.67350119904071","500","250","tilt","","","","","2","3","1"
"","psychophysics","76","719452","0.0-76.0","5d2a068fd7d4940019e63136","6256d16c021666e5d1a45eb1","","","","","7177","key"," "," ","16.67102325581377","500","250","tilt","","","","","-11","-10","1"
"","psychophysics","77","724122","0.0-77.0","5d2a068fd7d4940019e63136","6256d16c021666e5d1a45eb1","","","","","4661","key"," "," ","16.673500000000267","500","250","inst","","","","","","",""
"","psychophysics","78","744507","0.0-78.0","5d2a068fd7d4940019e63136","6256d16c021666e5d1a45eb1","","","","","20382","key"," "," ","16.671367731367724","500","250","instPz","","","","","183","50",""
"","psychophysics","79","767291","0.0-79.0","5d2a068fd7d4940019e63136","6256d16c021666e5d1a45eb1","","","","","22772","key"," "," ","16.67224011713033","500","250","instPz","","","","","183","50",""
"","psychophysics","80","783299","0.0-80.0","5d2a068fd7d4940019e63136","6256d16c021666e5d1a45eb1","","","","","16003","key"," "," ","16.688058455114735","500","250","instPz","","","","","15","50",""
"","psychophysics","81","787338","0.0-81.0","5d2a068fd7d4940019e63136","6256d16c021666e5d1a45eb1","","","","","4035","key"," "," ","16.674605809128458","500","250","inst","","","","","","",""
"","psychophysics","82","813066","0.0-82.0","5d2a068fd7d4940019e63136","6256d16c021666e5d1a45eb1","","","","","25724","key"," "," ","16.67156189241735","500","250","pz","","","","","202","58",""
"","psychophysics","83","831091","0.0-83.0","5d2a068fd7d4940019e63136","6256d16c021666e5d1a45eb1","","","","","18020","key"," "," ","16.671981481481474","500","250","pz","","","","","177","31",""
"","psychophysics","84","846771","0.0-84.0","5d2a068fd7d4940019e63136","6256d16c021666e5d1a45eb1","","","","","15676","key"," "," ","16.672736954206552","500","250","pz","","","","","185","34",""
"","psychophysics","85","865210","0.0-85.0","5d2a068fd7d4940019e63136","6256d16c021666e5d1a45eb1","","","","","18438","key"," "," ","16.671837104072402","500","250","pz","","","","","189","48",""
"","psychophysics","86","874097","0.0-86.0","5d2a068fd7d4940019e63136","6256d16c021666e5d1a45eb1","","","","","8884","key"," "," ","16.670263157894876","500","250","pz","","","","","177","24",""
"","psychophysics","87","887170","0.0-87.0","5d2a068fd7d4940019e63136","6256d16c021666e5d1a45eb1","","","","","13072","key"," "," ","16.671545338441973","500","250","pz","","","","","196","55",""
"","psychophysics","88","899642","0.0-88.0","5d2a068fd7d4940019e63136","6256d16c021666e5d1a45eb1","","","","","12464","key"," "," ","16.671753681392296","500","250","pz","","","","","176","33",""
"","psychophysics","89","913866","0.0-89.0","5d2a068fd7d4940019e63136","6256d16c021666e5d1a45eb1","","","","","14219","key"," "," ","16.673341148886266","500","250","pz","","","","","189","48",""
"","psychophysics","90","926371","0.0-90.0","5d2a068fd7d4940019e63136","6256d16c021666e5d1a45eb1","","","","","12501","key"," "," ","16.671748998664906","500","250","pz","","","","","188","48",""
"","psychophysics","91","936145","0.0-91.0","5d2a068fd7d4940019e63136","6256d16c021666e5d1a45eb1","","","","","9770","key"," "," ","16.669948717948788","500","250","pz","","","","","198","58",""
"","psychophysics","92","953971","0.0-92.0","5d2a068fd7d4940019e63136","6256d16c021666e5d1a45eb1","","","","","17823","key"," "," ","16.672022471910196","500","250","pz","","","","","194","54",""
"","psychophysics","93","969466","0.0-93.0","5d2a068fd7d4940019e63136","6256d16c021666e5d1a45eb1","","","","","15492","key"," "," ","16.67280947255117","500","250","pz","","","","","178","39",""
"","psychophysics","94","990810","0.0-94.0","5d2a068fd7d4940019e63136","6256d16c021666e5d1a45eb1","","","","","21340","key"," "," ","16.671133698201725","500","250","pz","","","","","198","59",""
"","psychophysics","95","1010202","0.0-95.0","5d2a068fd7d4940019e63136","6256d16c021666e5d1a45eb1","","","","","19389","key"," "," ","16.671600688468178","500","250","pz","","","","","160","21",""
"","psychophysics","96","1025226","0.0-96.0","5d2a068fd7d4940019e63136","6256d16c021666e5d1a45eb1","","","","","15022","key"," "," ","16.67299999999995","500","250","pz","","","","","197","58",""
"","psychophysics","97","1030370","0.0-97.0","5d2a068fd7d4940019e63136","6256d16c021666e5d1a45eb1","","","","","5141","key"," "," ","16.67285714285711","500","250","inst","","","","","","",""
"","psychophysics","98","1034787","0.0-98.0","5d2a068fd7d4940019e63136","6256d16c021666e5d1a45eb1","","","","","4416","key"," "," ","16.666666666666668","500","250","inst","","","","","","",""
"","psychophysics","99","1043362","0.0-99.0","5d2a068fd7d4940019e63136","6256d16c021666e5d1a45eb1","","","","","8569","key"," "," ","16.674074074074166","500","250","instFlank","","","","","0.5","0.3","1"
"","psychophysics","100","1049626","0.0-100.0","5d2a068fd7d4940019e63136","6256d16c021666e5d1a45eb1","","","","","6260","key"," "," ","16.671786666666467","500","250","inst","","","","","","",""
"","psychophysics","101","1070610","0.0-101.0","5d2a068fd7d4940019e63136","6256d16c021666e5d1a45eb1","","","","","20979","key"," "," ","16.67123309466984","500","250","instFlank","","","","","0.9500000000000004","0.3","1"
"","psychophysics","102","1077329","0.0-102.0","5d2a068fd7d4940019e63136","6256d16c021666e5d1a45eb1","","","","","6712","key"," "," ","16.671393034825638","500","250","inst","","","","","","",""
"","psychophysics","103","1096179","0.0-103.0","5d2a068fd7d4940019e63136","6256d16c021666e5d1a45eb1","","","","","18840","key"," "," ","16.701276595744712","500","250","instFlank","","","","","0.9800000000000004","0.3","0"
"","psychophysics","104","1102274","0.0-104.0","5d2a068fd7d4940019e63136","6256d16c021666e5d1a45eb1","","","","","6080","key"," "," ","16.67183561643828","500","250","inst","","","","","","",""
"","psychophysics","105","1112536","0.0-105.0","5d2a068fd7d4940019e63136","6256d16c021666e5d1a45eb1","","","","","10254","key"," "," ","16.672899022801165","500","250","flank","","","","","0.7700000000000002","0.78","1"
"","psychophysics","106","1115731","0.0-106.0","5d2a068fd7d4940019e63136","6256d16c021666e5d1a45eb1","","","","","3191","key"," "," ","16.666701570679848","500","250","flank","","","","","0.5","0.5","1"
"","psychophysics","107","1122450","0.0-107.0","5d2a068fd7d4940019e63136","6256d16c021666e5d1a45eb1","","","","","6708","key"," "," ","16.671393034825638","500","250","flank","","","","","0.5900000000000001","0.66","1"
"","psychophysics","108","1125586","0.0-108.0","5d2a068fd7d4940019e63136","6256d16c021666e5d1a45eb1","","","","","3127","key"," "," ","16.676791443850565","500","250","flank","","","","","0.5","0.28","0"
"","psychophysics","109","1131744","0.0-109.0","5d2a068fd7d4940019e63136","6256d16c021666e5d1a45eb1","","","","","6152","key"," "," ","16.671847826087564","500","250","flank","","","","","0.6500000000000001","0.68","1"
"","psychophysics","110","1136137","0.0-110.0","5d2a068fd7d4940019e63136","6256d16c021666e5d1a45eb1","","","","","4393","key"," "," ","16.67391634980985","500","250","flank","","","","","0.6500000000000001","0.54","1"
"","psychophysics","111","1141944","0.0-111.0","5d2a068fd7d4940019e63136","6256d16c021666e5d1a45eb1","","","","","5803","key"," "," ","16.67233429394826","500","250","flank","","","","","0.2599999999999998","0.26","1"
"","psychophysics","112","1147602","0.0-112.0","5d2a068fd7d4940019e63136","6256d16c021666e5d1a45eb1","","","","","5655","key"," "," ","16.672307692307665","500","250","flank","","","","","0.31999999999999984","0.2","0"
"","psychophysics","113","1151962","0.0-113.0","5d2a068fd7d4940019e63136","6256d16c021666e5d1a45eb1","","","","","4349","key"," "," ","16.666666666666668","500","250","flank","","","","","0.6200000000000001","0.58","0"
"","psychophysics","114","1156161","0.0-114.0","5d2a068fd7d4940019e63136","6256d16c021666e5d1a45eb1","","","","","4187","key"," "," ","16.674262948207133","500","250","flank","","","","","0.6500000000000001","0.66","1"
"","psychophysics","115","1160842","0.0-115.0","5d2a068fd7d4940019e63136","6256d16c021666e5d1a45eb1","","","","","4672","key"," "," ","16.67342857142794","500","250","flank","","","","","0.6800000000000002","0.64","1"
"","psychophysics","116","1165242","0.0-116.0","5d2a068fd7d4940019e63136","6256d16c021666e5d1a45eb1","","","","","4393","key"," "," ","16.666641221373727","500","250","flank","","","","","0.53","0.4","1"
"","psychophysics","117","1168666","0.0-117.0","5d2a068fd7d4940019e63136","6256d16c021666e5d1a45eb1","","","","","3417","key"," "," ","16.676195121951764","500","250","flank","","","","","0.5900000000000001","0.38","0"
"","psychophysics","118","1173579","0.0-118.0","5d2a068fd7d4940019e63136","6256d16c021666e5d1a45eb1","","","","","4909","key"," "," ","16.67306122449021","500","250","flank","","","","","0.7100000000000002","0.72","0"
"","psychophysics","119","1177857","0.0-119.0","5d2a068fd7d4940019e63136","6256d16c021666e5d1a45eb1","","","","","4273","key"," "," ","16.666666666666668","500","250","flank","","","","","0.6800000000000002","0.52","0"
"","psychophysics","120","1181426","0.0-120.0","5d2a068fd7d4940019e63136","6256d16c021666e5d1a45eb1","","","","","3564","key"," "," ","16.67558685446075","500","250","flank","","","","","0.6500000000000001","0.48","0"
"","psychophysics","121","1184802","0.0-121.0","5d2a068fd7d4940019e63136","6256d16c021666e5d1a45eb1","","","","","3373","key"," "," ","16.67584158415851","500","250","flank","","","","","0.6200000000000001","0.44","0"
"","psychophysics","122","1188785","0.0-122.0","5d2a068fd7d4940019e63136","6256d16c021666e5d1a45eb1","","","","","3980","key"," "," ","16.666638655462812","500","250","flank","","","","","0.6200000000000001","0.34","0"
"","psychophysics","123","1192434","0.0-123.0","5d2a068fd7d4940019e63136","6256d16c021666e5d1a45eb1","","","","","3644","key"," "," ","16.675412844036654","500","250","flank","","","","","0.6200000000000001","0.56","1"
"","psychophysics","124","1198832","0.0-124.0","5d2a068fd7d4940019e63136","6256d16c021666e5d1a45eb1","","","","","6394","key"," "," ","16.67162303664936","500","250","flank","","","","","0.31999999999999984","0.28","1"
"","psychophysics","125","1204738","0.0-125.0","5d2a068fd7d4940019e63136","6256d16c021666e5d1a45eb1","","","","","5905","key"," "," ","16.67203389830548","500","250","flank","","","","","0.8000000000000003","0.76","1"
"","psychophysics","126","1209169","0.0-126.0","5d2a068fd7d4940019e63136","6256d16c021666e5d1a45eb1","","","","","4427","key"," "," ","16.673863636364164","500","250","flank","","","","","0.6500000000000001","0.54","1"
"","psychophysics","127","1212521","0.0-127.0","5d2a068fd7d4940019e63136","6256d16c021666e5d1a45eb1","","","","","3345","key"," "," ","16.666600000000326","500","250","flank","","","","","0.5900000000000001","0.5","1"
"","psychophysics","128","1216385","0.0-128.0","5d2a068fd7d4940019e63136","6256d16c021666e5d1a45eb1","","","","","3859","key"," "," ","16.67489177489137","500","250","flank","","","","","0.56","0.42","1"
"","psychophysics","129","1222104","0.0-129.0","5d2a068fd7d4940019e63136","6256d16c021666e5d1a45eb1","","","","","5715","key"," "," ","16.672163742689733","500","250","flank","","","","","0.1699999999999998","0.22","1"
"","psychophysics","130","1226682","0.0-130.0","5d2a068fd7d4940019e63136","6256d16c021666e5d1a45eb1","","","","","4576","key"," "," ","16.67357664233597","500","250","flank","","","","","0.6800000000000002","0.6","0"
"","psychophysics","131","1230681","0.0-131.0","5d2a068fd7d4940019e63136","6256d16c021666e5d1a45eb1","","","","","3997","key"," "," ","16.66661087866136","500","250","flank","","","","","0.6500000000000001","0.6","0"
"","psychophysics","132","1235305","0.0-132.0","5d2a068fd7d4940019e63136","6256d16c021666e5d1a45eb1","","","","","4620","key"," "," ","16.673550724638186","500","250","flank","","","","","0.4099999999999999","0.28","0"
"","psychophysics","133","1240282","0.0-133.0","5d2a068fd7d4940019e63136","6256d16c021666e5d1a45eb1","","","","","4972","key"," "," ","16.673198653198465","500","250","flank","","","","","0.6800000000000002","0.68","0"
"","psychophysics","134","1245929","0.0-134.0","5d2a068fd7d4940019e63136","6256d16c021666e5d1a45eb1","","","","","5642","key"," "," ","16.672307692307665","500","250","flank","","","","","0.1699999999999998","0.28","1"
"true","fullscreen","135","1245930","0.0-135.0","5d2a068fd7d4940019e63136","6256d16c021666e5d1a45eb1","","","","","","","","","","","","","","","","","","",""
"true","fullscreen","0","2981","0.0-0.0","5e815773285d3883ba2fbbcf","6256d74185393196b28964a0","","","","","","","","","","","","","","","","","","",""
"true","preload","1","2983","0.0-1.0","5e815773285d3883ba2fbbcf","6256d74185393196b28964a0","false","[]","[]","[]","","","","","","","","","","","","","","",""
"","psychophysics","2","8170","0.0-2.0","5e815773285d3883ba2fbbcf","6256d74185393196b28964a0","","","","","5181","key"," "," ","6.948515394912985","500","250","inst","","","","","","",""
"","psychophysics","3","10768","0.0-3.0","5e815773285d3883ba2fbbcf","6256d74185393196b28964a0","","","","","2596","key"," "," ","6.9484745308310965","500","250","inst","","","","","","",""
"","psychophysics","4","28011","0.0-4.0","5e815773285d3883ba2fbbcf","6256d74185393196b28964a0","","","","","17241","key"," "," ","6.948492338709677","500","250","instMl","162","-27","0","-29","-9","",""
"","psychophysics","5","34764","0.0-5.0","5e815773285d3883ba2fbbcf","6256d74185393196b28964a0","","","","","6751","key"," "," ","6.948489186405768","500","250","instMl","246","-41","-2","-9","-10","",""
"","psychophysics","6","37736","0.0-6.0","5e815773285d3883ba2fbbcf","6256d74185393196b28964a0","","","","","2969","key"," "," ","6.948491803278691","500","250","inst","","","","","","",""
"","psychophysics","7","49384","0.0-7.0","5e815773285d3883ba2fbbcf","6256d74185393196b28964a0","","","","","11646","key"," "," ","6.948491343283581","500","250","ml","216","35","1","-8","-8","",""
"","psychophysics","8","62333","0.0-8.0","5e815773285d3883ba2fbbcf","6256d74185393196b28964a0","","","","","12947","key"," "," ","6.948489533011272","500","250","ml","238","18","-22","-12","-13","",""
"","psychophysics","9","70659","0.0-9.0","5e815773285d3883ba2fbbcf","6256d74185393196b28964a0","","","","","8324","key"," "," ","6.948485380116959","500","250","ml","176","16","16","-1","-10","",""
"","psychophysics","10","80412","0.0-10.0","5e815773285d3883ba2fbbcf","6256d74185393196b28964a0","","","","","9751","key"," "," ","6.948487161198295","500","250","ml","154","-26","15","-21","-4","",""
"","psychophysics","11","86378","0.0-11.0","5e815773285d3883ba2fbbcf","6256d74185393196b28964a0","","","","","5963","key"," "," ","6.948488344988345","500","250","ml","214","-53","-12","-12","-6","",""
"","psychophysics","12","92760","0.0-12.0","5e815773285d3883ba2fbbcf","6256d74185393196b28964a0","","","","","6380","key"," "," ","6.948488017429193","500","250","ml","182","34","-6","-27","-13","",""
"","psychophysics","13","104924","0.0-13.0","5e815773285d3883ba2fbbcf","6256d74185393196b28964a0","","","","","12162","key"," "," ","6.948487707261291","500","250","ml","212","16","21","-21","-12","",""
"","psychophysics","14","115351","0.0-14.0","5e815773285d3883ba2fbbcf","6256d74185393196b28964a0","","","","","10425","key"," "," ","6.948486666666674","500","250","ml","162","-23","-19","-22","-8","",""
"","psychophysics","15","118249","0.0-15.0","5e815773285d3883ba2fbbcf","6256d74185393196b28964a0","","","","","2896","key"," "," ","6.9484879807692215","500","250","ml","150","-1","20","4","-9","",""
"","psychophysics","16","124452","0.0-16.0","5e815773285d3883ba2fbbcf","6256d74185393196b28964a0","","","","","6201","key"," "," ","6.948482062780255","500","250","ml","210","3","-17","-15","-8","",""
"","psychophysics","17","128896","0.0-17.0","5e815773285d3883ba2fbbcf","6256d74185393196b28964a0","","","","","4442","key"," "," ","6.948489028213187","500","250","ml","184","-31","-24","-19","-7","",""
"","psychophysics","18","138417","0.0-18.0","5e815773285d3883ba2fbbcf","6256d74185393196b28964a0","","","","","9519","key"," "," ","6.948485025566092","500","250","ml","234","-55","12","-5","-11","",""
"","psychophysics","19","142770","0.0-19.0","5e815773285d3883ba2fbbcf","6256d74185393196b28964a0","","","","","4351","key"," "," ","6.948487220447279","500","250","ml","158","-28","-2","-13","-5","",""
"","psychophysics","20","150436","0.0-20.0","5e815773285d3883ba2fbbcf","6256d74185393196b28964a0","","","","","7664","key"," "," ","6.948484573502705","500","250","ml","232","21","-14","21","-12","",""
"","psychophysics","21","155533","0.0-21.0","5e815773285d3883ba2fbbcf","6256d74185393196b28964a0","","","","","5096","key"," "," ","6.948484311050479","500","250","ml","234","43","23","29","-6","",""
"","psychophysics","22","157800","0.0-22.0","5e815773285d3883ba2fbbcf","6256d74185393196b28964a0","","","","","2265","key"," "," ","6.948476923076937","500","250","inst","","","","","","",""
"","psychophysics","23","168806","0.0-23.0","5e815773285d3883ba2fbbcf","6256d74185393196b28964a0","","","","","10999","key"," "," ","6.948484523057487","500","250","instPog","","","","","130","130",""
"","psychophysics","24","179372","0.0-24.0","5e815773285d3883ba2fbbcf","6256d74185393196b28964a0","","","","","10563","key"," "," ","6.948482236842104","500","250","instPog","","","","","132","130",""
"","psychophysics","25","189247","0.0-25.0","5e815773285d3883ba2fbbcf","6256d74185393196b28964a0","","","","","9873","key"," "," ","6.948483802816908","500","250","instPog","","","","","128","130",""
"","psychophysics","26","190725","0.0-26.0","5e815773285d3883ba2fbbcf","6256d74185393196b28964a0","","","","","1476","key"," "," ","6.948497630331762","500","250","inst","","","","","","",""
"","psychophysics","27","210294","0.0-27.0","5e815773285d3883ba2fbbcf","6256d74185393196b28964a0","","","","","19567","key"," "," ","6.9484843750000005","500","250","pog","","","","","188","177",""
"","psychophysics","28","216627","0.0-28.0","5e815773285d3883ba2fbbcf","6256d74185393196b28964a0","","","","","6331","key"," "," ","6.948482417582424","500","250","pog","","","","","151","137",""
"","psychophysics","29","221763","0.0-29.0","5e815773285d3883ba2fbbcf","6256d74185393196b28964a0","","","","","5134","key"," "," ","6.948485094850973","500","250","pog","","","","","155","141",""
"","psychophysics","30","228221","0.0-30.0","5e815773285d3883ba2fbbcf","6256d74185393196b28964a0","","","","","6456","key"," "," ","6.948485468245437","500","250","pog","","","","","155","145",""
"","psychophysics","31","235782","0.0-31.0","5e815773285d3883ba2fbbcf","6256d74185393196b28964a0","","","","","7559","key"," "," ","6.9484839006439545","500","250","pog","","","","","173","158",""
"","psychophysics","32","242547","0.0-32.0","5e815773285d3883ba2fbbcf","6256d74185393196b28964a0","","","","","6763","key"," "," ","6.948480452674907","500","250","pog","","","","","173","159",""
"","psychophysics","33","257454","0.0-33.0","5e815773285d3883ba2fbbcf","6256d74185393196b28964a0","","","","","14905","key"," "," ","6.958216619981326","500","250","pog","","","","","172","172",""
"","psychophysics","34","263241","0.0-34.0","5e815773285d3883ba2fbbcf","6256d74185393196b28964a0","","","","","5785","key"," "," ","6.948477163461575","500","250","pog","","","","","172","176",""
"","psychophysics","35","268262","0.0-35.0","5e815773285d3883ba2fbbcf","6256d74185393196b28964a0","","","","","5019","key"," "," ","6.948485436893214","500","250","pog","","","","","119","127",""
"","psychophysics","36","272376","0.0-36.0","5e815773285d3883ba2fbbcf","6256d74185393196b28964a0","","","","","4112","key"," "," ","6.948482233502562","500","250","pog","","","","","183","191",""
"","psychophysics","37","280322","0.0-37.0","5e815773285d3883ba2fbbcf","6256d74185393196b28964a0","","","","","7944","key"," "," ","6.948482064741899","500","250","pog","","","","","124","138",""
"","psychophysics","38","292300","0.0-38.0","5e815773285d3883ba2fbbcf","6256d74185393196b28964a0","","","","","11976","key"," "," ","6.9484846198491015","500","250","pog","","","","","188","196",""
"","psychophysics","39","299755","0.0-39.0","5e815773285d3883ba2fbbcf","6256d74185393196b28964a0","","","","","7453","key"," "," ","6.948483208955201","500","250","pog","","","","","115","121",""
"","psychophysics","40","312282","0.0-40.0","5e815773285d3883ba2fbbcf","6256d74185393196b28964a0","","","","","12525","key"," "," ","6.948483064963905","500","250","pog","","","","","115","123",""
"","psychophysics","41","317967","0.0-41.0","5e815773285d3883ba2fbbcf","6256d74185393196b28964a0","","","","","5683","key"," "," ","6.948478580171367","500","250","pog","","","","","171","180",""
"","psychophysics","42","319093","0.0-42.0","5e815773285d3883ba2fbbcf","6256d74185393196b28964a0","","","","","1125","key"," "," ","6.9484567901236005","500","250","inst","","","","","","",""
"","psychophysics","43","325026","0.0-43.0","5e815773285d3883ba2fbbcf","6256d74185393196b28964a0","","","","","5930","key"," "," ","6.948482394366218","500","250","instTilt","","","","","NaN","0","0"
"","psychophysics","44","328545","0.0-44.0","5e815773285d3883ba2fbbcf","6256d74185393196b28964a0","","","","","3518","key"," "," ","6.948482213438794","500","250","instTilt","","","","","0","0","0"
"","psychophysics","45","340524","0.0-45.0","5e815773285d3883ba2fbbcf","6256d74185393196b28964a0","","","","","11977","key"," "," ","6.948478816018568","500","250","instTilt","","","","","0","0","0"
"","psychophysics","46","341974","0.0-46.0","5e815773285d3883ba2fbbcf","6256d74185393196b28964a0","","","","","1449","key"," "," ","6.948471153846185","500","250","inst","","","","","","",""
"","psychophysics","47","351827","0.0-47.0","5e815773285d3883ba2fbbcf","6256d74185393196b28964a0","","","","","9851","key"," "," ","6.9484848270995245","500","250","tilt","","","","","7","10","1"
"","psychophysics","48","358586","0.0-48.0","5e815773285d3883ba2fbbcf","6256d74185393196b28964a0","","","","","6757","key"," "," ","6.948481977342911","500","250","tilt","","","","","6","7","0"
"","psychophysics","49","361866","0.0-49.0","5e815773285d3883ba2fbbcf","6256d74185393196b28964a0","","","","","3278","key"," "," ","6.9484883227176475","500","250","tilt","","","","","0","1","0"
"","psychophysics","50","367639","0.0-50.0","5e815773285d3883ba2fbbcf","6256d74185393196b28964a0","","","","","5771","key"," "," ","6.948481927710832","500","250","tilt","","","","","-10","-9","0"
"","psychophysics","51","373833","0.0-51.0","5e815773285d3883ba2fbbcf","6256d74185393196b28964a0","","","","","6192","key"," "," ","6.948481481481491","500","250","tilt","","","","","-7","-5","0"
"","psychophysics","52","380215","0.0-52.0","5e815773285d3883ba2fbbcf","6256d74185393196b28964a0","","","","","6380","key"," "," ","6.9484820065430455","500","250","tilt","","","","","-12","-10","0"
"","psychophysics","53","381913","0.0-53.0","5e815773285d3883ba2fbbcf","6256d74185393196b28964a0","","","","","1696","key"," "," ","6.948493827160481","500","250","tilt","","","","","0","-1","0"
"","psychophysics","54","386668","0.0-54.0","5e815773285d3883ba2fbbcf","6256d74185393196b28964a0","","","","","4753","key"," "," ","6.948480994152045","500","250","tilt","","","","","2","4","1"
"","psychophysics","55","392313","0.0-55.0","5e815773285d3883ba2fbbcf","6256d74185393196b28964a0","","","","","5642","key"," "," ","6.948480887792912","500","250","tilt","","","","","0","1","0"
"","psychophysics","56","400878","0.0-56.0","5e815773285d3883ba2fbbcf","6256d74185393196b28964a0","","","","","8563","key"," "," ","6.948482954545422","500","250","tilt","","","","","-10","-10","1"
"","psychophysics","57","404816","0.0-57.0","5e815773285d3883ba2fbbcf","6256d74185393196b28964a0","","","","","3936","key"," "," ","6.94848586572437","500","250","tilt","","","","","7","10","0"
"","psychophysics","58","410168","0.0-58.0","5e815773285d3883ba2fbbcf","6256d74185393196b28964a0","","","","","5351","key"," "," ","6.948475942782869","500","250","tilt","","","","","6","8","1"
"","psychophysics","59","416672","0.0-59.0","5e815773285d3883ba2fbbcf","6256d74185393196b28964a0","","","","","6502","key"," "," ","6.948480213903772","500","250","tilt","","","","","6","10","0"
"","psychophysics","60","421210","0.0-60.0","5e815773285d3883ba2fbbcf","6256d74185393196b28964a0","","","","","4536","key"," "," ","6.94847699386504","500","250","tilt","","","","","4","3","0"
"","psychophysics","61","426850","0.0-61.0","5e815773285d3883ba2fbbcf","6256d74185393196b28964a0","","","","","5637","key"," "," ","6.94848581997535","500","250","tilt","","","","","-10","-8","1"
"","psychophysics","62","432204","0.0-62.0","5e815773285d3883ba2fbbcf","6256d74185393196b28964a0","","","","","5353","key"," "," ","6.948482444733385","500","250","tilt","","","","","5","9","1"
"","psychophysics","63","437935","0.0-63.0","5e815773285d3883ba2fbbcf","6256d74185393196b28964a0","","","","","5729","key"," "," ","6.948480582524284","500","250","tilt","","","","","-11","-9","1"
"","psychophysics","64","443156","0.0-64.0","5e815773285d3883ba2fbbcf","6256d74185393196b28964a0","","","","","5220","key"," "," ","6.948475999999947","500","250","tilt","","","","","8","10","0"
"","psychophysics","65","449373","0.0-65.0","5e815773285d3883ba2fbbcf","6256d74185393196b28964a0","","","","","6215","key"," "," ","6.948482102908309","500","250","tilt","","","","","-10","-9","1"
"","psychophysics","66","454081","0.0-66.0","5e815773285d3883ba2fbbcf","6256d74185393196b28964a0","","","","","4706","key"," "," ","6.948483013293975","500","250","tilt","","","","","-12","-10","1"
"","psychophysics","67","456781","0.0-67.0","5e815773285d3883ba2fbbcf","6256d74185393196b28964a0","","","","","2698","key"," "," ","6.9484883720930295","500","250","tilt","","","","","0","1","1"
"","psychophysics","68","463892","0.0-68.0","5e815773285d3883ba2fbbcf","6256d74185393196b28964a0","","","","","7110","key"," "," ","6.948479960899356","500","250","tilt","","","","","6","8","1"
"","psychophysics","69","470876","0.0-69.0","5e815773285d3883ba2fbbcf","6256d74185393196b28964a0","","","","","6981","key"," "," ","6.94848207171316","500","250","tilt","","","","","8","9","1"
"","psychophysics","70","477378","0.0-70.0","5e815773285d3883ba2fbbcf","6256d74185393196b28964a0","","","","","6500","key"," "," ","6.948483940042848","500","250","tilt","","","","","7","8","0"
"","psychophysics","71","479625","0.0-71.0","5e815773285d3883ba2fbbcf","6256d74185393196b28964a0","","","","","2245","key"," "," ","6.94848297213618","500","250","tilt","","","","","0","3","1"
"","psychophysics","72","485823","0.0-72.0","5e815773285d3883ba2fbbcf","6256d74185393196b28964a0","","","","","6196","key"," "," ","6.948481481481491","500","250","tilt","","","","","-9","-10","0"
"","psychophysics","73","487502","0.0-73.0","5e815773285d3883ba2fbbcf","6256d74185393196b28964a0","","","","","1677","key"," "," ","6.948483333333328","500","250","tilt","","","","","0","0","0"
"","psychophysics","74","491266","0.0-74.0","5e815773285d3883ba2fbbcf","6256d74185393196b28964a0","","","","","3763","key"," "," ","6.948471349353089","500","250","tilt","","","","","-1","-1","1"
"","psychophysics","75","498921","0.0-75.0","5e815773285d3883ba2fbbcf","6256d74185393196b28964a0","","","","","7653","key"," "," ","6.948479564032709","500","250","tilt","","","","","8","10","1"
"","psychophysics","76","503403","0.0-76.0","5e815773285d3883ba2fbbcf","6256d74185393196b28964a0","","","","","4479","key"," "," ","6.948478260869486","500","250","tilt","","","","","7","5","0"
"","psychophysics","77","505072","0.0-77.0","5e815773285d3883ba2fbbcf","6256d74185393196b28964a0","","","","","1668","key"," "," ","6.948497907949756","500","250","inst","","","","","","",""
"","psychophysics","78","514547","0.0-78.0","5e815773285d3883ba2fbbcf","6256d74185393196b28964a0","","","","","9472","key"," "," ","6.948484959647817","500","250","instPz","","","","","47","50",""
"","psychophysics","79","521401","0.0-79.0","5e815773285d3883ba2fbbcf","6256d74185393196b28964a0","","","","","6853","key"," "," ","6.948475126903516","500","250","instPz","","","","","49","50",""
"","psychophysics","80","531333","0.0-80.0","5e815773285d3883ba2fbbcf","6256d74185393196b28964a0","","","","","9929","key"," "," ","6.9484845938374855","500","250","instPz","","","","","48","50",""
"","psychophysics","81","532459","0.0-81.0","5e815773285d3883ba2fbbcf","6256d74185393196b28964a0","","","","","1124","key"," "," ","6.94848765432116","500","250","inst","","","","","","",""
"","psychophysics","82","539478","0.0-82.0","5e815773285d3883ba2fbbcf","6256d74185393196b28964a0","","","","","7017","key"," "," ","6.948480673934581","500","250","pz","","","","","55","55",""
"","psychophysics","83","543439","0.0-83.0","5e815773285d3883ba2fbbcf","6256d74185393196b28964a0","","","","","3959","key"," "," ","6.948469244288232","500","250","pz","","","","","21","20",""
"","psychophysics","84","548724","0.0-84.0","5e815773285d3883ba2fbbcf","6256d74185393196b28964a0","","","","","5283","key"," "," ","6.94848353096176","500","250","pz","","","","","62","56",""
"","psychophysics","85","554031","0.0-85.0","5e815773285d3883ba2fbbcf","6256d74185393196b28964a0","","","","","5305","key"," "," ","6.948483617300244","500","250","pz","","","","","34","26",""
"","psychophysics","86","560032","0.0-86.0","5e815773285d3883ba2fbbcf","6256d74185393196b28964a0","","","","","5999","key"," "," ","6.948479721900281","500","250","pz","","","","","54","54",""
"","psychophysics","87","563917","0.0-87.0","5e815773285d3883ba2fbbcf","6256d74185393196b28964a0","","","","","3883","key"," "," ","6.948480286738313","500","250","pz","","","","","47","45",""
"","psychophysics","88","568479","0.0-88.0","5e815773285d3883ba2fbbcf","6256d74185393196b28964a0","","","","","4560","key"," "," ","6.948485496183253","500","250","pz","","","","","33","33",""
