"rt","stimulus","response","trial_type","trial_index","time_elapsed","internal_node_id","pid","sid","response_type","key_press","avg_frame_time","center_x","center_y","block","event","resp","target"
"6847","Set You Browser to Full Screen Please.<br><br>","0","html-button-response","0","6850","0.0-0.0","5","4","","","","","","","","",""
"5833","You will see two horizontal lines, an upper line and a lower line.<br> Your job is to adjust the lower line so it is the <strong>same length</strong> as the upper line","0","html-button-response","1","12684","0.0-1.0","5","4","","","","","","","","",""
"7332","Use the left arrow to shorten the bottom line <br> Use the right arrow to lengthen it.","0","html-button-response","2","20016","0.0-2.0","5","4","","","","","","","","",""
"2668","When the line is best adjusted, use the space bar to continue!","0","html-button-response","3","22685","0.0-3.0","5","4","","","","","","","","",""
"2879.9999999999964","We Are Going To Run 20 Trials Now","0","html-button-response","4","25566","0.0-4.0","5","4","","","","","","","","",""
"14311.999999999996",""," ","psychophysics","5","39882","0.0-5.0-0.0","5","4","key"," ","16.666666666666668","896","200","no_feedback","trial","43","40"
"35139",""," ","psychophysics","6","75027","0.0-5.0-0.1","5","4","key"," ","16.666824869482678","896","200","no_feedback","trial","47","46"
"6508",""," ","psychophysics","7","81547","0.0-5.0-0.2","5","4","key"," ","16.65984654731458","896","200","no_feedback","trial","45","44"
"10361",""," ","psychophysics","8","91909","0.0-5.0-0.3","5","4","key"," ","16.666129032258066","896","200","no_feedback","trial","32","28"
"18171",""," ","psychophysics","9","110083","0.0-5.0-0.4","5","4","key"," ","16.66422018348624","896","200","no_feedback","trial","59","57"
"13863",""," ","psychophysics","10","123948","0.0-5.0-0.5","5","4","key"," ","16.666666666666668","896","200","no_feedback","trial","26","27"
"8865",""," ","psychophysics","11","132815","0.0-5.0-0.6","5","4","key"," ","16.66478342749529","896","200","no_feedback","trial","27","27"
"8345",""," ","psychophysics","12","141165","0.0-5.0-0.7","5","4","key"," ","16.668","896","200","no_feedback","trial","32","33"
"7331.999999999971",""," ","psychophysics","13","148501","0.0-5.0-0.8","5","4","key"," ","16.66514806378132","896","200","no_feedback","trial","47","54"
"5720",""," ","psychophysics","14","154223","0.0-5.0-0.9","5","4","key"," ","16.666666666666668","896","200","no_feedback","trial","24","23"
"5694",""," ","psychophysics","15","159921","0.0-5.0-0.10","5","4","key"," ","16.668621700879765","896","200","no_feedback","trial","44","42"
"5631",""," ","psychophysics","16","165555","0.0-5.0-0.11","5","4","key"," ","16.66765578635015","896","200","no_feedback","trial","37","36"
"12501",""," ","psychophysics","17","178060","0.0-5.0-0.12","5","4","key"," ","16.66622162883845","896","200","no_feedback","trial","55","61"
"5852",""," ","psychophysics","18","183922","0.0-5.0-0.13","5","4","key"," ","16.666666666666668","896","200","no_feedback","trial","32","29"
"6274",""," ","psychophysics","19","190199","0.0-5.0-0.14","5","4","key"," ","16.664893617021278","896","200","no_feedback","trial","43","42"
"8598.00000000003",""," ","psychophysics","20","198801","0.0-5.0-0.15","5","4","key"," ","16.667961165048542","896","200","no_feedback","trial","45","50"
"8180",""," ","psychophysics","21","206983","0.0-5.0-0.16","5","4","key"," ","16.66734693877551","896","200","no_feedback","trial","47","41"
"7017",""," ","psychophysics","22","214005","0.0-5.0-0.17","5","4","key"," ","16.664285714285715","896","200","no_feedback","trial","28","26"
"5834",""," ","psychophysics","23","219843","0.0-5.0-0.18","5","4","key"," ","16.667621776504298","896","200","no_feedback","trial","29","33"
"12827",""," ","psychophysics","24","232673","0.0-5.0-0.19","5","4","key"," ","16.66710013003901","896","200","no_feedback","trial","61","65"
"6202","Great.  We Are Going To Run A Final 20 Trials With Feedback.<br>Use the Feedback To Improve Your Adjustments.","0","html-button-response","25","238876","0.0-6.0","5","4","","","","","","","","",""
"19713.99999999997",""," ","psychophysics","26","258591","0.0-7.0-0.0","5","4","key"," ","16.666666666666668","896","200","feedback","trial","45","38"
"10138",""," ","psychophysics","27","268734","0.0-7.0-1.0","5","4","key"," ","16.664473684210527","896","250","feedback","feedback","",""
"12635",""," ","psychophysics","28","281373","0.0-7.0-0.1","5","4","key"," ","16.665785997357993","896","200","feedback","trial","47","47"
"3318",""," ","psychophysics","29","284693","0.0-7.0-1.1","5","4","key"," ","16.666666666666668","896","250","feedback","feedback","",""
"12505",""," ","psychophysics","30","297200","0.0-7.0-0.2","5","4","key"," ","16.666666666666668","896","200","feedback","trial","51","55"
"2823.999999999942",""," ","psychophysics","31","300028","0.0-7.0-1.2","5","4","key"," ","16.666666666666668","896","250","feedback","feedback","",""
"14682",""," ","psychophysics","32","314714","0.0-7.0-0.3","5","4","key"," ","16.663636363636364","896","200","feedback","trial","57","56"
"1858",""," ","psychophysics","33","316595","0.0-7.0-1.3","5","4","key"," ","16.642857142857142","896","250","feedback","feedback","",""
"10880",""," ","psychophysics","34","327484","0.0-7.0-0.4","5","4","key"," ","16.664624808575805","896","200","feedback","trial","43","40"
"2109",""," ","psychophysics","35","329596","0.0-7.0-1.4","5","4","key"," ","16.672","896","250","feedback","feedback","",""
"9845",""," ","psychophysics","36","339452","0.0-7.0-0.5","5","4","key"," ","16.663282571912013","896","200","feedback","trial","45","45"
"2080.999999999942",""," ","psychophysics","37","341535","0.0-7.0-1.5","5","4","key"," ","16.669354838709676","896","250","feedback","feedback","",""
"14248",""," ","psychophysics","38","355784","0.0-7.0-0.6","5","4","key"," ","16.666276346604217","896","200","feedback","trial","57","54"
"1700",""," ","psychophysics","39","357488","0.0-7.0-1.6","5","4","key"," ","16.673267326732674","896","250","feedback","feedback","",""
"8412",""," ","psychophysics","40","365903","0.0-7.0-0.7","5","4","key"," ","16.666666666666668","896","200","feedback","trial","50","49"
"1782.0000000000582",""," ","psychophysics","41","367687","0.0-7.0-1.7","5","4","key"," ","16.669811320754718","896","250","feedback","feedback","",""
"3928",""," ","psychophysics","42","371618","0.0-7.0-0.8","5","4","key"," ","16.663829787234043","896","200","feedback","trial","20","20"
"1383",""," ","psychophysics","43","373003","0.0-7.0-1.8","5","4","key"," ","16.658536585365855","896","250","feedback","feedback","",""
"21481",""," ","psychophysics","44","394486","0.0-7.0-0.9","5","4","key"," ","16.66692546583851","896","200","feedback","trial","55","56"
"2296.999999999942",""," ","psychophysics","45","396787","0.0-7.0-1.9","5","4","key"," ","16.664233576642335","896","250","feedback","feedback","",""
"3733",""," ","psychophysics","46","400522","0.0-7.0-0.10","5","4","key"," ","16.663677130044842","896","200","feedback","trial","22","24"
"1568",""," ","psychophysics","47","402094","0.0-7.0-1.10","5","4","key"," ","16.666666666666668","896","250","feedback","feedback","",""
"14269.999999999942",""," ","psychophysics","48","416369","0.0-7.0-0.11","5","4","key"," ","16.66588785046729","896","200","feedback","trial","32","33"
"1237",""," ","psychophysics","49","417608","0.0-7.0-1.11","5","4","key"," ","16.671232876712327","896","250","feedback","feedback","",""
"11410",""," ","psychophysics","50","429019","0.0-7.0-0.12","5","4","key"," ","16.666666666666668","896","200","feedback","trial","41","41"
"1116.0000000000582",""," ","psychophysics","51","430140","0.0-7.0-1.12","5","4","key"," ","16.666666666666668","896","250","feedback","feedback","",""
"18342.00000000006",""," ","psychophysics","52","448486","0.0-7.0-0.13","5","4","key"," ","16.667272727272728","896","200","feedback","trial","57","56"
"1087.0000000000582",""," ","psychophysics","53","449575","0.0-7.0-1.13","5","4","key"," ","16.671875","896","250","feedback","feedback","",""
"1244",""," ","psychophysics","54","450823","0.0-7.0-0.14","5","4","key"," ","16.66216216216216","896","200","feedback","trial","10","65"
"16725",""," ","psychophysics","55","467554","0.0-7.0-1.14","5","4","key"," ","16.666999002991027","896","250","feedback","feedback","",""
"9346",""," ","psychophysics","56","476903","0.0-7.0-0.15","5","4","key"," ","16.666071428571428","896","200","feedback","trial","44","44"
"1364",""," ","psychophysics","57","478271","0.0-7.0-1.15","5","4","key"," ","16.666666666666668","896","250","feedback","feedback","",""
"10373",""," ","psychophysics","58","488647","0.0-7.0-0.16","5","4","key"," ","16.6682769726248","896","200","feedback","trial","36","37"
"2963",""," ","psychophysics","59","491621","0.0-7.0-1.16","5","4","key"," ","16.662921348314608","896","250","feedback","feedback","",""
"12805.999999999942",""," ","psychophysics","60","504429","0.0-7.0-0.17","5","4","key"," ","16.666232073011734","896","200","feedback","trial","42","43"
"4638",""," ","psychophysics","61","509071","0.0-7.0-1.17","5","4","key"," ","16.658273381294965","896","250","feedback","feedback","",""
"13264",""," ","psychophysics","62","522339","0.0-7.0-0.18","5","4","key"," ","16.667924528301885","896","200","feedback","trial","68","69"
"1713",""," ","psychophysics","63","524054","0.0-7.0-1.18","5","4","key"," ","16.65686274509804","896","250","feedback","feedback","",""
"14279",""," ","psychophysics","64","538337","0.0-7.0-0.19","5","4","key"," ","16.66588785046729","896","200","feedback","trial","29","28"
"3470",""," ","psychophysics","65","541810","0.0-7.0-1.19","5","4","key"," ","16.666666666666668","896","250","feedback","feedback","",""
"9126709.800000012","Set You Browser to Full Screen Please.<br><br>","0","html-button-response","0","9258230","0.0-0.0","6","5","","","","","","","","",""
"4227.300000011921","You will see two horizontal lines, an upper line and a lower line.<br> Your job is to adjust the lower line so it is the <strong>same length</strong> as the upper line","0","html-button-response","1","9262460","0.0-1.0","6","5","","","","","","","","",""
"2236.100000023842","Use the left arrow to shorten the bottom line <br> Use the right arrow to lengthen it.","0","html-button-response","2","9264698","0.0-2.0","6","5","","","","","","","","",""
"1150.5","When the line is best adjusted, use the space bar to continue!","0","html-button-response","3","9265851","0.0-3.0","6","5","","","","","","","","",""
"949.3000000119209","We Are Going To Run 20 Trials Now","0","html-button-response","4","9266802","0.0-4.0","6","5","","","","","","","","",""
"11889",""," ","psychophysics","5","9278709","0.0-5.0-0.0","6","5","key"," ","16.667780112044714","720","200","no_feedback","trial","35","37"
"5287.300000011921",""," ","psychophysics","6","9284000","0.0-5.0-0.1","6","5","key"," ","16.666999999997838","720","200","no_feedback","trial","20","21"
"10708.299999952316",""," ","psychophysics","7","9294779","0.0-5.0-0.2","6","5","key"," ","16.667336973476452","720","200","no_feedback","trial","67","60"
"3466.300000011921",""," ","psychophysics","8","9298250","0.0-5.0-0.3","6","5","key"," ","16.668639423074918","720","200","no_feedback","trial","29","34"
"5455",""," ","psychophysics","9","9303712","0.0-5.0-0.4","6","5","key"," ","16.666999999999405","720","200","no_feedback","trial","50","49"
"5362.5",""," ","psychophysics","10","9309080","0.0-5.0-0.5","6","5","key"," ","16.66767289719292","720","200","no_feedback","trial","49","48"
"2399.800000011921",""," ","psychophysics","11","9311492","0.0-5.0-0.6","6","5","key"," ","16.66699999998996","720","200","no_feedback","trial","26","22"
"5239.400000035763",""," ","psychophysics","12","9316736","0.0-5.0-0.7","6","5","key"," ","16.666999999997294","720","200","no_feedback","trial","42","40"
"3777.2000000476837",""," ","psychophysics","13","9320517","0.0-5.0-0.8","6","5","key"," ","16.668508849560027","720","200","no_feedback","trial","38","38"
"7669.300000011921",""," ","psychophysics","14","9328190","0.0-5.0-0.9","6","5","key"," ","16.667470588237208","720","200","no_feedback","trial","71","67"
"3902.2999999523163",""," ","psychophysics","15","9332097","0.0-5.0-0.10","6","5","key"," ","16.667000000001345","720","200","no_feedback","trial","38","40"
"6533.199999988079",""," ","psychophysics","16","9338634","0.0-5.0-0.11","6","5","key"," ","16.667869897963175","720","200","no_feedback","trial","61","58"
"2330.399999976158",""," ","psychophysics","17","9340968","0.0-5.0-0.12","6","5","key"," ","16.66699999999657","720","200","no_feedback","trial","26","25"
"3752.699999988079",""," ","psychophysics","18","9344730","0.0-5.0-0.13","6","5","key"," ","16.667000000007516","720","200","no_feedback","trial","33","33"
"5819.900000035763",""," ","psychophysics","19","9350555","0.0-5.0-0.14","6","5","key"," ","16.667618911174316","720","200","no_feedback","trial","48","50"
"7336.300000011921",""," ","psychophysics","20","9357894","0.0-5.0-0.15","6","5","key"," ","16.667000000002307","720","200","no_feedback","trial","69","70"
"3948.199999988079",""," ","psychophysics","21","9361847","0.0-5.0-0.16","6","5","key"," ","16.66844491525632","720","200","no_feedback","trial","39","42"
"3144.400000035763",""," ","psychophysics","22","9364997","0.0-5.0-0.17","6","5","key"," ","16.666999999998495","720","200","no_feedback","trial","35","36"
"6780.399999976158",""," ","psychophysics","23","9371781","0.0-5.0-0.18","6","5","key"," ","16.667532019707114","720","200","no_feedback","trial","64","69"
"3666",""," ","psychophysics","24","9375452","0.0-5.0-0.19","6","5","key"," ","16.667000000001018","720","200","no_feedback","trial","35","38"
"3878.099999964237","Great.  We Are Going To Run A Final 20 Trials With Feedback.<br>Use the Feedback To Improve Your Adjustments.","0","html-button-response","25","9379333","0.0-6.0","6","5","","","","","","","","",""
"7230.600000023842",""," ","psychophysics","26","9386568","0.0-7.0-0.0","6","5","key"," ","16.66773502304206","720","200","feedback","trial","64","64"
"1832.5",""," ","psychophysics","27","9388404","0.0-7.0-1.0","6","5","key"," ","16.666999999997675","720","250","feedback","feedback","",""
"5595.900000035763",""," ","psychophysics","28","9394003","0.0-7.0-0.1","6","5","key"," ","16.668017910443137","720","200","feedback","trial","55","58"
"989.5",""," ","psychophysics","29","9394997","0.0-7.0-1.1","6","5","key"," ","16.666999999979705","720","250","feedback","feedback","",""
"7302.5",""," ","psychophysics","30","9402309","0.0-7.0-0.2","6","5","key"," ","16.66749315068432","720","200","feedback","trial","73","66"
"1242.1000000238419",""," ","psychophysics","31","9403554","0.0-7.0-1.2","6","5","key"," ","16.667000000012685","720","250","feedback","feedback","",""
"3213.2999999523163",""," ","psychophysics","32","9406770","0.0-7.0-0.3","6","5","key"," ","16.66699999999643","720","200","feedback","trial","20","23"
"821.6999999880791",""," ","psychophysics","33","9407595","0.0-7.0-1.3","6","5","key"," ","16.667000000015832","720","250","feedback","feedback","",""
"5516",""," ","psychophysics","34","9413115","0.0-7.0-0.4","6","5","key"," ","16.668030211482524","720","200","feedback","trial","52","52"
"918.1999999880791",""," ","psychophysics","35","9414037","0.0-7.0-1.4","6","5","key"," ","16.667000000020145","720","250","feedback","feedback","",""
"4963.600000023842",""," ","psychophysics","36","9419003","0.0-7.0-0.5","6","5","key"," ","16.666999999998193","720","200","feedback","trial","37","39"
"963.8000000119209",""," ","psychophysics","37","9419971","0.0-7.0-1.5","6","5","key"," ","16.670789473673754","720","250","feedback","feedback","",""
"3778.800000011921",""," ","psychophysics","38","9423752","0.0-7.0-0.6","6","5","key"," ","16.66700000000244","720","200","feedback","trial","41","37"
"754.5",""," ","psychophysics","39","9424510","0.0-7.0-1.6","6","5","key"," ","16.667000000026416","720","250","feedback","feedback","",""
"6982.699999988079",""," ","psychophysics","40","9431496","0.0-7.0-0.7","6","5","key"," ","16.667815789473398","720","200","feedback","trial","73","70"
"797.5",""," ","psychophysics","41","9432298","0.0-7.0-1.7","6","5","key"," ","16.667000000028217","720","250","feedback","feedback","",""
"2021.300000011921",""," ","psychophysics","42","9434323","0.0-7.0-0.8","6","5","key"," ","16.667000000003323","720","200","feedback","trial","23","27"
"723",""," ","psychophysics","43","9435056","0.0-7.0-1.8","6","5","key"," ","16.666999999996882","720","250","feedback","feedback","",""
"6479.399999976158",""," ","psychophysics","44","9441538","0.0-7.0-0.9","6","5","key"," ","16.667556701031195","720","200","feedback","trial","56","54"
"844.8000000119209",""," ","psychophysics","45","9442386","0.0-7.0-1.9","6","5","key"," ","16.666999999992548","720","250","feedback","feedback","",""
"7614.600000023842",""," ","psychophysics","46","9450008","0.0-7.0-0.10","6","5","key"," ","16.66774780701911","720","200","feedback","trial","78","68"
"1061.800000011921",""," ","psychophysics","47","9451073","0.0-7.0-1.10","6","5","key"," ","16.666999999995507","720","250","feedback","feedback","",""
"2871.5",""," ","psychophysics","48","9453948","0.0-7.0-0.11","6","5","key"," ","16.667000000000176","720","200","feedback","trial","28","29"
"636.2999999523163",""," ","psychophysics","49","9454588","0.0-7.0-1.11","6","5","key"," ","16.666999999972944","720","250","feedback","feedback","",""
"4179.700000047684",""," ","psychophysics","50","9458771","0.0-7.0-0.12","6","5","key"," ","16.667","720","200","feedback","trial","39","47"
"846.4000000357628",""," ","psychophysics","51","9459621","0.0-7.0-1.12","6","5","key"," ","16.671319999992846","720","250","feedback","feedback","",""
"5031.400000035763",""," ","psychophysics","52","9464655","0.0-7.0-0.13","6","5","key"," ","16.667000000003068","720","200","feedback","trial","29","28"
"829.8999999761581",""," ","psychophysics","53","9465488","0.0-7.0-1.13","6","5","key"," ","16.667000000003952","720","250","feedback","feedback","",""
"7545.5",""," ","psychophysics","54","9473036","0.0-7.0-0.14","6","5","key"," ","16.667754424781233","720","200","feedback","trial","38","37"
"856.8000000119209",""," ","psychophysics","55","9473896","0.0-7.0-1.14","6","5","key"," ","16.666999999992548","720","250","feedback","feedback","",""
"9690.600000023842",""," ","psychophysics","56","9483590","0.0-7.0-0.15","6","5","key"," ","16.667371772803534","720","200","feedback","trial","67","64"
"858.8999999761581",""," ","psychophysics","57","9484452","0.0-7.0-1.15","6","5","key"," ","16.66699999998159","720","250","feedback","feedback","",""
"4866.799999952316",""," ","psychophysics","58","9489321","0.0-7.0-0.16","6","5","key"," ","16.66700000000343","720","200","feedback","trial","47","48"
"680.1999999880791",""," ","psychophysics","59","9490005","0.0-7.0-1.16","6","5","key"," ","16.672399999992923","720","250","feedback","feedback","",""
"7880.5",""," ","psychophysics","60","9497889","0.0-7.0-0.17","6","5","key"," ","16.666999999998072","720","200","feedback","trial","67","67"
"784",""," ","psychophysics","61","9498677","0.0-7.0-1.17","6","5","key"," ","16.667000000000648","720","250","feedback","feedback","",""
"5786.300000011921",""," ","psychophysics","62","9504466","0.0-7.0-0.18","6","5","key"," ","16.667985549132002","720","200","feedback","trial","52","53"
"721.6999999880791",""," ","psychophysics","63","9505193","0.0-7.0-1.18","6","5","key"," ","16.666999999996882","720","250","feedback","feedback","",""
"6365.699999988079",""," ","psychophysics","64","9511562","0.0-7.0-0.19","6","5","key"," ","16.66756692912987","720","200","feedback","trial","67","68"
"614.6000000238419",""," ","psychophysics","65","9512180","0.0-7.0-1.19","6","5","key"," ","16.667000000002897","720","250","feedback","feedback","",""
"165230.20000004768","Set You Browser to Full Screen Please.<br><br>","0","html-button-response","0","141684","0.0-0.0","7","7","","","","","","","","",""
"1194.7999999523163","You will see two horizontal lines, an upper line and a lower line.<br> Your job is to adjust the lower line so it is the <strong>same length</strong> as the upper line","0","html-button-response","1","142880","0.0-1.0","7","7","","","","","","","","",""
"3102.0999999046326","Use the left arrow to shorten the bottom line <br> Use the right arrow to lengthen it.","0","html-button-response","2","145983","0.0-2.0","7","7","","","","","","","","",""
"1439.3999998569489","When the line is best adjusted, use the space bar to continue!","0","html-button-response","3","147423","0.0-3.0","7","7","","","","","","","","",""
"928","We Are Going To Run 20 Trials Now","0","html-button-response","4","148351","0.0-4.0","7","7","","","","","","","","",""
"12082.900000095367",""," ","psychophysics","5","160448","0.0-5.0-0.0","7","7","key"," ","16.73446952908589","640","200","no_feedback","trial","33","29"
"5990.900000095367",""," ","psychophysics","6","166445","0.0-5.0-0.1","7","7","key"," ","16.665197771587774","640","200","no_feedback","trial","70","59"
"4004.0999999046326",""," ","psychophysics","7","170458","0.0-5.0-0.2","7","7","key"," ","16.73512552301258","640","200","no_feedback","trial","39","42"
"2803.7000000476837",""," ","psychophysics","8","173264","0.0-5.0-0.3","7","7","key"," ","16.765355421686742","640","200","no_feedback","trial","44","44"
"6388.099999904633",""," ","psychophysics","9","179656","0.0-5.0-0.4","7","7","key"," ","16.665201044386492","640","200","no_feedback","trial","69","62"
"4186.900000095367",""," ","psychophysics","10","183848","0.0-5.0-0.5","7","7","key"," ","16.664976000000024","640","200","no_feedback","trial","47","46"
"4351.799999952316",""," ","psychophysics","11","188203","0.0-5.0-0.6","7","7","key"," ","16.665283524904197","640","200","no_feedback","trial","33","30"
"6153.200000047684",""," ","psychophysics","12","194361","0.0-5.0-0.7","7","7","key"," ","16.665000000000003","640","200","no_feedback","trial","50","50"
"2388.5999999046326",""," ","psychophysics","13","196754","0.0-5.0-0.8","7","7","key"," ","16.665503496503607","640","200","no_feedback","trial","42","43"
"2739.100000143051",""," ","psychophysics","14","199497","0.0-5.0-0.9","7","7","key"," ","16.664656441717657","640","200","no_feedback","trial","21","22"
"6775.299999952316",""," ","psychophysics","15","206275","0.0-5.0-0.10","7","7","key"," ","16.665236453201995","640","200","no_feedback","trial","60","51"
"3619.5",""," ","psychophysics","16","209897","0.0-5.0-0.11","7","7","key"," ","16.665032258064542","640","200","no_feedback","trial","67","57"
"3012.399999856949",""," ","psychophysics","17","212914","0.0-5.0-0.12","7","7","key"," ","16.66498888888891","640","200","no_feedback","trial","35","33"
"2946.2000000476837",""," ","psychophysics","18","215863","0.0-5.0-0.13","7","7","key"," ","16.665181818181903","640","200","no_feedback","trial","53","53"
"2654.5999999046326",""," ","psychophysics","19","218519","0.0-5.0-0.14","7","7","key"," ","16.664924050633033","640","200","no_feedback","trial","31","30"
"1880.0999999046326",""," ","psychophysics","20","220402","0.0-5.0-0.15","7","7","key"," ","16.66490178571439","640","200","no_feedback","trial","32","31"
"4700.899999856949",""," ","psychophysics","21","225107","0.0-5.0-0.16","7","7","key"," ","16.6649466192171","640","200","no_feedback","trial","69","59"
"3637.7999999523163",""," ","psychophysics","22","228749","0.0-5.0-0.17","7","7","key"," ","16.665325688073384","640","200","no_feedback","trial","77","68"
"2940.5",""," ","psychophysics","23","231695","0.0-5.0-0.18","7","7","key"," ","16.665397727272648","640","200","no_feedback","trial","72","64"
"1870.5999999046326",""," ","psychophysics","24","233567","0.0-5.0-0.19","7","7","key"," ","16.665666666666628","640","200","no_feedback","trial","46","45"
"6219.799999952316","Great.  We Are Going To Run A Final 20 Trials With Feedback.<br>Use the Feedback To Improve Your Adjustments.","0","html-button-response","25","239788","0.0-6.0","7","7","","","","","","","","",""
"4129.099999904633",""," ","psychophysics","26","243924","0.0-7.0-0.0","7","7","key"," ","16.665576612903322","640","200","feedback","trial","31","32"
"2712.9000000953674",""," ","psychophysics","27","246647","0.0-7.0-1.0","7","7","key"," ","16.665754601226883","640","250","feedback","feedback","",""
"6099.5",""," ","psychophysics","28","252748","0.0-7.0-0.1","7","7","key"," ","16.664898630137053","640","200","feedback","trial","53","49"
"1355.8000001907349",""," ","psychophysics","29","254109","0.0-7.0-1.1","7","7","key"," ","16.66517283950636","640","250","feedback","feedback","",""
"2721.600000143051",""," ","psychophysics","30","256833","0.0-7.0-0.2","7","7","key"," ","16.664858024691327","640","200","feedback","trial","28","28"
"891.6000001430511",""," ","psychophysics","31","257729","0.0-7.0-1.2","7","7","key"," ","16.665811320754727","640","250","feedback","feedback","",""
"3355.800000190735",""," ","psychophysics","32","261087","0.0-7.0-0.3","7","7","key"," ","16.66492499999993","640","200","feedback","trial","47","50"
"696.1999998092651",""," ","psychophysics","33","261793","0.0-7.0-1.3","7","7","key"," ","16.665761904761894","640","250","feedback","feedback","",""
"1673.9000000953674",""," ","psychophysics","34","263470","0.0-7.0-0.4","7","7","key"," ","16.666575757576144","640","200","feedback","trial","30","32"
"767",""," ","psychophysics","35","264246","0.0-7.0-1.4","7","7","key"," ","16.668239130434813","640","250","feedback","feedback","",""
"3045.7000000476837",""," ","psychophysics","36","267294","0.0-7.0-0.5","7","7","key"," ","16.6649395604394","640","200","feedback","trial","45","46"
"738.7000000476837",""," ","psychophysics","37","268041","0.0-7.0-1.5","7","7","key"," ","16.66397727272653","640","250","feedback","feedback","",""
"3023.5",""," ","psychophysics","38","271067","0.0-7.0-0.6","7","7","key"," ","16.66494444444446","640","200","feedback","trial","25","23"
"797.5",""," ","psychophysics","39","271869","0.0-7.0-1.6","7","7","key"," ","16.66474468085142","640","250","feedback","feedback","",""
"3064.5999999046326",""," ","psychophysics","40","274936","0.0-7.0-0.7","7","7","key"," ","16.665349726776064","640","200","feedback","trial","41","39"
"646.2000000476837",""," ","psychophysics","41","275590","0.0-7.0-1.7","7","7","key"," ","16.66866666666614","640","250","feedback","feedback","",""
"4353.5",""," ","psychophysics","42","279947","0.0-7.0-0.8","7","7","key"," ","16.665176923077134","640","200","feedback","trial","61","59"
"962.5",""," ","psychophysics","43","280914","0.0-7.0-1.8","7","7","key"," ","16.665052631579893","640","250","feedback","feedback","",""
"4980.700000047684",""," ","psychophysics","44","285897","0.0-7.0-0.9","7","7","key"," ","16.66471476510074","640","200","feedback","trial","26","26"
"675.7999999523163",""," ","psychophysics","45","286578","0.0-7.0-1.9","7","7","key"," ","16.668574999998963","640","250","feedback","feedback","",""
"4331.300000190735",""," ","psychophysics","46","290912","0.0-7.0-0.10","7","7","key"," ","16.664976833976805","640","200","feedback","trial","36","34"
"709.9000000953674",""," ","psychophysics","47","291627","0.0-7.0-1.10","7","7","key"," ","16.66504761904833","640","250","feedback","feedback","",""
"4184.199999809265",""," ","psychophysics","48","295813","0.0-7.0-0.11","7","7","key"," ","16.66515599999996","640","200","feedback","trial","35","35"
"607.8999998569489",""," ","psychophysics","49","296425","0.0-7.0-1.11","7","7","key"," ","16.666972222222185","640","250","feedback","feedback","",""
"5719.5",""," ","psychophysics","50","302147","0.0-7.0-0.12","7","7","key"," ","16.664549707602376","640","200","feedback","trial","70","64"
"755.8999998569489",""," ","psychophysics","51","302912","0.0-7.0-1.12","7","7","key"," ","16.664577777776866","640","250","feedback","feedback","",""
"3232.5999999046326",""," ","psychophysics","52","306147","0.0-7.0-0.13","7","7","key"," ","16.664937823834116","640","200","feedback","trial","27","24"
"557.0999999046326",""," ","psychophysics","53","306713","0.0-7.0-1.13","7","7","key"," ","16.665757575758494","640","250","feedback","feedback","",""
"1497",""," ","psychophysics","54","308213","0.0-7.0-0.14","7","7","key"," ","16.6648539325845","640","200","feedback","trial","24","25"
"639",""," ","psychophysics","55","308861","0.0-7.0-1.14","7","7","key"," ","16.665684210527136","640","250","feedback","feedback","",""
"6123.5",""," ","psychophysics","56","314988","0.0-7.0-0.15","7","7","key"," ","16.664983651226155","640","200","feedback","trial","73","63"
"731.2000000476837",""," ","psychophysics","57","315724","0.0-7.0-1.15","7","7","key"," ","16.664139534884164","640","250","feedback","feedback","",""
"4342.200000047684",""," ","psychophysics","58","320069","0.0-7.0-0.16","7","7","key"," ","16.66554615384599","640","200","feedback","trial","64","62"
"536.3999998569489",""," ","psychophysics","59","320611","0.0-7.0-1.16","7","7","key"," ","16.664096774193535","640","250","feedback","feedback","",""
"2244.399999856949",""," ","psychophysics","60","322858","0.0-7.0-0.17","7","7","key"," ","16.664820895522464","640","200","feedback","trial","34","34"
"508.90000009536743",""," ","psychophysics","61","323371","0.0-7.0-1.17","7","7","key"," ","16.663999999999458","640","250","feedback","feedback","",""
"2850.2999999523163",""," ","psychophysics","62","326224","0.0-7.0-0.18","7","7","key"," ","16.665064705882276","640","200","feedback","trial","50","53"
"519.5",""," ","psychophysics","63","326748","0.0-7.0-1.18","7","7","key"," ","16.663400000000063","640","250","feedback","feedback","",""
"1949.0999999046326",""," ","psychophysics","64","328701","0.0-7.0-0.19","7","7","key"," ","16.665931623931538","640","200","feedback","trial","41","39"
"548.1999998092651",""," ","psychophysics","65","329255","0.0-7.0-1.19","7","7","key"," ","16.6651562499992","640","250","feedback","feedback","",""
"3114","Set You Browser to Full Screen Please.<br><br>","0","html-button-response","0","3117","0.0-0.0","8","8","","","","","","","","",""
"5149","You will see two horizontal lines, an upper line and a lower line.<br> Your job is to adjust the lower line so it is the <strong>same length</strong> as the upper line","0","html-button-response","1","8268","0.0-1.0","8","8","","","","","","","","",""
"3647","Use the left arrow to shorten the bottom line <br> Use the right arrow to lengthen it.","0","html-button-response","2","11917","0.0-2.0","8","8","","","","","","","","",""
"3252","When the line is best adjusted, use the space bar to continue!","0","html-button-response","3","15169","0.0-3.0","8","8","","","","","","","","",""
"2661","We Are Going To Run 20 Trials Now","0","html-button-response","4","17832","0.0-4.0","8","8","","","","","","","","",""
"18067",""," ","psychophysics","5","35908","0.0-5.0-0.0","8","8","key"," ","16.711111111111112","720","200","no_feedback","trial","71","59"
"7824",""," ","psychophysics","6","43736","0.0-5.0-0.1","8","8","key"," ","16.70940170940171","720","200","no_feedback","trial","25","24"
"8357",""," ","psychophysics","7","52097","0.0-5.0-0.2","8","8","key"," ","16.711422845691384","720","200","no_feedback","trial","25","23"
"18322",""," ","psychophysics","8","70423","0.0-5.0-0.3","8","8","key"," ","16.710766423357665","720","200","no_feedback","trial","49","33"
"9958",""," ","psychophysics","9","80384","0.0-5.0-0.4","8","8","key"," ","16.709243697478993","720","200","no_feedback","trial","31","26"
"19949",""," ","psychophysics","10","100337","0.0-5.0-0.5","8","8","key"," ","16.70997485331098","720","200","no_feedback","trial","83","63"
"13302",""," ","psychophysics","11","113642","0.0-5.0-0.6","8","8","key"," ","16.71069182389937","720","200","no_feedback","trial","58","46"
"11677",""," ","psychophysics","12","125323","0.0-5.0-0.7","8","8","key"," ","16.710601719197708","720","200","no_feedback","trial","68","52"
"6443",""," ","psychophysics","13","131769","0.0-5.0-0.8","8","8","key"," ","16.7109375","720","200","no_feedback","trial","27","24"
"9666",""," ","psychophysics","14","141443","0.0-5.0-0.9","8","8","key"," ","16.71107266435986","720","200","no_feedback","trial","58","57"
"8722.99999999997",""," ","psychophysics","15","150170","0.0-5.0-0.10","8","8","key"," ","16.712092130518233","720","200","no_feedback","trial","28","21"
"10895",""," ","psychophysics","16","161074","0.0-5.0-0.11","8","8","key"," ","16.707055214723926","720","200","no_feedback","trial","52","45"
"8883.99999999997",""," ","psychophysics","17","169969","0.0-5.0-0.12","8","8","key"," ","16.70809792843691","720","200","no_feedback","trial","39","33"
"14495",""," ","psychophysics","18","184472","0.0-5.0-0.13","8","8","key"," ","16.71049596309112","720","200","no_feedback","trial","43","37"
"11563.99999999997",""," ","psychophysics","19","196042","0.0-5.0-0.14","8","8","key"," ","16.710564399421127","720","200","no_feedback","trial","41","37"
"11711",""," ","psychophysics","20","207762","0.0-5.0-0.15","8","8","key"," ","16.710413694721826","720","200","no_feedback","trial","53","47"
"22085.99999999997",""," ","psychophysics","21","229851","0.0-5.0-0.16","8","8","key"," ","16.71060606060606","720","200","no_feedback","trial","81","66"
"14100.00000000003",""," ","psychophysics","22","243962","0.0-5.0-0.17","8","8","key"," ","16.708530805687204","720","200","no_feedback","trial","55","48"
"10193.00000000003",""," ","psychophysics","23","254159","0.0-5.0-0.18","8","8","key"," ","16.711001642036123","720","200","no_feedback","trial","59","49"
"14274",""," ","psychophysics","24","268437","0.0-5.0-0.19","8","8","key"," ","16.710433763188746","720","200","no_feedback","trial","71","53"
"8815","Great.  We Are Going To Run A Final 20 Trials With Feedback.<br>Use the Feedback To Improve Your Adjustments.","0","html-button-response","25","277253","0.0-6.0","8","8","","","","","","","","",""
"9878",""," ","psychophysics","26","287134","0.0-7.0-0.0","8","8","key"," ","16.710169491525424","720","200","feedback","trial","36","31"
"9291",""," ","psychophysics","27","296427","0.0-7.0-1.0","8","8","key"," ","16.713513513513515","720","250","feedback","feedback","",""
"14242",""," ","psychophysics","28","310673","0.0-7.0-0.1","8","8","key"," ","16.712441314553992","720","200","feedback","trial","69","57"
"10571.000000000058",""," ","psychophysics","29","321247","0.0-7.0-1.1","8","8","key"," ","16.711568938193345","720","250","feedback","feedback","",""
"10461",""," ","psychophysics","30","331721","0.0-7.0-0.2","8","8","key"," ","16.710862619808307","720","200","feedback","trial","30","25"
"1809",""," ","psychophysics","31","333536","0.0-7.0-1.2","8","8","key"," ","16.703703703703702","720","250","feedback","feedback","",""
"29423",""," ","psychophysics","32","362964","0.0-7.0-0.3","8","8","key"," ","16.710795454545455","720","200","feedback","trial","77","63"
"5170.999999999942",""," ","psychophysics","33","368140","0.0-7.0-1.3","8","8","key"," ","16.711038961038962","720","250","feedback","feedback","",""
"11750",""," ","psychophysics","34","379898","0.0-7.0-0.4","8","8","key"," ","16.711237553342816","720","200","feedback","trial","38","36"
"3933",""," ","psychophysics","35","383836","0.0-7.0-1.4","8","8","key"," ","16.71063829787234","720","250","feedback","feedback","",""
"14765.999999999942",""," ","psychophysics","36","398604","0.0-7.0-0.5","8","8","key"," ","17.17948717948718","720","200","feedback","trial","63","55"
"1226",""," ","psychophysics","37","399832","0.0-7.0-1.5","8","8","key"," ","16.71232876712329","720","250","feedback","feedback","",""
"6735.999999999942",""," ","psychophysics","38","406570","0.0-7.0-0.6","8","8","key"," ","16.713930348258707","720","200","feedback","trial","29","29"
"4916",""," ","psychophysics","39","411491","0.0-7.0-1.6","8","8","key"," ","16.713310580204777","720","250","feedback","feedback","",""
"8401",""," ","psychophysics","40","419901","0.0-7.0-0.7","8","8","key"," ","16.705765407554672","720","200","feedback","trial","26","24"
"1102",""," ","psychophysics","41","421005","0.0-7.0-1.7","8","8","key"," ","16.692307692307693","720","250","feedback","feedback","",""
"14890",""," ","psychophysics","42","435899","0.0-7.0-0.8","8","8","key"," ","16.71011235955056","720","200","feedback","trial","74","65"
"1376",""," ","psychophysics","43","437279","0.0-7.0-1.8","8","8","key"," ","16.71604938271605","720","250","feedback","feedback","",""
"12313.999999999942",""," ","psychophysics","44","449601","0.0-7.0-0.9","8","8","key"," ","16.706919945725915","720","200","feedback","trial","61","58"
"1070.0000000000582",""," ","psychophysics","45","450673","0.0-7.0-1.9","8","8","key"," ","16.714285714285715","720","250","feedback","feedback","",""
"11267",""," ","psychophysics","46","461944","0.0-7.0-0.10","8","8","key"," ","16.710252600297178","720","200","feedback","trial","76","67"
"1115",""," ","psychophysics","47","463068","0.0-7.0-1.10","8","8","key"," ","16.70149253731343","720","250","feedback","feedback","",""
"11111",""," ","psychophysics","48","474182","0.0-7.0-0.11","8","8","key"," ","16.70933734939759","720","200","feedback","trial","48","50"
"1043",""," ","psychophysics","49","475231","0.0-7.0-1.11","8","8","key"," ","16.704918032786885","720","250","feedback","feedback","",""
"12967.999999999942",""," ","psychophysics","50","488208","0.0-7.0-0.12","8","8","key"," ","16.70876288659794","720","200","feedback","trial","54","52"
"1252",""," ","psychophysics","51","489464","0.0-7.0-1.12","8","8","key"," ","16.7027027027027","720","250","feedback","feedback","",""
"11916",""," ","psychophysics","52","501384","0.0-7.0-0.13","8","8","key"," ","16.712078651685392","720","200","feedback","trial","52","53"
"1404",""," ","psychophysics","53","502797","0.0-7.0-1.13","8","8","key"," ","16.702380952380953","720","250","feedback","feedback","",""
"9371",""," ","psychophysics","54","512173","0.0-7.0-0.14","8","8","key"," ","16.710714285714285","720","200","feedback","trial","22","25"
"1414",""," ","psychophysics","55","513592","0.0-7.0-1.14","8","8","key"," ","16.714285714285715","720","250","feedback","feedback","",""
"12222",""," ","psychophysics","56","525819","0.0-7.0-0.15","8","8","key"," ","16.70998632010944","720","200","feedback","trial","48","47"
"2024",""," ","psychophysics","57","527848","0.0-7.0-1.15","8","8","key"," ","16.708333333333332","720","250","feedback","feedback","",""
"8751",""," ","psychophysics","58","536603","0.0-7.0-0.16","8","8","key"," ","16.7112810707457","720","200","feedback","trial","25","24"
"949",""," ","psychophysics","59","537562","0.0-7.0-1.16","8","8","key"," ","16.732142857142858","720","250","feedback","feedback","",""
"10738.999999999884",""," ","psychophysics","60","548304","0.0-7.0-0.17","8","8","key"," ","16.71183800623053","720","200","feedback","trial","48","50"
"1149",""," ","psychophysics","61","549457","0.0-7.0-1.17","8","8","key"," ","16.705882352941178","720","250","feedback","feedback","",""
"4714",""," ","psychophysics","62","554175","0.0-7.0-0.18","8","8","key"," ","16.71174377224199","720","200","feedback","trial","27","22"
"3875",""," ","psychophysics","63","558052","0.0-7.0-1.18","8","8","key"," ","16.714285714285715","720","250","feedback","feedback","",""
"19692",""," ","psychophysics","64","577755","0.0-7.0-0.19","8","8","key"," ","16.710526315789473","720","200","feedback","trial","64","57"
"1095",""," ","psychophysics","65","578853","0.0-7.0-1.19","8","8","key"," ","16.692307692307693","720","250","feedback","feedback","",""
"6754.100000143051","Set You Browser to Full Screen Please.<br><br>","0","html-button-response","0","6757","0.0-0.0","9","9","","","","","","","","",""
"13799.200000047684","You will see two horizontal lines, an upper line and a lower line.<br> Your job is to adjust the lower line so it is the <strong>same length</strong> as the upper line","0","html-button-response","1","20558","0.0-1.0","9","9","","","","","","","","",""
"8636.700000047684","Use the left arrow to shorten the bottom line <br> Use the right arrow to lengthen it.","0","html-button-response","2","29197","0.0-2.0","9","9","","","","","","","","",""
"2353","When the line is best adjusted, use the space bar to continue!","0","html-button-response","3","31551","0.0-3.0","9","9","","","","","","","","",""
"3738.7999999523163","We Are Going To Run 20 Trials Now","0","html-button-response","4","35291","0.0-4.0","9","9","","","","","","","","",""
"21412",""," ","psychophysics","5","56724","0.0-5.0-0.0","9","9","key"," ","16.68257120622568","640","200","no_feedback","trial","30","27"
"20858.599999904633",""," ","psychophysics","6","77586","0.0-5.0-0.1","9","9","key"," ","16.701251602564106","640","200","no_feedback","trial","69","61"
"11224.5",""," ","psychophysics","7","88814","0.0-5.0-0.2","9","9","key"," ","16.674441964285702","640","200","no_feedback","trial","52","48"
"11332.5",""," ","psychophysics","8","100150","0.0-5.0-0.3","9","9","key"," ","16.674586156111943","640","200","no_feedback","trial","51","50"
"16219.5",""," ","psychophysics","9","116372","0.0-5.0-0.4","9","9","key"," ","16.691887744593206","640","200","no_feedback","trial","32","30"
"28896.200000047684",""," ","psychophysics","10","145272","0.0-5.0-0.5","9","9","key"," ","16.674594110854503","640","200","no_feedback","trial","73","66"
"5999.800000190735",""," ","psychophysics","11","151274","0.0-5.0-0.6","9","9","key"," ","16.674980501392756","640","200","no_feedback","trial","25","24"
"19703.39999985695",""," ","psychophysics","12","170980","0.0-5.0-0.7","9","9","key"," ","16.674287891617276","640","200","no_feedback","trial","77","70"
"17809.299999952316",""," ","psychophysics","13","188793","0.0-5.0-0.8","9","9","key"," ","16.721657894736854","640","200","no_feedback","trial","29","26"
"19888.599999904633",""," ","psychophysics","14","208700","0.0-5.0-0.9","9","9","key"," ","16.674580050293358","640","200","no_feedback","trial","35","34"
"17074.5",""," ","psychophysics","15","225778","0.0-5.0-0.10","9","9","key"," ","16.674668621700896","640","200","no_feedback","trial","49","45"
"11686.200000047684",""," ","psychophysics","16","237466","0.0-5.0-0.11","9","9","key"," ","16.67440571428572","640","200","no_feedback","trial","37","35"
"20790.400000095367",""," ","psychophysics","17","258259","0.0-5.0-0.12","9","9","key"," ","16.674599518459075","640","200","no_feedback","trial","37","35"
"29561.10000014305",""," ","psychophysics","18","287824","0.0-5.0-0.13","9","9","key"," ","16.702823063877894","640","200","no_feedback","trial","78","66"
"8672",""," ","psychophysics","19","296498","0.0-5.0-0.14","9","9","key"," ","16.674782273603082","640","200","no_feedback","trial","52","51"
"15973.700000047684",""," ","psychophysics","20","312475","0.0-5.0-0.15","9","9","key"," ","16.674722048066847","640","200","no_feedback","trial","75","69"
"9176.399999856949",""," ","psychophysics","21","321658","0.0-5.0-0.16","9","9","key"," ","16.674652727272743","640","200","no_feedback","trial","23","20"
"12742.100000143051",""," ","psychophysics","22","334403","0.0-5.0-0.17","9","9","key"," ","16.674419397116637","640","200","no_feedback","trial","76","67"
"8593.099999904633",""," ","psychophysics","23","342999","0.0-5.0-0.18","9","9","key"," ","16.707118677042864","640","200","no_feedback","trial","35","34"
"10470",""," ","psychophysics","24","353472","0.0-5.0-0.19","9","9","key"," ","16.674543859649145","640","200","no_feedback","trial","46","42"
"35528.10000014305","Great.  We Are Going To Run A Final 20 Trials With Feedback.<br>Use the Feedback To Improve Your Adjustments.","0","html-button-response","25","389002","0.0-6.0","9","9","","","","","","","","",""
"21521",""," ","psychophysics","26","410529","0.0-7.0-0.0","9","9","key"," ","16.688201550387575","640","200","feedback","trial","77","67"
"6267.5",""," ","psychophysics","27","416801","0.0-7.0-1.0","9","9","key"," ","16.674","640","250","feedback","feedback","",""
"13505.299999952316",""," ","psychophysics","28","430315","0.0-7.0-0.1","9","9","key"," ","16.674854140914704","640","200","feedback","trial","31","32"
"3055.5",""," ","psychophysics","29","433377","0.0-7.0-1.1","9","9","key"," ","16.674000000000028","640","250","feedback","feedback","",""
"17276.900000095367",""," ","psychophysics","30","450673","0.0-7.0-0.2","9","9","key"," ","16.674671814671836","640","200","feedback","trial","74","68"
"3651.399999856949",""," ","psychophysics","31","454328","0.0-7.0-1.2","9","9","key"," ","16.673999999999868","640","250","feedback","feedback","",""
"13506.5",""," ","psychophysics","32","467840","0.0-7.0-0.3","9","9","key"," ","16.67436711990114","640","200","feedback","trial","34","36"
"1350",""," ","psychophysics","33","469192","0.0-7.0-1.3","9","9","key"," ","16.678062499999943","640","250","feedback","feedback","",""
"11150.099999904633",""," ","psychophysics","34","480360","0.0-7.0-0.4","9","9","key"," ","16.67460986547087","640","200","feedback","trial","38","39"
"1552.4000000953674",""," ","psychophysics","35","481914","0.0-7.0-1.4","9","9","key"," ","16.6739999999997","640","250","feedback","feedback","",""
"22855.799999952316",""," ","psychophysics","36","504773","0.0-7.0-0.5","9","9","key"," ","16.674490510948925","640","200","feedback","trial","55","56"
"1165.6000001430511",""," ","psychophysics","37","505941","0.0-7.0-1.5","9","9","key"," ","16.67399999999991","640","250","feedback","feedback","",""
"10185.300000190735",""," ","psychophysics","38","516129","0.0-7.0-0.6","9","9","key"," ","16.674480327868885","640","200","feedback","trial","25","26"
"1249.7999999523163",""," ","psychophysics","39","517381","0.0-7.0-1.6","9","9","key"," ","16.673999999999854","640","250","feedback","feedback","",""
"12572",""," ","psychophysics","40","529956","0.0-7.0-0.7","9","9","key"," ","16.67498671978746","640","200","feedback","trial","72","70"
"1102.2000000476837",""," ","psychophysics","41","531061","0.0-7.0-1.7","9","9","key"," ","16.67400000000086","640","250","feedback","feedback","",""
"13884.5",""," ","psychophysics","42","544947","0.0-7.0-0.8","9","9","key"," ","16.674412259615426","640","200","feedback","trial","54","47"
"3528.7000000476837",""," ","psychophysics","43","548479","0.0-7.0-1.8","9","9","key"," ","16.67399999999962","640","250","feedback","feedback","",""
"5616.700000047684",""," ","psychophysics","44","554098","0.0-7.0-0.9","9","9","key"," ","16.675020833333424","640","200","feedback","trial","32","31"
"1131.5",""," ","psychophysics","45","555232","0.0-7.0-1.9","9","9","key"," ","16.674000000000806","640","250","feedback","feedback","",""
"5874.5",""," ","psychophysics","46","561109","0.0-7.0-0.10","9","9","key"," ","16.674971509971286","640","200","feedback","trial","22","21"
"1710",""," ","psychophysics","47","562821","0.0-7.0-1.10","9","9","key"," ","16.67400000000021","640","250","feedback","feedback","",""
"8285.5",""," ","psychophysics","48","571109","0.0-7.0-0.11","9","9","key"," ","16.67471370967753","640","200","feedback","trial","21","23"
"2847.5",""," ","psychophysics","49","573959","0.0-7.0-1.11","9","9","key"," ","16.673999999999754","640","250","feedback","feedback","",""
"20607.400000095367",""," ","psychophysics","50","594569","0.0-7.0-0.12","9","9","key"," ","16.701597729115935","640","200","feedback","trial","64","61"
"1109.2000000476837",""," ","psychophysics","51","595681","0.0-7.0-1.12","9","9","key"," ","16.994653846155135","640","250","feedback","feedback","",""
"13056.200000047684",""," ","psychophysics","52","608739","0.0-7.0-0.13","9","9","key"," ","16.674444444444404","640","200","feedback","trial","55","55"
"1668.7999999523163",""," ","psychophysics","53","610411","0.0-7.0-1.13","9","9","key"," ","16.67756565656593","640","250","feedback","feedback","",""
"12921",""," ","psychophysics","54","623334","0.0-7.0-0.14","9","9","key"," ","16.674440568475443","640","200","feedback","trial","62","62"
"1301.5",""," ","psychophysics","55","624638","0.0-7.0-1.14","9","9","key"," ","16.674000000000582","640","250","feedback","feedback","",""
"11038.800000190735",""," ","psychophysics","56","635680","0.0-7.0-0.15","9","9","key"," ","16.674514372163287","640","200","feedback","trial","32","30"
"2335.2000000476837",""," ","psychophysics","57","638018","0.0-7.0-1.15","9","9","key"," ","16.6739999999999","640","250","feedback","feedback","",""
"9825.700000047684",""," ","psychophysics","58","647847","0.0-7.0-0.16","9","9","key"," ","16.702998296422543","640","200","feedback","trial","22","23"
"1733.6000001430511",""," ","psychophysics","59","649583","0.0-7.0-1.16","9","9","key"," ","16.677310679611995","640","250","feedback","feedback","",""
"38719.799999952316",""," ","psychophysics","60","688307","0.0-7.0-0.17","9","9","key"," ","16.67443214131838","640","200","feedback","trial","59","55"
"2717.7999999523163",""," ","psychophysics","61","691027","0.0-7.0-1.17","9","9","key"," ","16.676191358025083","640","250","feedback","feedback","",""
"12911.200000047684",""," ","psychophysics","62","703945","0.0-7.0-0.18","9","9","key"," ","16.761088311688237","640","200","feedback","trial","26","27"
"1147.3999998569489",""," ","psychophysics","63","705096","0.0-7.0-1.18","9","9","key"," ","16.67400000000078","640","250","feedback","feedback","",""
"17910.400000095367",""," ","psychophysics","64","723015","0.0-7.0-0.19","9","9","key"," ","16.674636871508323","640","200","feedback","trial","70","65"
"1609",""," ","psychophysics","65","724627","0.0-7.0-1.19","9","9","key"," ","16.674000000000294","640","250","feedback","feedback","",""
