"rt","response_type","key_press","response","avg_frame_time","center_x","center_y","trial_type","trial_index","time_elapsed","internal_node_id","pid","sid","phase","guide","targ","resp","stimulus","is5","stim"
"2579","key"," "," ","16.699883116883118","500","250","psychophysics","0","2603","0.0-0.0","5ee8fdbb6b0e1325a483f9fa","61fd928f2aab9a4440b535ba","","","","","","",""
"2082","key"," "," ","16.699879999999997","500","250","psychophysics","1","4696","0.0-1.0","5ee8fdbb6b0e1325a483f9fa","61fd928f2aab9a4440b535ba","","","","","","",""
"13606","key"," "," ","16.698818181818183","500","250","psychophysics","2","18306","0.0-2.0","5ee8fdbb6b0e1325a483f9fa","61fd928f2aab9a4440b535ba","","","","","","",""
"2948","key"," "," ","16.69929545454546","500","250","psychophysics","3","21257","0.0-3.0","5ee8fdbb6b0e1325a483f9fa","61fd928f2aab9a4440b535ba","","","","","","",""
"1657","key"," "," ","16.698520408163283","500","250","psychophysics","4","22922","0.0-4.0","5ee8fdbb6b0e1325a483f9fa","61fd928f2aab9a4440b535ba","","","","","","",""
"2855","key"," "," ","16.69882456140351","500","250","psychophysics","5","25786","0.0-5.0","5ee8fdbb6b0e1325a483f9fa","61fd928f2aab9a4440b535ba","","","","","","",""
"3332","key"," "," ","16.69956281407035","500","250","psychophysics","6","29123","0.0-6.0","5ee8fdbb6b0e1325a483f9fa","61fd928f2aab9a4440b535ba","","","","","","",""
"8812","key"," "," ","16.698815939278933","500","250","psychophysics","7","37939","0.0-7.0","5ee8fdbb6b0e1325a483f9fa","61fd928f2aab9a4440b535ba","","","","","","",""
"6213","key"," "," ","16.698849056603777","500","250","psychophysics","8","44156","0.0-8.0","5ee8fdbb6b0e1325a483f9fa","61fd928f2aab9a4440b535ba","","","","","","",""
"2459","key"," "," ","16.699054421768697","500","250","psychophysics","9","46620","0.0-9.0","5ee8fdbb6b0e1325a483f9fa","61fd928f2aab9a4440b535ba","","","","","","",""
"2836","key"," "," ","16.699213017751486","500","250","psychophysics","10","49461","0.0-10.0","5ee8fdbb6b0e1325a483f9fa","61fd928f2aab9a4440b535ba","","","","","","",""
"1660","key"," "," ","16.69748979591836","500","250","psychophysics","11","51125","0.0-11.0","5ee8fdbb6b0e1325a483f9fa","61fd928f2aab9a4440b535ba","","","","","","",""
"5585","key"," "," ","16.69914071856287","500","250","psychophysics","12","56717","0.0-12.0","5ee8fdbb6b0e1325a483f9fa","61fd928f2aab9a4440b535ba","1","0","24","27","","",""
"7833","key"," "," ","16.699068230277195","500","250","psychophysics","13","64558","0.0-13.0","5ee8fdbb6b0e1325a483f9fa","61fd928f2aab9a4440b535ba","1","5","52","56","","",""
"4789","key"," "," ","16.698625874125902","500","250","psychophysics","14","69351","0.0-14.0","5ee8fdbb6b0e1325a483f9fa","61fd928f2aab9a4440b535ba","1","0","38","46","","",""
"3004","key"," "," ","16.698469273743004","500","250","psychophysics","15","72358","0.0-15.0","5ee8fdbb6b0e1325a483f9fa","61fd928f2aab9a4440b535ba","1","5","31","34","","",""
"4711","key"," "," ","16.69865124555164","500","250","psychophysics","16","77072","0.0-16.0","5ee8fdbb6b0e1325a483f9fa","61fd928f2aab9a4440b535ba","1","0","41","57","","",""
"2683","key"," "," ","16.69846874999994","500","250","psychophysics","17","79760","0.0-17.0","5ee8fdbb6b0e1325a483f9fa","61fd928f2aab9a4440b535ba","1","5","20","23","","",""
"4300","key"," "," ","16.699210116731518","500","250","psychophysics","18","84065","0.0-18.0","5ee8fdbb6b0e1325a483f9fa","61fd928f2aab9a4440b535ba","1","0","21","31","","",""
"4501","key"," "," ","16.698338289962837","500","250","psychophysics","19","88570","0.0-19.0","5ee8fdbb6b0e1325a483f9fa","61fd928f2aab9a4440b535ba","1","5","22","25","","",""
"5236","key"," "," ","16.698424920127806","500","250","psychophysics","20","93811","0.0-20.0","5ee8fdbb6b0e1325a483f9fa","61fd928f2aab9a4440b535ba","1","0","49","61","","",""
"2485","key"," "," ","16.698655405405393","500","250","psychophysics","21","96299","0.0-21.0","5ee8fdbb6b0e1325a483f9fa","61fd928f2aab9a4440b535ba","1","5","33","34","","",""
"5523","key"," "," ","16.69890000000001","500","250","psychophysics","22","101826","0.0-22.0","5ee8fdbb6b0e1325a483f9fa","61fd928f2aab9a4440b535ba","1","0","46","59","","",""
"2599","key"," "," ","16.698402597402527","500","250","psychophysics","23","104427","0.0-23.0","5ee8fdbb6b0e1325a483f9fa","61fd928f2aab9a4440b535ba","1","5","24","27","","",""
"9763","key"," "," ","16.698837328767123","500","250","psychophysics","24","114196","0.0-24.0","5ee8fdbb6b0e1325a483f9fa","61fd928f2aab9a4440b535ba","1","0","37","100","","",""
"9171","key"," "," ","16.698963570127503","500","250","psychophysics","25","123374","0.0-25.0","5ee8fdbb6b0e1325a483f9fa","61fd928f2aab9a4440b535ba","1","5","42","78","","",""
"7101","key"," "," ","16.69886320754717","500","250","psychophysics","26","130479","0.0-26.0","5ee8fdbb6b0e1325a483f9fa","61fd928f2aab9a4440b535ba","1","0","46","79","","",""
"2513","key"," "," ","16.69920000000003","500","250","psychophysics","27","132999","0.0-27.0","5ee8fdbb6b0e1325a483f9fa","61fd928f2aab9a4440b535ba","1","5","42","47","","",""
"1576","key"," "," ","16.69696808510653","500","250","psychophysics","28","134583","0.0-28.0","5ee8fdbb6b0e1325a483f9fa","61fd928f2aab9a4440b535ba","1","0","31","33","","",""
"3356","key"," "," ","16.697865671641686","500","250","psychophysics","29","137945","0.0-29.0","5ee8fdbb6b0e1325a483f9fa","61fd928f2aab9a4440b535ba","1","5","29","35","","",""
"2587","key"," "," ","16.698525974026","500","250","psychophysics","30","140535","0.0-30.0","5ee8fdbb6b0e1325a483f9fa","61fd928f2aab9a4440b535ba","1","0","31","43","","",""
"1908","key"," "," ","16.69903539823017","500","250","psychophysics","31","142447","0.0-31.0","5ee8fdbb6b0e1325a483f9fa","61fd928f2aab9a4440b535ba","1","5","40","47","","",""
"114282","key"," "," ","16.698784743533537","500","250","psychophysics","32","256732","0.0-32.0","5ee8fdbb6b0e1325a483f9fa","61fd928f2aab9a4440b535ba","","","","","","",""
"2909","key"," "," ","16.69931791907525","500","250","psychophysics","33","259645","0.0-33.0","5ee8fdbb6b0e1325a483f9fa","61fd928f2aab9a4440b535ba","","","","","","",""
"1978","key"," "," ","16.69920338983046","500","250","psychophysics","34","261629","0.0-34.0","5ee8fdbb6b0e1325a483f9fa","61fd928f2aab9a4440b535ba","","","","","","",""
"3938","key"," "," ","16.698995762711817","500","250","psychophysics","35","265575","0.0-35.0","5ee8fdbb6b0e1325a483f9fa","61fd928f2aab9a4440b535ba","2","0","30","48","","",""
"2394","key"," "," ","16.698119718310075","500","250","psychophysics","36","267975","0.0-36.0","5ee8fdbb6b0e1325a483f9fa","61fd928f2aab9a4440b535ba","","","","","","",""
"4592","key"," "," ","16.698967272727327","500","250","psychophysics","37","272574","0.0-37.0","5ee8fdbb6b0e1325a483f9fa","61fd928f2aab9a4440b535ba","2","0","46","53","","",""
"2742","key"," "," ","16.698380368098224","500","250","psychophysics","38","275319","0.0-38.0","5ee8fdbb6b0e1325a483f9fa","61fd928f2aab9a4440b535ba","","","","","","",""
"4405","key"," "," ","16.698505703422033","500","250","psychophysics","39","279727","0.0-39.0","5ee8fdbb6b0e1325a483f9fa","61fd928f2aab9a4440b535ba","2","0","28","33","","",""
"909","key"," "," ","16.701351851852248","500","250","psychophysics","40","280639","0.0-40.0","5ee8fdbb6b0e1325a483f9fa","61fd928f2aab9a4440b535ba","","","","","","",""
"4549","key"," "," ","16.698619926199264","500","250","psychophysics","41","285192","0.0-41.0","5ee8fdbb6b0e1325a483f9fa","61fd928f2aab9a4440b535ba","2","0","57","69","","",""
"1057","key"," "," ","16.69998412698485","500","250","psychophysics","42","286256","0.0-42.0","5ee8fdbb6b0e1325a483f9fa","61fd928f2aab9a4440b535ba","","","","","","",""
"3462","key"," "," ","16.69930917874388","500","250","psychophysics","43","289721","0.0-43.0","5ee8fdbb6b0e1325a483f9fa","61fd928f2aab9a4440b535ba","2","0","26","31","","",""
"901","key"," "," ","16.69916981132042","500","250","psychophysics","44","290624","0.0-44.0","5ee8fdbb6b0e1325a483f9fa","61fd928f2aab9a4440b535ba","","","","","","",""
"2861","key"," "," ","16.698247058823473","500","250","psychophysics","45","293489","0.0-45.0","5ee8fdbb6b0e1325a483f9fa","61fd928f2aab9a4440b535ba","2","0","37","40","","",""
"813","key"," "," ","16.69983333333342","500","250","psychophysics","46","294305","0.0-46.0","5ee8fdbb6b0e1325a483f9fa","61fd928f2aab9a4440b535ba","","","","","","",""
"3365","key"," "," ","16.698756218905242","500","250","psychophysics","47","297673","0.0-47.0","5ee8fdbb6b0e1325a483f9fa","61fd928f2aab9a4440b535ba","2","0","28","34","","",""
"934","key"," "," ","16.69943636363605","500","250","psychophysics","48","298609","0.0-48.0","5ee8fdbb6b0e1325a483f9fa","61fd928f2aab9a4440b535ba","","","","","","",""
"2308","key"," "," ","16.698832116788253","500","250","psychophysics","49","300922","0.0-49.0","5ee8fdbb6b0e1325a483f9fa","61fd928f2aab9a4440b535ba","2","0","27","33","","",""
"1042","key"," "," ","16.70150000000027","500","250","psychophysics","50","301970","0.0-50.0","5ee8fdbb6b0e1325a483f9fa","61fd928f2aab9a4440b535ba","","","","","","",""
"2044","key"," "," ","16.699147540983862","500","250","psychophysics","51","304018","0.0-51.0","5ee8fdbb6b0e1325a483f9fa","61fd928f2aab9a4440b535ba","2","0","35","42","","",""
"853","key"," "," ","16.698360000000104","500","250","psychophysics","52","304874","0.0-52.0","5ee8fdbb6b0e1325a483f9fa","61fd928f2aab9a4440b535ba","","","","","","",""
"1710","key"," "," ","16.699294117646858","500","250","psychophysics","53","306587","0.0-53.0","5ee8fdbb6b0e1325a483f9fa","61fd928f2aab9a4440b535ba","2","0","26","31","","",""
"988","key"," "," ","16.696258620689182","500","250","psychophysics","54","307578","0.0-54.0","5ee8fdbb6b0e1325a483f9fa","61fd928f2aab9a4440b535ba","","","","","","",""
"1959","key"," "," ","16.699086206896403","500","250","psychophysics","55","309539","0.0-55.0","5ee8fdbb6b0e1325a483f9fa","61fd928f2aab9a4440b535ba","2","0","33","33","","",""
"1178","key"," "," ","16.699842857142876","500","250","psychophysics","56","310723","0.0-56.0","5ee8fdbb6b0e1325a483f9fa","61fd928f2aab9a4440b535ba","","","","","","",""
"1521","key"," "," ","16.698571428571505","500","250","psychophysics","57","312250","0.0-57.0","5ee8fdbb6b0e1325a483f9fa","61fd928f2aab9a4440b535ba","2","0","20","23","","",""
"966","key"," "," ","16.698596491228194","500","250","psychophysics","58","313219","0.0-58.0","5ee8fdbb6b0e1325a483f9fa","61fd928f2aab9a4440b535ba","","","","","","",""
"1742","key"," "," ","16.698592233009865","500","250","psychophysics","59","314963","0.0-59.0","5ee8fdbb6b0e1325a483f9fa","61fd928f2aab9a4440b535ba","2","0","21","24","","",""
"1013","key"," "," ","16.700450000000032","500","250","psychophysics","60","315979","0.0-60.0","5ee8fdbb6b0e1325a483f9fa","61fd928f2aab9a4440b535ba","","","","","","",""
"1813","key"," "," ","16.69956481481495","500","250","psychophysics","61","317796","0.0-61.0","5ee8fdbb6b0e1325a483f9fa","61fd928f2aab9a4440b535ba","2","0","25","24","","",""
"989","key"," "," ","16.699517241379063","500","250","psychophysics","62","318788","0.0-62.0","5ee8fdbb6b0e1325a483f9fa","61fd928f2aab9a4440b535ba","","","","","","",""
"2394","key"," "," ","16.69886713286689","500","250","psychophysics","63","321188","0.0-63.0","5ee8fdbb6b0e1325a483f9fa","61fd928f2aab9a4440b535ba","2","0","31","36","","",""
"807","key"," "," ","16.699936170212705","500","250","psychophysics","64","321998","0.0-64.0","5ee8fdbb6b0e1325a483f9fa","61fd928f2aab9a4440b535ba","","","","","","",""
"2657","key"," "," ","16.699842767295745","500","250","psychophysics","65","324661","0.0-65.0","5ee8fdbb6b0e1325a483f9fa","61fd928f2aab9a4440b535ba","","","","","","",""
"1045","key"," "," ","16.697629032258487","500","250","psychophysics","66","325709","0.0-66.0","5ee8fdbb6b0e1325a483f9fa","61fd928f2aab9a4440b535ba","","","","","","",""
"3886","key"," "," ","16.69853017241383","500","250","psychophysics","67","329598","0.0-67.0","5ee8fdbb6b0e1325a483f9fa","61fd928f2aab9a4440b535ba","3","5","60","54","","",""
"2708","key"," "," ","16.698782608695748","500","250","psychophysics","68","332309","0.0-68.0","5ee8fdbb6b0e1325a483f9fa","61fd928f2aab9a4440b535ba","3","0","49","60","","",""
"2773","key"," "," ","16.698690909090818","500","250","psychophysics","69","335086","0.0-69.0","5ee8fdbb6b0e1325a483f9fa","61fd928f2aab9a4440b535ba","3","5","30","31","","",""
"2202","key"," "," ","16.69993129770986","500","250","psychophysics","70","337295","0.0-70.0","5ee8fdbb6b0e1325a483f9fa","61fd928f2aab9a4440b535ba","3","0","38","46","","",""
"2138","key"," "," ","16.69818750000013","500","250","psychophysics","71","339438","0.0-71.0","5ee8fdbb6b0e1325a483f9fa","61fd928f2aab9a4440b535ba","3","5","28","32","","",""
"2885","key"," "," ","16.69918604651168","500","250","psychophysics","72","342327","0.0-72.0","5ee8fdbb6b0e1325a483f9fa","61fd928f2aab9a4440b535ba","3","0","40","49","","",""
"2349","key"," "," ","16.69880714285703","500","250","psychophysics","73","344679","0.0-73.0","5ee8fdbb6b0e1325a483f9fa","61fd928f2aab9a4440b535ba","3","5","52","53","","",""
"1588","key"," "," ","16.69874468085138","500","250","psychophysics","74","346270","0.0-74.0","5ee8fdbb6b0e1325a483f9fa","61fd928f2aab9a4440b535ba","3","0","26","31","","",""
"1494","key"," "," ","16.70061797752788","500","250","psychophysics","75","347766","0.0-75.0","5ee8fdbb6b0e1325a483f9fa","61fd928f2aab9a4440b535ba","3","5","27","25","","",""
"3472","key"," "," ","16.69924519230755","500","250","psychophysics","76","351256","0.0-76.0","5ee8fdbb6b0e1325a483f9fa","61fd928f2aab9a4440b535ba","3","0","60","87","","",""
"2380","key"," "," ","16.698716312056533","500","250","psychophysics","77","353640","0.0-77.0","5ee8fdbb6b0e1325a483f9fa","61fd928f2aab9a4440b535ba","3","5","44","50","","",""
"2009","key"," "," ","16.698766666666778","500","250","psychophysics","78","355656","0.0-78.0","5ee8fdbb6b0e1325a483f9fa","61fd928f2aab9a4440b535ba","3","0","26","31","","",""
"2022","key"," "," ","16.69753333333356","500","250","psychophysics","79","357680","0.0-79.0","5ee8fdbb6b0e1325a483f9fa","61fd928f2aab9a4440b535ba","3","5","39","41","","",""
"2979","key"," "," ","16.699348314606723","500","250","psychophysics","80","360665","0.0-80.0","5ee8fdbb6b0e1325a483f9fa","61fd928f2aab9a4440b535ba","3","0","56","64","","",""
"2037","key"," "," ","16.697669421487646","500","250","psychophysics","81","362704","0.0-81.0","5ee8fdbb6b0e1325a483f9fa","61fd928f2aab9a4440b535ba","3","5","40","45","","",""
"3197","key"," "," ","16.699005235602144","500","250","psychophysics","82","365905","0.0-82.0","5ee8fdbb6b0e1325a483f9fa","61fd928f2aab9a4440b535ba","3","0","41","54","","",""
"2366","key"," "," ","16.699496453900817","500","250","psychophysics","83","368273","0.0-83.0","5ee8fdbb6b0e1325a483f9fa","61fd928f2aab9a4440b535ba","3","5","43","54","","",""
"7030","key"," "," ","16.698847619047626","500","250","psychophysics","84","375306","0.0-84.0","5ee8fdbb6b0e1325a483f9fa","61fd928f2aab9a4440b535ba","3","0","58","73","","",""
"1868","key"," "," ","16.69772072072059","500","250","psychophysics","85","377178","0.0-85.0","5ee8fdbb6b0e1325a483f9fa","61fd928f2aab9a4440b535ba","3","5","31","38","","",""
"4247","key"," "," ","16.699446640316058","500","250","psychophysics","86","381426","0.0-86.0","5ee8fdbb6b0e1325a483f9fa","61fd928f2aab9a4440b535ba","3","0","55","59","","",""
"1428","key"," "," ","16.699635294117446","500","250","psychophysics","87","382860","0.0-87.0","5ee8fdbb6b0e1325a483f9fa","61fd928f2aab9a4440b535ba","","","","","","",""
"17904","","","v","","","","html-keyboard-response","88","400766","0.0-88.0","5ee8fdbb6b0e1325a483f9fa","61fd928f2aab9a4440b535ba","","","","","<p> In this part of the experiment, we are going present digits 1, 2, 3, 4, 6, 7, 8, and 9.  Notice that 5 is missing.  Your job is to say whether the presented digit is less than or greater than 5.  For example, 3 is less than 5 and 7 is greater than 5.  If the digit is less than 5, press the v key; if it is greater than 5, press the n key. We are going to do 200 of these in total, but only 50 righ now. They go real fast.</p>  <br><br>  Ready? (press v or n)","",""
"2570","key","n","n","16.709220779220974","500","250","psychophysics","89","403349","0.0-89.0","5ee8fdbb6b0e1325a483f9fa","61fd928f2aab9a4440b535ba","4","","","","","1","7"
"null","","","null","","","","html-keyboard-response","90","403851","0.0-90.0","5ee8fdbb6b0e1325a483f9fa","61fd928f2aab9a4440b535ba","","","","","<p style=""color:darkgreen;font-size:24px;"">Correct :)</p>","",""
"2564","key","v","v","16.809052287581533","500","250","psychophysics","91","406422","0.0-91.0","5ee8fdbb6b0e1325a483f9fa","61fd928f2aab9a4440b535ba","4","","","","","1","1"
"null","","","null","","","","html-keyboard-response","92","406936","0.0-92.0","5ee8fdbb6b0e1325a483f9fa","61fd928f2aab9a4440b535ba","","","","","<p style=""color:darkgreen;font-size:24px;"">Correct :)</p>","",""
"2498","key","n","n","16.704159999999682","500","250","psychophysics","93","409439","0.0-93.0","5ee8fdbb6b0e1325a483f9fa","61fd928f2aab9a4440b535ba","4","","","","","1","9"
"null","","","null","","","","html-keyboard-response","94","409940","0.0-94.0","5ee8fdbb6b0e1325a483f9fa","61fd928f2aab9a4440b535ba","","","","","<p style=""color:darkgreen;font-size:24px;"">Correct :)</p>","",""
"2429","key","n","n","16.70379452054805","500","250","psychophysics","95","412374","0.0-95.0","5ee8fdbb6b0e1325a483f9fa","61fd928f2aab9a4440b535ba","4","","","","","1","9"
"null","","","null","","","","html-keyboard-response","96","412876","0.0-96.0","5ee8fdbb6b0e1325a483f9fa","61fd928f2aab9a4440b535ba","","","","","<p style=""color:darkgreen;font-size:24px;"">Correct :)</p>","",""
"2477","key","n","n","16.704047297297056","500","250","psychophysics","97","415358","0.0-97.0","5ee8fdbb6b0e1325a483f9fa","61fd928f2aab9a4440b535ba","4","","","","","1","7"
"null","","","null","","","","html-keyboard-response","98","415861","0.0-98.0","5ee8fdbb6b0e1325a483f9fa","61fd928f2aab9a4440b535ba","","","","","<p style=""color:darkgreen;font-size:24px;"">Correct :)</p>","",""
"2357","key","n","n","16.705723404255615","500","250","psychophysics","99","418223","0.0-99.0","5ee8fdbb6b0e1325a483f9fa","61fd928f2aab9a4440b535ba","4","","","","","1","7"
"null","","","null","","","","html-keyboard-response","100","418725","0.0-100.0","5ee8fdbb6b0e1325a483f9fa","61fd928f2aab9a4440b535ba","","","","","<p style=""color:darkgreen;font-size:24px;"">Correct :)</p>","",""
"2447","key","n","n","16.704843537415123","500","250","psychophysics","101","421176","0.0-101.0","5ee8fdbb6b0e1325a483f9fa","61fd928f2aab9a4440b535ba","4","","","","","1","8"
"null","","","null","","","","html-keyboard-response","102","421678","0.0-102.0","5ee8fdbb6b0e1325a483f9fa","61fd928f2aab9a4440b535ba","","","","","<p style=""color:darkgreen;font-size:24px;"">Correct :)</p>","",""
"2469","key","n","n","16.704439189189078","500","250","psychophysics","103","424152","0.0-103.0","5ee8fdbb6b0e1325a483f9fa","61fd928f2aab9a4440b535ba","4","","","","","1","9"
"null","","","null","","","","html-keyboard-response","104","424654","0.0-104.0","5ee8fdbb6b0e1325a483f9fa","61fd928f2aab9a4440b535ba","","","","","<p style=""color:darkgreen;font-size:24px;"">Correct :)</p>","",""
"2515","key","v","v","16.704854304635504","500","250","psychophysics","105","427176","0.0-105.0","5ee8fdbb6b0e1325a483f9fa","61fd928f2aab9a4440b535ba","4","","","","","1","1"
"null","","","null","","","","html-keyboard-response","106","427679","0.0-106.0","5ee8fdbb6b0e1325a483f9fa","61fd928f2aab9a4440b535ba","","","","","<p style=""color:darkgreen;font-size:24px;"">Correct :)</p>","",""
"2349","key","v","v","16.70545390070951","500","250","psychophysics","107","430032","0.0-107.0","5ee8fdbb6b0e1325a483f9fa","61fd928f2aab9a4440b535ba","4","","","","","1","1"
"null","","","null","","","","html-keyboard-response","108","430535","0.0-108.0","5ee8fdbb6b0e1325a483f9fa","61fd928f2aab9a4440b535ba","","","","","<p style=""color:darkgreen;font-size:24px;"">Correct :)</p>","",""
"2412","key","n","n","16.70437241379324","500","250","psychophysics","109","432953","0.0-109.0","5ee8fdbb6b0e1325a483f9fa","61fd928f2aab9a4440b535ba","4","","","","","1","9"
"null","","","null","","","","html-keyboard-response","110","433456","0.0-110.0","5ee8fdbb6b0e1325a483f9fa","61fd928f2aab9a4440b535ba","","","","","<p style=""color:darkgreen;font-size:24px;"">Correct :)</p>","",""
"2415","key","n","n","16.705813793103403","500","250","psychophysics","111","435881","0.0-111.0","5ee8fdbb6b0e1325a483f9fa","61fd928f2aab9a4440b535ba","4","","","","","1","7"
"null","","","null","","","","html-keyboard-response","112","436384","0.0-112.0","5ee8fdbb6b0e1325a483f9fa","61fd928f2aab9a4440b535ba","","","","","<p style=""color:darkgreen;font-size:24px;"">Correct :)</p>","",""
"2381","key","n","n","16.704612676056698","500","250","psychophysics","113","438769","0.0-113.0","5ee8fdbb6b0e1325a483f9fa","61fd928f2aab9a4440b535ba","4","","","","","1","9"
"null","","","null","","","","html-keyboard-response","114","439272","0.0-114.0","5ee8fdbb6b0e1325a483f9fa","61fd928f2aab9a4440b535ba","","","","","<p style=""color:darkgreen;font-size:24px;"">Correct :)</p>","",""
"2419","key","n","n","16.7038206896552","500","250","psychophysics","115","441698","0.0-115.0","5ee8fdbb6b0e1325a483f9fa","61fd928f2aab9a4440b535ba","4","","","","","1","7"
"null","","","null","","","","html-keyboard-response","116","442200","0.0-116.0","5ee8fdbb6b0e1325a483f9fa","61fd928f2aab9a4440b535ba","","","","","<p style=""color:darkgreen;font-size:24px;"">Correct :)</p>","",""
"2718","key","n","n","16.703300613496793","500","250","psychophysics","117","444923","0.0-117.0","5ee8fdbb6b0e1325a483f9fa","61fd928f2aab9a4440b535ba","4","","","","","1","6"
"null","","","null","","","","html-keyboard-response","118","445425","0.0-118.0","5ee8fdbb6b0e1325a483f9fa","61fd928f2aab9a4440b535ba","","","","","<p style=""color:darkgreen;font-size:24px;"">Correct :)</p>","",""
"2411","key","v","v","16.70459310344846","500","250","psychophysics","119","447843","0.0-119.0","5ee8fdbb6b0e1325a483f9fa","61fd928f2aab9a4440b535ba","4","","","","","1","3"
"null","","","null","","","","html-keyboard-response","120","448345","0.0-120.0","5ee8fdbb6b0e1325a483f9fa","61fd928f2aab9a4440b535ba","","","","","<p style=""color:darkgreen;font-size:24px;"">Correct :)</p>","",""
"2414","key","n","n","16.705303448275664","500","250","psychophysics","121","450763","0.0-121.0","5ee8fdbb6b0e1325a483f9fa","61fd928f2aab9a4440b535ba","4","","","","","1","7"
"null","","","null","","","","html-keyboard-response","122","451265","0.0-122.0","5ee8fdbb6b0e1325a483f9fa","61fd928f2aab9a4440b535ba","","","","","<p style=""color:darkgreen;font-size:24px;"">Correct :)</p>","",""
"2510","key","v","v","16.703580000000073","500","250","psychophysics","123","453779","0.0-123.0","5ee8fdbb6b0e1325a483f9fa","61fd928f2aab9a4440b535ba","4","","","","","1","4"
"null","","","null","","","","html-keyboard-response","124","454281","0.0-124.0","5ee8fdbb6b0e1325a483f9fa","61fd928f2aab9a4440b535ba","","","","","<p style=""color:darkgreen;font-size:24px;"">Correct :)</p>","",""
"2548","key","v","v","16.704986928104653","500","250","psychophysics","125","456836","0.0-125.0","5ee8fdbb6b0e1325a483f9fa","61fd928f2aab9a4440b535ba","4","","","","","1","1"
"null","","","null","","","","html-keyboard-response","126","457338","0.0-126.0","5ee8fdbb6b0e1325a483f9fa","61fd928f2aab9a4440b535ba","","","","","<p style=""color:darkgreen;font-size:24px;"">Correct :)</p>","",""
"2545","key","v","v","16.70429411764733","500","250","psychophysics","127","459892","0.0-127.0","5ee8fdbb6b0e1325a483f9fa","61fd928f2aab9a4440b535ba","4","","","","","1","4"
"null","","","null","","","","html-keyboard-response","128","460394","0.0-128.0","5ee8fdbb6b0e1325a483f9fa","61fd928f2aab9a4440b535ba","","","","","<p style=""color:darkgreen;font-size:24px;"">Correct :)</p>","",""
"2560","key","n","n","16.640302631578955","500","250","psychophysics","129","462956","0.0-129.0","5ee8fdbb6b0e1325a483f9fa","61fd928f2aab9a4440b535ba","4","","","","","1","9"
"null","","","null","","","","html-keyboard-response","130","463458","0.0-130.0","5ee8fdbb6b0e1325a483f9fa","61fd928f2aab9a4440b535ba","","","","","<p style=""color:darkgreen;font-size:24px;"">Correct :)</p>","",""
"2466","key","v","v","16.70466216216202","500","250","psychophysics","131","465933","0.0-131.0","5ee8fdbb6b0e1325a483f9fa","61fd928f2aab9a4440b535ba","4","","","","","1","3"
"null","","","null","","","","html-keyboard-response","132","466446","0.0-132.0","5ee8fdbb6b0e1325a483f9fa","61fd928f2aab9a4440b535ba","","","","","<p style=""color:darkgreen;font-size:24px;"">Correct :)</p>","",""
"2459","key","n","n","16.704707482993225","500","250","psychophysics","133","468910","0.0-133.0","5ee8fdbb6b0e1325a483f9fa","61fd928f2aab9a4440b535ba","4","","","","","1","8"
"null","","","null","","","","html-keyboard-response","134","469411","0.0-134.0","5ee8fdbb6b0e1325a483f9fa","61fd928f2aab9a4440b535ba","","","","","<p style=""color:darkgreen;font-size:24px;"">Correct :)</p>","",""
"2471","key","v","v","16.705560810810876","500","250","psychophysics","135","471887","0.0-135.0","5ee8fdbb6b0e1325a483f9fa","61fd928f2aab9a4440b535ba","4","","","","","1","2"
"null","","","null","","","","html-keyboard-response","136","472402","0.0-136.0","5ee8fdbb6b0e1325a483f9fa","61fd928f2aab9a4440b535ba","","","","","<p style=""color:darkgreen;font-size:24px;"">Correct :)</p>","",""
"2607","key","v","v","16.70497435897414","500","250","psychophysics","137","475014","0.0-137.0","5ee8fdbb6b0e1325a483f9fa","61fd928f2aab9a4440b535ba","4","","","","","1","3"
"null","","","null","","","","html-keyboard-response","138","475525","0.0-138.0","5ee8fdbb6b0e1325a483f9fa","61fd928f2aab9a4440b535ba","","","","","<p style=""color:darkgreen;font-size:24px;"">Correct :)</p>","",""
"2470","key","v","v","16.70454054054052","500","250","psychophysics","139","477999","0.0-139.0","5ee8fdbb6b0e1325a483f9fa","61fd928f2aab9a4440b535ba","4","","","","","1","2"
"null","","","null","","","","html-keyboard-response","140","478502","0.0-140.0","5ee8fdbb6b0e1325a483f9fa","61fd928f2aab9a4440b535ba","","","","","<p style=""color:darkgreen;font-size:24px;"">Correct :)</p>","",""
"2467","key","v","v","16.704756756756783","500","250","psychophysics","141","480975","0.0-141.0","5ee8fdbb6b0e1325a483f9fa","61fd928f2aab9a4440b535ba","4","","","","","1","3"
"null","","","null","","","","html-keyboard-response","142","481477","0.0-142.0","5ee8fdbb6b0e1325a483f9fa","61fd928f2aab9a4440b535ba","","","","","<p style=""color:darkgreen;font-size:24px;"">Correct :)</p>","",""
"2494","key","v","v","16.705496644295344","500","250","psychophysics","143","483975","0.0-143.0","5ee8fdbb6b0e1325a483f9fa","61fd928f2aab9a4440b535ba","4","","","","","1","1"
"null","","","null","","","","html-keyboard-response","144","484478","0.0-144.0","5ee8fdbb6b0e1325a483f9fa","61fd928f2aab9a4440b535ba","","","","","<p style=""color:darkgreen;font-size:24px;"">Correct :)</p>","",""
"2487","key","n","n","16.704208053691445","500","250","psychophysics","145","486975","0.0-145.0","5ee8fdbb6b0e1325a483f9fa","61fd928f2aab9a4440b535ba","4","","","","","1","7"
"null","","","null","","","","html-keyboard-response","146","487477","0.0-146.0","5ee8fdbb6b0e1325a483f9fa","61fd928f2aab9a4440b535ba","","","","","<p style=""color:darkgreen;font-size:24px;"">Correct :)</p>","",""
"2486","key","n","n","16.704181208053758","500","250","psychophysics","147","489968","0.0-147.0","5ee8fdbb6b0e1325a483f9fa","61fd928f2aab9a4440b535ba","4","","","","","1","4"
"null","","","null","","","","html-keyboard-response","148","490471","0.0-148.0","5ee8fdbb6b0e1325a483f9fa","61fd928f2aab9a4440b535ba","","","","","<p style=""color:red;font-size:24px;"">Error :(</p>","",""
"2397","key","n","n","16.70504195804193","500","250","psychophysics","149","492873","0.0-149.0","5ee8fdbb6b0e1325a483f9fa","61fd928f2aab9a4440b535ba","4","","","","","1","9"
"null","","","null","","","","html-keyboard-response","150","493374","0.0-150.0","5ee8fdbb6b0e1325a483f9fa","61fd928f2aab9a4440b535ba","","","","","<p style=""color:darkgreen;font-size:24px;"">Correct :)</p>","",""
"2618","key","n","n","16.70503184713377","500","250","psychophysics","151","496001","0.0-151.0","5ee8fdbb6b0e1325a483f9fa","61fd928f2aab9a4440b535ba","4","","","","","1","7"
"null","","","null","","","","html-keyboard-response","152","496503","0.0-152.0","5ee8fdbb6b0e1325a483f9fa","61fd928f2aab9a4440b535ba","","","","","<p style=""color:darkgreen;font-size:24px;"">Correct :)</p>","",""
"2605","key","n","n","16.70466666666676","500","250","psychophysics","153","499113","0.0-153.0","5ee8fdbb6b0e1325a483f9fa","61fd928f2aab9a4440b535ba","4","","","","","1","9"
"null","","","null","","","","html-keyboard-response","154","499615","0.0-154.0","5ee8fdbb6b0e1325a483f9fa","61fd928f2aab9a4440b535ba","","","","","<p style=""color:darkgreen;font-size:24px;"">Correct :)</p>","",""
"2493","key","n","n","16.704719999999895","500","250","psychophysics","155","502113","0.0-155.0","5ee8fdbb6b0e1325a483f9fa","61fd928f2aab9a4440b535ba","4","","","","","1","8"
"null","","","null","","","","html-keyboard-response","156","502615","0.0-156.0","5ee8fdbb6b0e1325a483f9fa","61fd928f2aab9a4440b535ba","","","","","<p style=""color:darkgreen;font-size:24px;"">Correct :)</p>","",""
"2451","key","n","n","16.704972789115605","500","250","psychophysics","157","505074","0.0-157.0","5ee8fdbb6b0e1325a483f9fa","61fd928f2aab9a4440b535ba","4","","","","","1","7"
"null","","","null","","","","html-keyboard-response","158","505576","0.0-158.0","5ee8fdbb6b0e1325a483f9fa","61fd928f2aab9a4440b535ba","","","","","<p style=""color:darkgreen;font-size:24px;"">Correct :)</p>","",""
"2477","key","v","v","16.704959731543557","500","250","psychophysics","159","508058","0.0-159.0","5ee8fdbb6b0e1325a483f9fa","61fd928f2aab9a4440b535ba","4","","","","","1","1"
"null","","","null","","","","html-keyboard-response","160","508560","0.0-160.0","5ee8fdbb6b0e1325a483f9fa","61fd928f2aab9a4440b535ba","","","","","<p style=""color:darkgreen;font-size:24px;"">Correct :)</p>","",""
"2417","key","n","n","16.70549655172388","500","250","psychophysics","161","510986","0.0-161.0","5ee8fdbb6b0e1325a483f9fa","61fd928f2aab9a4440b535ba","4","","","","","1","6"
"null","","","null","","","","html-keyboard-response","162","511488","0.0-162.0","5ee8fdbb6b0e1325a483f9fa","61fd928f2aab9a4440b535ba","","","","","<p style=""color:darkgreen;font-size:24px;"">Correct :)</p>","",""
"2470","key","n","n","16.70499324324349","500","250","psychophysics","163","513963","0.0-163.0","5ee8fdbb6b0e1325a483f9fa","61fd928f2aab9a4440b535ba","4","","","","","1","8"
"null","","","null","","","","html-keyboard-response","164","514464","0.0-164.0","5ee8fdbb6b0e1325a483f9fa","61fd928f2aab9a4440b535ba","","","","","<p style=""color:darkgreen;font-size:24px;"">Correct :)</p>","",""
"2572","key","n","n","16.703232258064446","500","250","psychophysics","165","517044","0.0-165.0","5ee8fdbb6b0e1325a483f9fa","61fd928f2aab9a4440b535ba","4","","","","","1","8"
"null","","","null","","","","html-keyboard-response","166","517546","0.0-166.0","5ee8fdbb6b0e1325a483f9fa","61fd928f2aab9a4440b535ba","","","","","<p style=""color:darkgreen;font-size:24px;"">Correct :)</p>","",""
"2466","key","n","n","16.704770270270544","500","250","psychophysics","167","520019","0.0-167.0","5ee8fdbb6b0e1325a483f9fa","61fd928f2aab9a4440b535ba","4","","","","","1","7"
"null","","","null","","","","html-keyboard-response","168","520521","0.0-168.0","5ee8fdbb6b0e1325a483f9fa","61fd928f2aab9a4440b535ba","","","","","<p style=""color:darkgreen;font-size:24px;"">Correct :)</p>","",""
"2702","key","v","v","16.70377777777806","500","250","psychophysics","169","523228","0.0-169.0","5ee8fdbb6b0e1325a483f9fa","61fd928f2aab9a4440b535ba","4","","","","","1","2"
"null","","","null","","","","html-keyboard-response","170","523730","0.0-170.0","5ee8fdbb6b0e1325a483f9fa","61fd928f2aab9a4440b535ba","","","","","<p style=""color:darkgreen;font-size:24px;"">Correct :)</p>","",""
"2445","key","n","n","16.70523129251697","500","250","psychophysics","171","526180","0.0-171.0","5ee8fdbb6b0e1325a483f9fa","61fd928f2aab9a4440b535ba","4","","","","","1","7"
"null","","","null","","","","html-keyboard-response","172","526683","0.0-172.0","5ee8fdbb6b0e1325a483f9fa","61fd928f2aab9a4440b535ba","","","","","<p style=""color:darkgreen;font-size:24px;"">Correct :)</p>","",""
"2621","key","v","v","16.703312101911095","500","250","psychophysics","173","529309","0.0-173.0","5ee8fdbb6b0e1325a483f9fa","61fd928f2aab9a4440b535ba","4","","","","","1","3"
"null","","","null","","","","html-keyboard-response","174","529811","0.0-174.0","5ee8fdbb6b0e1325a483f9fa","61fd928f2aab9a4440b535ba","","","","","<p style=""color:darkgreen;font-size:24px;"">Correct :)</p>","",""
"2599","key","n","n","16.692597402597613","500","250","psychophysics","175","532413","0.0-175.0","5ee8fdbb6b0e1325a483f9fa","61fd928f2aab9a4440b535ba","4","","","","","1","9"
"null","","","null","","","","html-keyboard-response","176","532915","0.0-176.0","5ee8fdbb6b0e1325a483f9fa","61fd928f2aab9a4440b535ba","","","","","<p style=""color:darkgreen;font-size:24px;"">Correct :)</p>","",""
"2466","key","n","n","16.70439864864897","500","250","psychophysics","177","535390","0.0-177.0","5ee8fdbb6b0e1325a483f9fa","61fd928f2aab9a4440b535ba","4","","","","","1","7"
"null","","","null","","","","html-keyboard-response","178","535893","0.0-178.0","5ee8fdbb6b0e1325a483f9fa","61fd928f2aab9a4440b535ba","","","","","<p style=""color:darkgreen;font-size:24px;"">Correct :)</p>","",""
"2435","key","n","n","16.70554109589015","500","250","psychophysics","179","538333","0.0-179.0","5ee8fdbb6b0e1325a483f9fa","61fd928f2aab9a4440b535ba","4","","","","","1","7"
"null","","","null","","","","html-keyboard-response","180","538835","0.0-180.0","5ee8fdbb6b0e1325a483f9fa","61fd928f2aab9a4440b535ba","","","","","<p style=""color:darkgreen;font-size:24px;"">Correct :)</p>","",""
"2567","key","n","n","16.703636363636274","500","250","psychophysics","181","541407","0.0-181.0","5ee8fdbb6b0e1325a483f9fa","61fd928f2aab9a4440b535ba","4","","","","","1","3"
"null","","","null","","","","html-keyboard-response","182","541908","0.0-182.0","5ee8fdbb6b0e1325a483f9fa","61fd928f2aab9a4440b535ba","","","","","<p style=""color:red;font-size:24px;"">Error :(</p>","",""
"3025","key","v","v","16.703736263736673","500","250","psychophysics","183","544943","0.0-183.0","5ee8fdbb6b0e1325a483f9fa","61fd928f2aab9a4440b535ba","4","","","","","1","2"
"null","","","null","","","","html-keyboard-response","184","545446","0.0-184.0","5ee8fdbb6b0e1325a483f9fa","61fd928f2aab9a4440b535ba","","","","","<p style=""color:darkgreen;font-size:24px;"">Correct :)</p>","",""
"2740","key","v","v","16.704140243902035","500","250","psychophysics","185","548191","0.0-185.0","5ee8fdbb6b0e1325a483f9fa","61fd928f2aab9a4440b535ba","4","","","","","1","1"
"null","","","null","","","","html-keyboard-response","186","548693","0.0-186.0","5ee8fdbb6b0e1325a483f9fa","61fd928f2aab9a4440b535ba","","","","","<p style=""color:darkgreen;font-size:24px;"">Correct :)</p>","",""
"2510","key","n","n","16.70478807946988","500","250","psychophysics","187","551207","0.0-187.0","5ee8fdbb6b0e1325a483f9fa","61fd928f2aab9a4440b535ba","4","","","","","1","7"
"null","","","null","","","","html-keyboard-response","188","551709","0.0-188.0","5ee8fdbb6b0e1325a483f9fa","61fd928f2aab9a4440b535ba","","","","","<p style=""color:darkgreen;font-size:24px;"">Correct :)</p>","",""
"9778","","","n","","","","html-keyboard-response","189","561490","0.0-189.0","5ee8fdbb6b0e1325a483f9fa","61fd928f2aab9a4440b535ba","","","","","<p> Ok, now we are going present the same digits as before.  Your job is to say whether the digit is even or odd  If the digit is odd, press to v key; if it is even, press the n key. We are going to do 50 of these.  </p>  <br><br>  Ready? (press v or n)","",""
"3432","key","n","n","16.710204878049083","500","250","psychophysics","190","564928","0.0-190.0","5ee8fdbb6b0e1325a483f9fa","61fd928f2aab9a4440b535ba","5","","","","","0","2"
"null","","","null","","","","html-keyboard-response","191","565431","0.0-191.0","5ee8fdbb6b0e1325a483f9fa","61fd928f2aab9a4440b535ba","","","","","<p style=""color:darkgreen;font-size:24px;"">Correct :)</p>","",""
"2667","key","v","v","16.704031250000117","500","250","psychophysics","192","568105","0.0-192.0","5ee8fdbb6b0e1325a483f9fa","61fd928f2aab9a4440b535ba","5","","","","","0","3"
"null","","","null","","","","html-keyboard-response","193","568609","0.0-193.0","5ee8fdbb6b0e1325a483f9fa","61fd928f2aab9a4440b535ba","","","","","<p style=""color:darkgreen;font-size:24px;"">Correct :)</p>","",""
"2514","key","n","n","16.704311258278306","500","250","psychophysics","194","571130","0.0-194.0","5ee8fdbb6b0e1325a483f9fa","61fd928f2aab9a4440b535ba","5","","","","","0","8"
"null","","","null","","","","html-keyboard-response","195","571631","0.0-195.0","5ee8fdbb6b0e1325a483f9fa","61fd928f2aab9a4440b535ba","","","","","<p style=""color:darkgreen;font-size:24px;"">Correct :)</p>","",""
"2910","key","v","v","16.704293103448393","500","250","psychophysics","196","574546","0.0-196.0","5ee8fdbb6b0e1325a483f9fa","61fd928f2aab9a4440b535ba","5","","","","","0","1"
"null","","","null","","","","html-keyboard-response","197","575047","0.0-197.0","5ee8fdbb6b0e1325a483f9fa","61fd928f2aab9a4440b535ba","","","","","<p style=""color:darkgreen;font-size:24px;"">Correct :)</p>","",""
"2635","key","v","v","16.705265822784998","500","250","psychophysics","198","577691","0.0-198.0","5ee8fdbb6b0e1325a483f9fa","61fd928f2aab9a4440b535ba","5","","","","","0","1"
"null","","","null","","","","html-keyboard-response","199","578193","0.0-199.0","5ee8fdbb6b0e1325a483f9fa","61fd928f2aab9a4440b535ba","","","","","<p style=""color:darkgreen;font-size:24px;"">Correct :)</p>","",""
"2469","key","n","n","16.703763513513557","500","250","psychophysics","200","580666","0.0-200.0","5ee8fdbb6b0e1325a483f9fa","61fd928f2aab9a4440b535ba","5","","","","","0","7"
"null","","","null","","","","html-keyboard-response","201","581170","0.0-201.0","5ee8fdbb6b0e1325a483f9fa","61fd928f2aab9a4440b535ba","","","","","<p style=""color:red;font-size:24px;"">Error :(</p>","",""
"2844","key","v","v","16.70383625730943","500","250","psychophysics","202","584019","0.0-202.0","5ee8fdbb6b0e1325a483f9fa","61fd928f2aab9a4440b535ba","5","","","","","0","9"
"null","","","null","","","","html-keyboard-response","203","584521","0.0-203.0","5ee8fdbb6b0e1325a483f9fa","61fd928f2aab9a4440b535ba","","","","","<p style=""color:darkgreen;font-size:24px;"">Correct :)</p>","",""
"2470","key","v","v","16.70400675675734","500","250","psychophysics","204","586996","0.0-204.0","5ee8fdbb6b0e1325a483f9fa","61fd928f2aab9a4440b535ba","5","","","","","0","3"
"null","","","null","","","","html-keyboard-response","205","587498","0.0-205.0","5ee8fdbb6b0e1325a483f9fa","61fd928f2aab9a4440b535ba","","","","","<p style=""color:darkgreen;font-size:24px;"">Correct :)</p>","",""
"2532","key","n","n","16.7054013157896","500","250","psychophysics","206","590035","0.0-206.0","5ee8fdbb6b0e1325a483f9fa","61fd928f2aab9a4440b535ba","5","","","","","0","2"
"null","","","null","","","","html-keyboard-response","207","590537","0.0-207.0","5ee8fdbb6b0e1325a483f9fa","61fd928f2aab9a4440b535ba","","","","","<p style=""color:darkgreen;font-size:24px;"">Correct :)</p>","",""
"2894","key","v","v","16.70333333333336","500","250","psychophysics","208","593436","0.0-208.0","5ee8fdbb6b0e1325a483f9fa","61fd928f2aab9a4440b535ba","5","","","","","0","3"
"null","","","null","","","","html-keyboard-response","209","593939","0.0-209.0","5ee8fdbb6b0e1325a483f9fa","61fd928f2aab9a4440b535ba","","","","","<p style=""color:darkgreen;font-size:24px;"">Correct :)</p>","",""
"2912","key","v","v","16.70396571428515","500","250","psychophysics","210","596861","0.0-210.0","5ee8fdbb6b0e1325a483f9fa","61fd928f2aab9a4440b535ba","5","","","","","0","3"
"null","","","null","","","","html-keyboard-response","211","597363","0.0-211.0","5ee8fdbb6b0e1325a483f9fa","61fd928f2aab9a4440b535ba","","","","","<p style=""color:darkgreen;font-size:24px;"">Correct :)</p>","",""
"2709","key","n","n","16.703666666667065","500","250","psychophysics","212","600077","0.0-212.0","5ee8fdbb6b0e1325a483f9fa","61fd928f2aab9a4440b535ba","5","","","","","0","4"
"null","","","null","","","","html-keyboard-response","213","600580","0.0-213.0","5ee8fdbb6b0e1325a483f9fa","61fd928f2aab9a4440b535ba","","","","","<p style=""color:darkgreen;font-size:24px;"">Correct :)</p>","",""
"2628","key","v","v","16.70443037974713","500","250","psychophysics","214","603213","0.0-214.0","5ee8fdbb6b0e1325a483f9fa","61fd928f2aab9a4440b535ba","5","","","","","0","3"
"null","","","null","","","","html-keyboard-response","215","603729","0.0-215.0","5ee8fdbb6b0e1325a483f9fa","61fd928f2aab9a4440b535ba","","","","","<p style=""color:darkgreen;font-size:24px;"">Correct :)</p>","",""
"2760","key","v","v","16.703716867469414","500","250","psychophysics","216","606494","0.0-216.0","5ee8fdbb6b0e1325a483f9fa","61fd928f2aab9a4440b535ba","5","","","","","0","2"
"null","","","null","","","","html-keyboard-response","217","607008","0.0-217.0","5ee8fdbb6b0e1325a483f9fa","61fd928f2aab9a4440b535ba","","","","","<p style=""color:red;font-size:24px;"">Error :(</p>","",""
"2457","key","n","n","16.704999999999778","500","250","psychophysics","218","609470","0.0-218.0","5ee8fdbb6b0e1325a483f9fa","61fd928f2aab9a4440b535ba","5","","","","","0","8"
"null","","","null","","","","html-keyboard-response","219","609972","0.0-219.0","5ee8fdbb6b0e1325a483f9fa","61fd928f2aab9a4440b535ba","","","","","<p style=""color:darkgreen;font-size:24px;"">Correct :)</p>","",""
"2623","key","n","n","16.703898089171897","500","250","psychophysics","220","612599","0.0-220.0","5ee8fdbb6b0e1325a483f9fa","61fd928f2aab9a4440b535ba","5","","","","","0","6"
"null","","","null","","","","html-keyboard-response","221","613100","0.0-221.0","5ee8fdbb6b0e1325a483f9fa","61fd928f2aab9a4440b535ba","","","","","<p style=""color:darkgreen;font-size:24px;"">Correct :)</p>","",""
"2598","key","n","n","16.704782051282027","500","250","psychophysics","222","615703","0.0-222.0","5ee8fdbb6b0e1325a483f9fa","61fd928f2aab9a4440b535ba","5","","","","","0","8"
"null","","","null","","","","html-keyboard-response","223","616205","0.0-223.0","5ee8fdbb6b0e1325a483f9fa","61fd928f2aab9a4440b535ba","","","","","<p style=""color:darkgreen;font-size:24px;"">Correct :)</p>","",""
"2693","key","v","v","16.70403086419726","500","250","psychophysics","224","618903","0.0-224.0","5ee8fdbb6b0e1325a483f9fa","61fd928f2aab9a4440b535ba","5","","","","","0","9"
"null","","","null","","","","html-keyboard-response","225","619405","0.0-225.0","5ee8fdbb6b0e1325a483f9fa","61fd928f2aab9a4440b535ba","","","","","<p style=""color:darkgreen;font-size:24px;"">Correct :)</p>","",""
"2699","key","n","n","16.703654320987464","500","250","psychophysics","226","622111","0.0-226.0","5ee8fdbb6b0e1325a483f9fa","61fd928f2aab9a4440b535ba","5","","","","","0","6"
"null","","","null","","","","html-keyboard-response","227","622613","0.0-227.0","5ee8fdbb6b0e1325a483f9fa","61fd928f2aab9a4440b535ba","","","","","<p style=""color:darkgreen;font-size:24px;"">Correct :)</p>","",""
"3215","key","n","n","16.703046632124778","500","250","psychophysics","228","625833","0.0-228.0","5ee8fdbb6b0e1325a483f9fa","61fd928f2aab9a4440b535ba","5","","","","","0","6"
"null","","","null","","","","html-keyboard-response","229","626335","0.0-229.0","5ee8fdbb6b0e1325a483f9fa","61fd928f2aab9a4440b535ba","","","","","<p style=""color:darkgreen;font-size:24px;"">Correct :)</p>","",""
"2549","key","v","v","16.704006535947638","500","250","psychophysics","230","628888","0.0-230.0","5ee8fdbb6b0e1325a483f9fa","61fd928f2aab9a4440b535ba","5","","","","","0","3"
"null","","","null","","","","html-keyboard-response","231","629391","0.0-231.0","5ee8fdbb6b0e1325a483f9fa","61fd928f2aab9a4440b535ba","","","","","<p style=""color:darkgreen;font-size:24px;"">Correct :)</p>","",""
"3093","key","v","v","16.703210810810404","500","250","psychophysics","232","632488","0.0-232.0","5ee8fdbb6b0e1325a483f9fa","61fd928f2aab9a4440b535ba","5","","","","","0","9"
"null","","","null","","","","html-keyboard-response","233","632990","0.0-233.0","5ee8fdbb6b0e1325a483f9fa","61fd928f2aab9a4440b535ba","","","","","<p style=""color:darkgreen;font-size:24px;"">Correct :)</p>","",""
"2749","key","v","v","16.703842424242193","500","250","psychophysics","234","635745","0.0-234.0","5ee8fdbb6b0e1325a483f9fa","61fd928f2aab9a4440b535ba","5","","","","","0","7"
"null","","","null","","","","html-keyboard-response","235","636247","0.0-235.0","5ee8fdbb6b0e1325a483f9fa","61fd928f2aab9a4440b535ba","","","","","<p style=""color:darkgreen;font-size:24px;"">Correct :)</p>","",""
"2761","key","v","v","16.703506024096423","500","250","psychophysics","236","639018","0.0-236.0","5ee8fdbb6b0e1325a483f9fa","61fd928f2aab9a4440b535ba","5","","","","","0","7"
"null","","","null","","","","html-keyboard-response","237","639519","0.0-237.0","5ee8fdbb6b0e1325a483f9fa","61fd928f2aab9a4440b535ba","","","","","<p style=""color:darkgreen;font-size:24px;"">Correct :)</p>","",""
"2613","key","n","n","16.70372611464959","500","250","psychophysics","238","642137","0.0-238.0","5ee8fdbb6b0e1325a483f9fa","61fd928f2aab9a4440b535ba","5","","","","","0","2"
"null","","","null","","","","html-keyboard-response","239","642639","0.0-239.0","5ee8fdbb6b0e1325a483f9fa","61fd928f2aab9a4440b535ba","","","","","<p style=""color:darkgreen;font-size:24px;"">Correct :)</p>","",""
"2613","key","n","n","16.704095541400935","500","250","psychophysics","240","645258","0.0-240.0","5ee8fdbb6b0e1325a483f9fa","61fd928f2aab9a4440b535ba","5","","","","","0","8"
"null","","","null","","","","html-keyboard-response","241","645760","0.0-241.0","5ee8fdbb6b0e1325a483f9fa","61fd928f2aab9a4440b535ba","","","","","<p style=""color:darkgreen;font-size:24px;"">Correct :)</p>","",""
"2662","key","v","v","16.70483125000028","500","250","psychophysics","242","648426","0.0-242.0","5ee8fdbb6b0e1325a483f9fa","61fd928f2aab9a4440b535ba","5","","","","","0","3"
"null","","","null","","","","html-keyboard-response","243","648928","0.0-243.0","5ee8fdbb6b0e1325a483f9fa","61fd928f2aab9a4440b535ba","","","","","<p style=""color:darkgreen;font-size:24px;"">Correct :)</p>","",""
"2665","key","n","n","16.704081250000307","500","250","psychophysics","244","651603","0.0-244.0","5ee8fdbb6b0e1325a483f9fa","61fd928f2aab9a4440b535ba","5","","","","","0","7"
"null","","","null","","","","html-keyboard-response","245","652105","0.0-245.0","5ee8fdbb6b0e1325a483f9fa","61fd928f2aab9a4440b535ba","","","","","<p style=""color:red;font-size:24px;"">Error :(</p>","",""
"2812","key","n","n","16.70464497041467","500","250","psychophysics","246","654923","0.0-246.0","5ee8fdbb6b0e1325a483f9fa","61fd928f2aab9a4440b535ba","5","","","","","0","2"
"null","","","null","","","","html-keyboard-response","247","655424","0.0-247.0","5ee8fdbb6b0e1325a483f9fa","61fd928f2aab9a4440b535ba","","","","","<p style=""color:darkgreen;font-size:24px;"">Correct :)</p>","",""
"2670","key","v","v","16.704037499999686","500","250","psychophysics","248","658099","0.0-248.0","5ee8fdbb6b0e1325a483f9fa","61fd928f2aab9a4440b535ba","5","","","","","0","7"
"null","","","null","","","","html-keyboard-response","249","658601","0.0-249.0","5ee8fdbb6b0e1325a483f9fa","61fd928f2aab9a4440b535ba","","","","","<p style=""color:darkgreen;font-size:24px;"">Correct :)</p>","",""
"2782","key","n","n","16.704275449102152","500","250","psychophysics","250","661388","0.0-250.0","5ee8fdbb6b0e1325a483f9fa","61fd928f2aab9a4440b535ba","5","","","","","0","2"
"null","","","null","","","","html-keyboard-response","251","661889","0.0-251.0","5ee8fdbb6b0e1325a483f9fa","61fd928f2aab9a4440b535ba","","","","","<p style=""color:darkgreen;font-size:24px;"">Correct :)</p>","",""
"2703","key","n","n","16.70419753086394","500","250","psychophysics","252","664597","0.0-252.0","5ee8fdbb6b0e1325a483f9fa","61fd928f2aab9a4440b535ba","5","","","","","0","2"
"null","","","null","","","","html-keyboard-response","253","665098","0.0-253.0","5ee8fdbb6b0e1325a483f9fa","61fd928f2aab9a4440b535ba","","","","","<p style=""color:darkgreen;font-size:24px;"">Correct :)</p>","",""
"2822","key","n","n","16.802864705882143","500","250","psychophysics","254","667956","0.0-254.0","5ee8fdbb6b0e1325a483f9fa","61fd928f2aab9a4440b535ba","5","","","","","0","4"
"null","","","null","","","","html-keyboard-response","255","668458","0.0-255.0","5ee8fdbb6b0e1325a483f9fa","61fd928f2aab9a4440b535ba","","","","","<p style=""color:darkgreen;font-size:24px;"">Correct :)</p>","",""
"2901","key","v","v","16.703051724137964","500","250","psychophysics","256","671365","0.0-256.0","5ee8fdbb6b0e1325a483f9fa","61fd928f2aab9a4440b535ba","5","","","","","0","7"
"null","","","null","","","","html-keyboard-response","257","671866","0.0-257.0","5ee8fdbb6b0e1325a483f9fa","61fd928f2aab9a4440b535ba","","","","","<p style=""color:darkgreen;font-size:24px;"">Correct :)</p>","",""
"2982","key","n","n","16.704452513966856","500","250","psychophysics","258","674854","0.0-258.0","5ee8fdbb6b0e1325a483f9fa","61fd928f2aab9a4440b535ba","5","","","","","0","7"
"null","","","null","","","","html-keyboard-response","259","675357","0.0-259.0","5ee8fdbb6b0e1325a483f9fa","61fd928f2aab9a4440b535ba","","","","","<p style=""color:red;font-size:24px;"">Error :(</p>","",""
"2630","key","n","n","16.651352564102034","500","250","psychophysics","260","677989","0.0-260.0","5ee8fdbb6b0e1325a483f9fa","61fd928f2aab9a4440b535ba","5","","","","","0","4"
"null","","","null","","","","html-keyboard-response","261","678492","0.0-261.0","5ee8fdbb6b0e1325a483f9fa","61fd928f2aab9a4440b535ba","","","","","<p style=""color:darkgreen;font-size:24px;"">Correct :)</p>","",""
"2891","key","v","v","16.70366091954043","500","250","psychophysics","262","681390","0.0-262.0","5ee8fdbb6b0e1325a483f9fa","61fd928f2aab9a4440b535ba","5","","","","","0","4"
"null","","","null","","","","html-keyboard-response","263","681892","0.0-263.0","5ee8fdbb6b0e1325a483f9fa","61fd928f2aab9a4440b535ba","","","","","<p style=""color:red;font-size:24px;"">Error :(</p>","",""
"2782","key","v","v","16.70389221556914","500","250","psychophysics","264","684679","0.0-264.0","5ee8fdbb6b0e1325a483f9fa","61fd928f2aab9a4440b535ba","5","","","","","0","9"
"null","","","null","","","","html-keyboard-response","265","685182","0.0-265.0","5ee8fdbb6b0e1325a483f9fa","61fd928f2aab9a4440b535ba","","","","","<p style=""color:darkgreen;font-size:24px;"">Correct :)</p>","",""
"2601","key","v","v","16.703205128205575","500","250","psychophysics","266","687792","0.0-266.0","5ee8fdbb6b0e1325a483f9fa","61fd928f2aab9a4440b535ba","5","","","","","0","1"
"null","","","null","","","","html-keyboard-response","267","688293","0.0-267.0","5ee8fdbb6b0e1325a483f9fa","61fd928f2aab9a4440b535ba","","","","","<p style=""color:darkgreen;font-size:24px;"">Correct :)</p>","",""
"2598","key","v","v","16.704532051282094","500","250","psychophysics","268","690895","0.0-268.0","5ee8fdbb6b0e1325a483f9fa","61fd928f2aab9a4440b535ba","5","","","","","0","7"
"null","","","null","","","","html-keyboard-response","269","691396","0.0-269.0","5ee8fdbb6b0e1325a483f9fa","61fd928f2aab9a4440b535ba","","","","","<p style=""color:darkgreen;font-size:24px;"">Correct :)</p>","",""
"2638","key","v","v","16.703873417721883","500","250","psychophysics","270","694040","0.0-270.0","5ee8fdbb6b0e1325a483f9fa","61fd928f2aab9a4440b535ba","5","","","","","0","7"
"null","","","null","","","","html-keyboard-response","271","694541","0.0-271.0","5ee8fdbb6b0e1325a483f9fa","61fd928f2aab9a4440b535ba","","","","","<p style=""color:darkgreen;font-size:24px;"">Correct :)</p>","",""
"2614","key","n","n","16.703942675159052","500","250","psychophysics","272","697160","0.0-272.0","5ee8fdbb6b0e1325a483f9fa","61fd928f2aab9a4440b535ba","5","","","","","0","2"
"null","","","null","","","","html-keyboard-response","273","697673","0.0-273.0","5ee8fdbb6b0e1325a483f9fa","61fd928f2aab9a4440b535ba","","","","","<p style=""color:darkgreen;font-size:24px;"">Correct :)</p>","",""
"2843","key","v","v","16.704223529411728","500","250","psychophysics","274","700521","0.0-274.0","5ee8fdbb6b0e1325a483f9fa","61fd928f2aab9a4440b535ba","5","","","","","0","9"
"null","","","null","","","","html-keyboard-response","275","701024","0.0-275.0","5ee8fdbb6b0e1325a483f9fa","61fd928f2aab9a4440b535ba","","","","","<p style=""color:darkgreen;font-size:24px;"">Correct :)</p>","",""
"2740","key","v","v","16.704304878049097","500","250","psychophysics","276","703769","0.0-276.0","5ee8fdbb6b0e1325a483f9fa","61fd928f2aab9a4440b535ba","5","","","","","0","1"
"null","","","null","","","","html-keyboard-response","277","704271","0.0-277.0","5ee8fdbb6b0e1325a483f9fa","61fd928f2aab9a4440b535ba","","","","","<p style=""color:darkgreen;font-size:24px;"">Correct :)</p>","",""
"2676","key","v","v","16.705018749999727","500","250","psychophysics","278","706954","0.0-278.0","5ee8fdbb6b0e1325a483f9fa","61fd928f2aab9a4440b535ba","5","","","","","0","3"
"null","","","null","","","","html-keyboard-response","279","707456","0.0-279.0","5ee8fdbb6b0e1325a483f9fa","61fd928f2aab9a4440b535ba","","","","","<p style=""color:darkgreen;font-size:24px;"">Correct :)</p>","",""
"2691","key","v","v","16.703987577639417","500","250","psychophysics","280","710154","0.0-280.0","5ee8fdbb6b0e1325a483f9fa","61fd928f2aab9a4440b535ba","5","","","","","0","9"
"null","","","null","","","","html-keyboard-response","281","710655","0.0-281.0","5ee8fdbb6b0e1325a483f9fa","61fd928f2aab9a4440b535ba","","","","","<p style=""color:darkgreen;font-size:24px;"">Correct :)</p>","",""
"2414","key","n","n","16.70398620689641","500","250","psychophysics","282","713075","0.0-282.0","5ee8fdbb6b0e1325a483f9fa","61fd928f2aab9a4440b535ba","5","","","","","0","4"
"null","","","null","","","","html-keyboard-response","283","713580","0.0-283.0","5ee8fdbb6b0e1325a483f9fa","61fd928f2aab9a4440b535ba","","","","","<p style=""color:darkgreen;font-size:24px;"">Correct :)</p>","",""
"2770","key","n","n","16.70394578313242","500","250","psychophysics","284","716355","0.0-284.0","5ee8fdbb6b0e1325a483f9fa","61fd928f2aab9a4440b535ba","5","","","","","0","6"
"null","","","null","","","","html-keyboard-response","285","716862","0.0-285.0","5ee8fdbb6b0e1325a483f9fa","61fd928f2aab9a4440b535ba","","","","","<p style=""color:darkgreen;font-size:24px;"">Correct :)</p>","",""
"2623","key","v","v","16.70337579617793","500","250","psychophysics","286","719491","0.0-286.0","5ee8fdbb6b0e1325a483f9fa","61fd928f2aab9a4440b535ba","5","","","","","0","1"
"null","","","null","","","","html-keyboard-response","287","719993","0.0-287.0","5ee8fdbb6b0e1325a483f9fa","61fd928f2aab9a4440b535ba","","","","","<p style=""color:darkgreen;font-size:24px;"">Correct :)</p>","",""
"2671","key","n","n","16.70390062111861","500","250","psychophysics","288","722669","0.0-288.0","5ee8fdbb6b0e1325a483f9fa","61fd928f2aab9a4440b535ba","5","","","","","0","8"
"null","","","null","","","","html-keyboard-response","289","723171","0.0-289.0","5ee8fdbb6b0e1325a483f9fa","61fd928f2aab9a4440b535ba","","","","","<p style=""color:darkgreen;font-size:24px;"">Correct :)</p>","",""
"66759","","","n","","","","html-keyboard-response","290","789932","0.0-290.0","5ee8fdbb6b0e1325a483f9fa","61fd928f2aab9a4440b535ba","","","","","<p> Here, the tasks are going to switch.  For some trials, your job is to decide if the digit is less than or greater than 5.  For others, it is to decide if the digit is even or odd.  You will be told which type of trial the current one is.  But, pay attention, the type of trial changes too.  We are going to do 50 of these.  </p>  <br><br>  Ready? (press v or n)","",""
"3249","key","n","n","16.689738461538816","500","250","psychophysics","291","793188","0.0-291.0","5ee8fdbb6b0e1325a483f9fa","61fd928f2aab9a4440b535ba","6","","","","","1","8"
"null","","","null","","","","html-keyboard-response","292","793690","0.0-292.0","5ee8fdbb6b0e1325a483f9fa","61fd928f2aab9a4440b535ba","","","","","<p style=""color:darkgreen;font-size:24px;"">Correct :)</p>","",""
"2740","key","v","v","16.704304878049097","500","250","psychophysics","293","796435","0.0-293.0","5ee8fdbb6b0e1325a483f9fa","61fd928f2aab9a4440b535ba","6","","","","","1","4"
"null","","","null","","","","html-keyboard-response","294","796938","0.0-294.0","5ee8fdbb6b0e1325a483f9fa","61fd928f2aab9a4440b535ba","","","","","<p style=""color:darkgreen;font-size:24px;"">Correct :)</p>","",""
"2471","key","v","v","16.70423489932874","500","250","psychophysics","295","799420","0.0-295.0","5ee8fdbb6b0e1325a483f9fa","61fd928f2aab9a4440b535ba","6","","","","","1","2"
"null","","","null","","","","html-keyboard-response","296","799922","0.0-296.0","5ee8fdbb6b0e1325a483f9fa","61fd928f2aab9a4440b535ba","","","","","<p style=""color:darkgreen;font-size:24px;"">Correct :)</p>","",""
"2726","key","v","v","16.70444171779155","500","250","psychophysics","297","802653","0.0-297.0","5ee8fdbb6b0e1325a483f9fa","61fd928f2aab9a4440b535ba","6","","","","","0","3"
"null","","","null","","","","html-keyboard-response","298","803169","0.0-298.0","5ee8fdbb6b0e1325a483f9fa","61fd928f2aab9a4440b535ba","","","","","<p style=""color:darkgreen;font-size:24px;"">Correct :)</p>","",""
"2455","key","v","v","16.704209459459445","500","250","psychophysics","299","805629","0.0-299.0","5ee8fdbb6b0e1325a483f9fa","61fd928f2aab9a4440b535ba","6","","","","","0","9"
"null","","","null","","","","html-keyboard-response","300","806131","0.0-300.0","5ee8fdbb6b0e1325a483f9fa","61fd928f2aab9a4440b535ba","","","","","<p style=""color:darkgreen;font-size:24px;"">Correct :)</p>","",""
"2789","key","v","v","16.70425748503014","500","250","psychophysics","301","808925","0.0-301.0","5ee8fdbb6b0e1325a483f9fa","61fd928f2aab9a4440b535ba","6","","","","","1","1"
"null","","","null","","","","html-keyboard-response","302","809426","0.0-302.0","5ee8fdbb6b0e1325a483f9fa","61fd928f2aab9a4440b535ba","","","","","<p style=""color:darkgreen;font-size:24px;"">Correct :)</p>","",""
"2422","key","v","v","16.70461379310341","500","250","psychophysics","303","811853","0.0-303.0","5ee8fdbb6b0e1325a483f9fa","61fd928f2aab9a4440b535ba","6","","","","","0","3"
"null","","","null","","","","html-keyboard-response","304","812355","0.0-304.0","5ee8fdbb6b0e1325a483f9fa","61fd928f2aab9a4440b535ba","","","","","<p style=""color:darkgreen;font-size:24px;"">Correct :)</p>","",""
"2615","key","n","n","16.704455128205247","500","250","psychophysics","305","814974","0.0-305.0","5ee8fdbb6b0e1325a483f9fa","61fd928f2aab9a4440b535ba","6","","","","","1","9"
"null","","","null","","","","html-keyboard-response","306","815477","0.0-306.0","5ee8fdbb6b0e1325a483f9fa","61fd928f2aab9a4440b535ba","","","","","<p style=""color:darkgreen;font-size:24px;"">Correct :)</p>","",""
"2595","key","n","n","16.704703225806774","500","250","psychophysics","307","818078","0.0-307.0","5ee8fdbb6b0e1325a483f9fa","61fd928f2aab9a4440b535ba","6","","","","","0","6"
"null","","","null","","","","html-keyboard-response","308","818580","0.0-308.0","5ee8fdbb6b0e1325a483f9fa","61fd928f2aab9a4440b535ba","","","","","<p style=""color:darkgreen;font-size:24px;"">Correct :)</p>","",""
"2669","key","v","v","16.704018749999523","500","250","psychophysics","309","821254","0.0-309.0","5ee8fdbb6b0e1325a483f9fa","61fd928f2aab9a4440b535ba","6","","","","","0","9"
"null","","","null","","","","html-keyboard-response","310","821758","0.0-310.0","5ee8fdbb6b0e1325a483f9fa","61fd928f2aab9a4440b535ba","","","","","<p style=""color:darkgreen;font-size:24px;"">Correct :)</p>","",""
"3407","key","v","v","16.703348039215722","500","250","psychophysics","311","825167","0.0-311.0","5ee8fdbb6b0e1325a483f9fa","61fd928f2aab9a4440b535ba","6","","","","","1","2"
"null","","","null","","","","html-keyboard-response","312","825669","0.0-312.0","5ee8fdbb6b0e1325a483f9fa","61fd928f2aab9a4440b535ba","","","","","<p style=""color:darkgreen;font-size:24px;"">Correct :)</p>","",""
"2750","key","n","n","16.704090909091192","500","250","psychophysics","313","828423","0.0-313.0","5ee8fdbb6b0e1325a483f9fa","61fd928f2aab9a4440b535ba","6","","","","","1","7"
"null","","","null","","","","html-keyboard-response","314","828925","0.0-314.0","5ee8fdbb6b0e1325a483f9fa","61fd928f2aab9a4440b535ba","","","","","<p style=""color:darkgreen;font-size:24px;"">Correct :)</p>","",""
"2406","key","n","n","16.70465972222236","500","250","psychophysics","315","831335","0.0-315.0","5ee8fdbb6b0e1325a483f9fa","61fd928f2aab9a4440b535ba","6","","","","","1","7"
"null","","","null","","","","html-keyboard-response","316","831838","0.0-316.0","5ee8fdbb6b0e1325a483f9fa","61fd928f2aab9a4440b535ba","","","","","<p style=""color:darkgreen;font-size:24px;"">Correct :)</p>","",""
"2732","key","n","n","16.70396341463386","500","250","psychophysics","317","834575","0.0-317.0","5ee8fdbb6b0e1325a483f9fa","61fd928f2aab9a4440b535ba","6","","","","","0","8"
"null","","","null","","","","html-keyboard-response","318","835076","0.0-318.0","5ee8fdbb6b0e1325a483f9fa","61fd928f2aab9a4440b535ba","","","","","<p style=""color:darkgreen;font-size:24px;"">Correct :)</p>","",""
"2512","key","n","n","16.703688741721745","500","250","psychophysics","319","837593","0.0-319.0","5ee8fdbb6b0e1325a483f9fa","61fd928f2aab9a4440b535ba","6","","","","","0","6"
"null","","","null","","","","html-keyboard-response","320","838109","0.0-320.0","5ee8fdbb6b0e1325a483f9fa","61fd928f2aab9a4440b535ba","","","","","<p style=""color:darkgreen;font-size:24px;"">Correct :)</p>","",""
"2567","key","n","n","16.704461038960808","500","250","psychophysics","321","840681","0.0-321.0","5ee8fdbb6b0e1325a483f9fa","61fd928f2aab9a4440b535ba","6","","","","","0","2"
"null","","","null","","","","html-keyboard-response","322","841183","0.0-322.0","5ee8fdbb6b0e1325a483f9fa","61fd928f2aab9a4440b535ba","","","","","<p style=""color:darkgreen;font-size:24px;"">Correct :)</p>","",""
"2413","key","n","n","16.70484827586273","500","250","psychophysics","323","843601","0.0-323.0","5ee8fdbb6b0e1325a483f9fa","61fd928f2aab9a4440b535ba","6","","","","","0","4"
"null","","","null","","","","html-keyboard-response","324","844104","0.0-324.0","5ee8fdbb6b0e1325a483f9fa","61fd928f2aab9a4440b535ba","","","","","<p style=""color:darkgreen;font-size:24px;"">Correct :)</p>","",""
"2508","key","v","v","16.705293333333294","500","250","psychophysics","325","846617","0.0-325.0","5ee8fdbb6b0e1325a483f9fa","61fd928f2aab9a4440b535ba","6","","","","","1","3"
"null","","","null","","","","html-keyboard-response","326","847119","0.0-326.0","5ee8fdbb6b0e1325a483f9fa","61fd928f2aab9a4440b535ba","","","","","<p style=""color:darkgreen;font-size:24px;"">Correct :)</p>","",""
"2522","key","v","v","16.704572368421633","500","250","psychophysics","327","849651","0.0-327.0","5ee8fdbb6b0e1325a483f9fa","61fd928f2aab9a4440b535ba","6","","","","","1","1"
"null","","","null","","","","html-keyboard-response","328","850154","0.0-328.0","5ee8fdbb6b0e1325a483f9fa","61fd928f2aab9a4440b535ba","","","","","<p style=""color:darkgreen;font-size:24px;"">Correct :)</p>","",""
"2391","key","n","n","16.70464583333281","500","250","psychophysics","329","852553","0.0-329.0","5ee8fdbb6b0e1325a483f9fa","61fd928f2aab9a4440b535ba","6","","","","","1","7"
"null","","","null","","","","html-keyboard-response","330","853055","0.0-330.0","5ee8fdbb6b0e1325a483f9fa","61fd928f2aab9a4440b535ba","","","","","<p style=""color:darkgreen;font-size:24px;"">Correct :)</p>","",""
"2894","key","n","n","16.703312138728716","500","250","psychophysics","331","855954","0.0-331.0","5ee8fdbb6b0e1325a483f9fa","61fd928f2aab9a4440b535ba","6","","","","","1","8"
"null","","","null","","","","html-keyboard-response","332","856455","0.0-332.0","5ee8fdbb6b0e1325a483f9fa","61fd928f2aab9a4440b535ba","","","","","<p style=""color:darkgreen;font-size:24px;"">Correct :)</p>","",""
"2454","key","n","n","16.70444217687045","500","250","psychophysics","333","858915","0.0-333.0","5ee8fdbb6b0e1325a483f9fa","61fd928f2aab9a4440b535ba","6","","","","","1","7"
"null","","","null","","","","html-keyboard-response","334","859417","0.0-334.0","5ee8fdbb6b0e1325a483f9fa","61fd928f2aab9a4440b535ba","","","","","<p style=""color:darkgreen;font-size:24px;"">Correct :)</p>","",""
"2502","key","v","v","16.704400000000216","500","250","psychophysics","335","861923","0.0-335.0","5ee8fdbb6b0e1325a483f9fa","61fd928f2aab9a4440b535ba","6","","","","","0","1"
"null","","","null","","","","html-keyboard-response","336","862425","0.0-336.0","5ee8fdbb6b0e1325a483f9fa","61fd928f2aab9a4440b535ba","","","","","<p style=""color:darkgreen;font-size:24px;"">Correct :)</p>","",""
"2574","key","n","n","16.704798701298635","500","250","psychophysics","337","865003","0.0-337.0","5ee8fdbb6b0e1325a483f9fa","61fd928f2aab9a4440b535ba","6","","","","","0","6"
"null","","","null","","","","html-keyboard-response","338","865518","0.0-338.0","5ee8fdbb6b0e1325a483f9fa","61fd928f2aab9a4440b535ba","","","","","<p style=""color:darkgreen;font-size:24px;"">Correct :)</p>","",""
"2706","key","v","v","16.704871165644708","500","250","psychophysics","339","868235","0.0-339.0","5ee8fdbb6b0e1325a483f9fa","61fd928f2aab9a4440b535ba","6","","","","","0","3"
"null","","","null","","","","html-keyboard-response","340","868738","0.0-340.0","5ee8fdbb6b0e1325a483f9fa","61fd928f2aab9a4440b535ba","","","","","<p style=""color:darkgreen;font-size:24px;"">Correct :)</p>","",""
"2613","key","v","v","16.703783439490113","500","250","psychophysics","341","871356","0.0-341.0","5ee8fdbb6b0e1325a483f9fa","61fd928f2aab9a4440b535ba","6","","","","","1","2"
"null","","","null","","","","html-keyboard-response","342","871858","0.0-342.0","5ee8fdbb6b0e1325a483f9fa","61fd928f2aab9a4440b535ba","","","","","<p style=""color:darkgreen;font-size:24px;"">Correct :)</p>","",""
"2694","key","n","n","16.70355279503104","500","250","psychophysics","343","874557","0.0-343.0","5ee8fdbb6b0e1325a483f9fa","61fd928f2aab9a4440b535ba","6","","","","","0","4"
"null","","","null","","","","html-keyboard-response","344","875059","0.0-344.0","5ee8fdbb6b0e1325a483f9fa","61fd928f2aab9a4440b535ba","","","","","<p style=""color:darkgreen;font-size:24px;"">Correct :)</p>","",""
"2669","key","v","v","16.70455000000002","500","250","psychophysics","345","877733","0.0-345.0","5ee8fdbb6b0e1325a483f9fa","61fd928f2aab9a4440b535ba","6","","","","","0","9"
"null","","","null","","","","html-keyboard-response","346","878236","0.0-346.0","5ee8fdbb6b0e1325a483f9fa","61fd928f2aab9a4440b535ba","","","","","<p style=""color:darkgreen;font-size:24px;"">Correct :)</p>","",""
"2669","key","n","n","16.70448125000039","500","250","psychophysics","347","880909","0.0-347.0","5ee8fdbb6b0e1325a483f9fa","61fd928f2aab9a4440b535ba","6","","","","","1","7"
"null","","","null","","","","html-keyboard-response","348","881410","0.0-348.0","5ee8fdbb6b0e1325a483f9fa","61fd928f2aab9a4440b535ba","","","","","<p style=""color:darkgreen;font-size:24px;"">Correct :)</p>","",""
"2502","key","n","n","16.703566666666884","500","250","psychophysics","349","883917","0.0-349.0","5ee8fdbb6b0e1325a483f9fa","61fd928f2aab9a4440b535ba","6","","","","","0","4"
"null","","","null","","","","html-keyboard-response","350","884420","0.0-350.0","5ee8fdbb6b0e1325a483f9fa","61fd928f2aab9a4440b535ba","","","","","<p style=""color:darkgreen;font-size:24px;"">Correct :)</p>","",""
"2727","key","v","v","16.70367073170733","500","250","psychophysics","351","887151","0.0-351.0","5ee8fdbb6b0e1325a483f9fa","61fd928f2aab9a4440b535ba","6","","","","","0","1"
"null","","","null","","","","html-keyboard-response","352","887653","0.0-352.0","5ee8fdbb6b0e1325a483f9fa","61fd928f2aab9a4440b535ba","","","","","<p style=""color:darkgreen;font-size:24px;"">Correct :)</p>","",""
"2676","key","n","n","16.704468750000522","500","250","psychophysics","353","890334","0.0-353.0","5ee8fdbb6b0e1325a483f9fa","61fd928f2aab9a4440b535ba","6","","","","","0","4"
"null","","","null","","","","html-keyboard-response","354","890837","0.0-354.0","5ee8fdbb6b0e1325a483f9fa","61fd928f2aab9a4440b535ba","","","","","<p style=""color:darkgreen;font-size:24px;"">Correct :)</p>","",""
"2886","key","v","v","16.618368421052853","500","250","psychophysics","355","893726","0.0-355.0","5ee8fdbb6b0e1325a483f9fa","61fd928f2aab9a4440b535ba","6","","","","","1","4"
"null","","","null","","","","html-keyboard-response","356","894228","0.0-356.0","5ee8fdbb6b0e1325a483f9fa","61fd928f2aab9a4440b535ba","","","","","<p style=""color:darkgreen;font-size:24px;"">Correct :)</p>","",""
"2593","key","n","n","16.703793548387026","500","250","psychophysics","357","896831","0.0-357.0","5ee8fdbb6b0e1325a483f9fa","61fd928f2aab9a4440b535ba","6","","","","","0","6"
"null","","","null","","","","html-keyboard-response","358","897333","0.0-358.0","5ee8fdbb6b0e1325a483f9fa","61fd928f2aab9a4440b535ba","","","","","<p style=""color:darkgreen;font-size:24px;"">Correct :)</p>","",""
"3299","key","v","v","16.701999999999973","500","250","psychophysics","359","900640","0.0-359.0","5ee8fdbb6b0e1325a483f9fa","61fd928f2aab9a4440b535ba","6","","","","","0","7"
"null","","","null","","","","html-keyboard-response","360","901142","0.0-360.0","5ee8fdbb6b0e1325a483f9fa","61fd928f2aab9a4440b535ba","","","","","<p style=""color:darkgreen;font-size:24px;"">Correct :)</p>","",""
"2829","key","v","v","16.704710059171713","500","250","psychophysics","361","903976","0.0-361.0","5ee8fdbb6b0e1325a483f9fa","61fd928f2aab9a4440b535ba","6","","","","","1","8"
"null","","","null","","","","html-keyboard-response","362","904478","0.0-362.0","5ee8fdbb6b0e1325a483f9fa","61fd928f2aab9a4440b535ba","","","","","<p style=""color:red;font-size:24px;"">Error :(</p>","",""
"3053","key","v","v","16.703371584699795","500","250","psychophysics","363","907537","0.0-363.0","5ee8fdbb6b0e1325a483f9fa","61fd928f2aab9a4440b535ba","6","","","","","1","3"
"null","","","null","","","","html-keyboard-response","364","908038","0.0-364.0","5ee8fdbb6b0e1325a483f9fa","61fd928f2aab9a4440b535ba","","","","","<p style=""color:darkgreen;font-size:24px;"">Correct :)</p>","",""
"2842","key","v","v","16.620733727810535","500","250","psychophysics","365","910882","0.0-365.0","5ee8fdbb6b0e1325a483f9fa","61fd928f2aab9a4440b535ba","6","","","","","1","2"
"null","","","null","","","","html-keyboard-response","366","911384","0.0-366.0","5ee8fdbb6b0e1325a483f9fa","61fd928f2aab9a4440b535ba","","","","","<p style=""color:darkgreen;font-size:24px;"">Correct :)</p>","",""
"3076","key","v","v","16.703146739130833","500","250","psychophysics","367","914465","0.0-367.0","5ee8fdbb6b0e1325a483f9fa","61fd928f2aab9a4440b535ba","6","","","","","0","7"
"null","","","null","","","","html-keyboard-response","368","914968","0.0-368.0","5ee8fdbb6b0e1325a483f9fa","61fd928f2aab9a4440b535ba","","","","","<p style=""color:darkgreen;font-size:24px;"">Correct :)</p>","",""
"2581","key","n","n","16.704701298701142","500","250","psychophysics","369","917554","0.0-369.0","5ee8fdbb6b0e1325a483f9fa","61fd928f2aab9a4440b535ba","6","","","","","1","7"
"null","","","null","","","","html-keyboard-response","370","918055","0.0-370.0","5ee8fdbb6b0e1325a483f9fa","61fd928f2aab9a4440b535ba","","","","","<p style=""color:darkgreen;font-size:24px;"">Correct :)</p>","",""
"2646","key","v","v","16.703402515722633","500","250","psychophysics","371","920706","0.0-371.0","5ee8fdbb6b0e1325a483f9fa","61fd928f2aab9a4440b535ba","6","","","","","0","9"
"null","","","null","","","","html-keyboard-response","372","921236","0.0-372.0","5ee8fdbb6b0e1325a483f9fa","61fd928f2aab9a4440b535ba","","","","","<p style=""color:darkgreen;font-size:24px;"">Correct :)</p>","",""
"2714","key","v","v","16.704932515337305","500","250","psychophysics","373","923956","0.0-373.0","5ee8fdbb6b0e1325a483f9fa","61fd928f2aab9a4440b535ba","6","","","","","0","9"
"null","","","null","","","","html-keyboard-response","374","924458","0.0-374.0","5ee8fdbb6b0e1325a483f9fa","61fd928f2aab9a4440b535ba","","","","","<p style=""color:darkgreen;font-size:24px;"">Correct :)</p>","",""
"2676","key","v","v","16.70373749999999","500","250","psychophysics","375","927139","0.0-375.0","5ee8fdbb6b0e1325a483f9fa","61fd928f2aab9a4440b535ba","6","","","","","0","9"
"null","","","null","","","","html-keyboard-response","376","927652","0.0-376.0","5ee8fdbb6b0e1325a483f9fa","61fd928f2aab9a4440b535ba","","","","","<p style=""color:darkgreen;font-size:24px;"">Correct :)</p>","",""
"2772","key","n","n","16.70357485029994","500","250","psychophysics","377","930434","0.0-377.0","5ee8fdbb6b0e1325a483f9fa","61fd928f2aab9a4440b535ba","6","","","","","0","4"
"null","","","null","","","","html-keyboard-response","378","930935","0.0-378.0","5ee8fdbb6b0e1325a483f9fa","61fd928f2aab9a4440b535ba","","","","","<p style=""color:darkgreen;font-size:24px;"">Correct :)</p>","",""
"2488","key","v","v","16.7046778523496","500","250","psychophysics","379","933428","0.0-379.0","5ee8fdbb6b0e1325a483f9fa","61fd928f2aab9a4440b535ba","6","","","","","0","1"
"null","","","null","","","","html-keyboard-response","380","933930","0.0-380.0","5ee8fdbb6b0e1325a483f9fa","61fd928f2aab9a4440b535ba","","","","","<p style=""color:darkgreen;font-size:24px;"">Correct :)</p>","",""
"2573","key","n","n","16.704597402597603","500","250","psychophysics","381","936509","0.0-381.0","5ee8fdbb6b0e1325a483f9fa","61fd928f2aab9a4440b535ba","6","","","","","1","9"
"null","","","null","","","","html-keyboard-response","382","937010","0.0-382.0","5ee8fdbb6b0e1325a483f9fa","61fd928f2aab9a4440b535ba","","","","","<p style=""color:darkgreen;font-size:24px;"">Correct :)</p>","",""
"2619","key","v","v","16.7044458598726","500","250","psychophysics","383","939637","0.0-383.0","5ee8fdbb6b0e1325a483f9fa","61fd928f2aab9a4440b535ba","6","","","","","1","3"
"null","","","null","","","","html-keyboard-response","384","940140","0.0-384.0","5ee8fdbb6b0e1325a483f9fa","61fd928f2aab9a4440b535ba","","","","","<p style=""color:darkgreen;font-size:24px;"">Correct :)</p>","",""
"2533","key","v","v","16.7047960526313","500","250","psychophysics","385","942677","0.0-385.0","5ee8fdbb6b0e1325a483f9fa","61fd928f2aab9a4440b535ba","6","","","","","1","4"
"null","","","null","","","","html-keyboard-response","386","943179","0.0-386.0","5ee8fdbb6b0e1325a483f9fa","61fd928f2aab9a4440b535ba","","","","","<p style=""color:darkgreen;font-size:24px;"">Correct :)</p>","",""
"2538","key","v","v","16.813000000000542","500","250","psychophysics","387","945749","0.0-387.0","5ee8fdbb6b0e1325a483f9fa","61fd928f2aab9a4440b535ba","6","","","","","0","3"
"null","","","null","","","","html-keyboard-response","388","946252","0.0-388.0","5ee8fdbb6b0e1325a483f9fa","61fd928f2aab9a4440b535ba","","","","","<p style=""color:darkgreen;font-size:24px;"">Correct :)</p>","",""
"2605","key","n","n","16.703564102564435","500","250","psychophysics","389","948862","0.0-389.0","5ee8fdbb6b0e1325a483f9fa","61fd928f2aab9a4440b535ba","6","","","","","0","4"
"null","","","null","","","","html-keyboard-response","390","949364","0.0-390.0","5ee8fdbb6b0e1325a483f9fa","61fd928f2aab9a4440b535ba","","","","","<p style=""color:darkgreen;font-size:24px;"">Correct :)</p>","",""
"8297","","","v","","","","html-keyboard-response","391","957664","0.0-391.0","5ee8fdbb6b0e1325a483f9fa","61fd928f2aab9a4440b535ba","","","","","<p> Last set of trials.  Here, the tasks are going to switch once again.  We are going to do 50 of these.  And then you are done with the experiment.  </p>  <br><br>  Ready? (press v or n)","",""
"3237","key","v","v","16.696117948718033","500","250","psychophysics","392","960911","0.0-392.0","5ee8fdbb6b0e1325a483f9fa","61fd928f2aab9a4440b535ba","7","","","","","1","1"
"null","","","null","","","","html-keyboard-response","393","961412","0.0-393.0","5ee8fdbb6b0e1325a483f9fa","61fd928f2aab9a4440b535ba","","","","","<p style=""color:darkgreen;font-size:24px;"">Correct :)</p>","",""
"2486","key","n","n","16.70514093959726","500","250","psychophysics","394","963903","0.0-394.0","5ee8fdbb6b0e1325a483f9fa","61fd928f2aab9a4440b535ba","7","","","","","0","4"
"null","","","null","","","","html-keyboard-response","395","964404","0.0-395.0","5ee8fdbb6b0e1325a483f9fa","61fd928f2aab9a4440b535ba","","","","","<p style=""color:darkgreen;font-size:24px;"">Correct :)</p>","",""
"2606","key","n","n","16.70410897435907","500","250","psychophysics","396","967015","0.0-396.0","5ee8fdbb6b0e1325a483f9fa","61fd928f2aab9a4440b535ba","7","","","","","0","6"
"null","","","null","","","","html-keyboard-response","397","967517","0.0-397.0","5ee8fdbb6b0e1325a483f9fa","61fd928f2aab9a4440b535ba","","","","","<p style=""color:darkgreen;font-size:24px;"">Correct :)</p>","",""
"2484","key","n","n","16.704718120805545","500","250","psychophysics","398","970008","0.0-398.0","5ee8fdbb6b0e1325a483f9fa","61fd928f2aab9a4440b535ba","7","","","","","0","2"
"null","","","null","","","","html-keyboard-response","399","970510","0.0-399.0","5ee8fdbb6b0e1325a483f9fa","61fd928f2aab9a4440b535ba","","","","","<p style=""color:darkgreen;font-size:24px;"">Correct :)</p>","",""
"2573","key","n","n","16.70511038961001","500","250","psychophysics","400","973088","0.0-400.0","5ee8fdbb6b0e1325a483f9fa","61fd928f2aab9a4440b535ba","7","","","","","0","2"
"null","","","null","","","","html-keyboard-response","401","973590","0.0-401.0","5ee8fdbb6b0e1325a483f9fa","61fd928f2aab9a4440b535ba","","","","","<p style=""color:darkgreen;font-size:24px;"">Correct :)</p>","",""
"2533","key","v","v","16.70409210526314","500","250","psychophysics","402","976128","0.0-402.0","5ee8fdbb6b0e1325a483f9fa","61fd928f2aab9a4440b535ba","7","","","","","1","1"
"null","","","null","","","","html-keyboard-response","403","976630","0.0-403.0","5ee8fdbb6b0e1325a483f9fa","61fd928f2aab9a4440b535ba","","","","","<p style=""color:darkgreen;font-size:24px;"">Correct :)</p>","",""
"2792","key","n","n","16.703511904762266","500","250","psychophysics","404","979432","0.0-404.0","5ee8fdbb6b0e1325a483f9fa","61fd928f2aab9a4440b535ba","7","","","","","1","7"
"null","","","null","","","","html-keyboard-response","405","979934","0.0-405.0","5ee8fdbb6b0e1325a483f9fa","61fd928f2aab9a4440b535ba","","","","","<p style=""color:darkgreen;font-size:24px;"">Correct :)</p>","",""
"2605","key","v","v","16.704205128205313","500","250","psychophysics","406","982545","0.0-406.0","5ee8fdbb6b0e1325a483f9fa","61fd928f2aab9a4440b535ba","7","","","","","0","7"
"null","","","null","","","","html-keyboard-response","407","983048","0.0-407.0","5ee8fdbb6b0e1325a483f9fa","61fd928f2aab9a4440b535ba","","","","","<p style=""color:darkgreen;font-size:24px;"">Correct :)</p>","",""
"2719","key","n","n","16.6610372670809","500","250","psychophysics","408","985770","0.0-408.0","5ee8fdbb6b0e1325a483f9fa","61fd928f2aab9a4440b535ba","7","","","","","0","2"
"null","","","null","","","","html-keyboard-response","409","986273","0.0-409.0","5ee8fdbb6b0e1325a483f9fa","61fd928f2aab9a4440b535ba","","","","","<p style=""color:darkgreen;font-size:24px;"">Correct :)</p>","",""
"2492","key","n","n","16.705657718120293","500","250","psychophysics","410","988770","0.0-410.0","5ee8fdbb6b0e1325a483f9fa","61fd928f2aab9a4440b535ba","7","","","","","1","6"
"null","","","null","","","","html-keyboard-response","411","989271","0.0-411.0","5ee8fdbb6b0e1325a483f9fa","61fd928f2aab9a4440b535ba","","","","","<p style=""color:darkgreen;font-size:24px;"">Correct :)</p>","",""
"2622","key","n","n","16.704885350318573","500","250","psychophysics","412","991898","0.0-412.0","5ee8fdbb6b0e1325a483f9fa","61fd928f2aab9a4440b535ba","7","","","","","0","2"
"null","","","null","","","","html-keyboard-response","413","992400","0.0-413.0","5ee8fdbb6b0e1325a483f9fa","61fd928f2aab9a4440b535ba","","","","","<p style=""color:darkgreen;font-size:24px;"">Correct :)</p>","",""
"2622","key","n","n","16.70470063694216","500","250","psychophysics","414","995027","0.0-414.0","5ee8fdbb6b0e1325a483f9fa","61fd928f2aab9a4440b535ba","7","","","","","0","2"
"null","","","null","","","","html-keyboard-response","415","995529","0.0-415.0","5ee8fdbb6b0e1325a483f9fa","61fd928f2aab9a4440b535ba","","","","","<p style=""color:darkgreen;font-size:24px;"">Correct :)</p>","",""
"3149","key","v","v","16.703439153438907","500","250","psychophysics","416","998684","0.0-416.0","5ee8fdbb6b0e1325a483f9fa","61fd928f2aab9a4440b535ba","7","","","","","1","4"
"null","","","null","","","","html-keyboard-response","417","999185","0.0-417.0","5ee8fdbb6b0e1325a483f9fa","61fd928f2aab9a4440b535ba","","","","","<p style=""color:darkgreen;font-size:24px;"">Correct :)</p>","",""
"2477","key","n","n","16.704486486487045","500","250","psychophysics","418","1001667","0.0-418.0","5ee8fdbb6b0e1325a483f9fa","61fd928f2aab9a4440b535ba","7","","","","","0","2"
"null","","","null","","","","html-keyboard-response","419","1002169","0.0-419.0","5ee8fdbb6b0e1325a483f9fa","61fd928f2aab9a4440b535ba","","","","","<p style=""color:darkgreen;font-size:24px;"">Correct :)</p>","",""
"2550","key","v","v","16.704381578947313","500","250","psychophysics","420","1004723","0.0-420.0","5ee8fdbb6b0e1325a483f9fa","61fd928f2aab9a4440b535ba","7","","","","","1","3"
"null","","","null","","","","html-keyboard-response","421","1005227","0.0-421.0","5ee8fdbb6b0e1325a483f9fa","61fd928f2aab9a4440b535ba","","","","","<p style=""color:darkgreen;font-size:24px;"">Correct :)</p>","",""
"2651","key","v","v","16.705025157232992","500","250","psychophysics","422","1007884","0.0-422.0","5ee8fdbb6b0e1325a483f9fa","61fd928f2aab9a4440b535ba","7","","","","","1","3"
"null","","","null","","","","html-keyboard-response","423","1008386","0.0-423.0","5ee8fdbb6b0e1325a483f9fa","61fd928f2aab9a4440b535ba","","","","","<p style=""color:darkgreen;font-size:24px;"">Correct :)</p>","",""
"2851","key","n","n","16.705146198830164","500","250","psychophysics","424","1011245","0.0-424.0","5ee8fdbb6b0e1325a483f9fa","61fd928f2aab9a4440b535ba","7","","","","","0","6"
"null","","","null","","","","html-keyboard-response","425","1011748","0.0-425.0","5ee8fdbb6b0e1325a483f9fa","61fd928f2aab9a4440b535ba","","","","","<p style=""color:darkgreen;font-size:24px;"">Correct :)</p>","",""
"3111","key","n","n","16.704053475935495","500","250","psychophysics","426","1014869","0.0-426.0","5ee8fdbb6b0e1325a483f9fa","61fd928f2aab9a4440b535ba","7","","","","","1","6"
"null","","","null","","","","html-keyboard-response","427","1015371","0.0-427.0","5ee8fdbb6b0e1325a483f9fa","61fd928f2aab9a4440b535ba","","","","","<p style=""color:darkgreen;font-size:24px;"">Correct :)</p>","",""
"2654","key","n","n","16.70372955974868","500","250","psychophysics","428","1018029","0.0-428.0","5ee8fdbb6b0e1325a483f9fa","61fd928f2aab9a4440b535ba","7","","","","","0","2"
"null","","","null","","","","html-keyboard-response","429","1018531","0.0-429.0","5ee8fdbb6b0e1325a483f9fa","61fd928f2aab9a4440b535ba","","","","","<p style=""color:darkgreen;font-size:24px;"">Correct :)</p>","",""
"2581","key","n","n","16.705006451612608","500","250","psychophysics","430","1021117","0.0-430.0","5ee8fdbb6b0e1325a483f9fa","61fd928f2aab9a4440b535ba","7","","","","","1","7"
"null","","","null","","","","html-keyboard-response","431","1021619","0.0-431.0","5ee8fdbb6b0e1325a483f9fa","61fd928f2aab9a4440b535ba","","","","","<p style=""color:darkgreen;font-size:24px;"">Correct :)</p>","",""
"2557","key","v","v","16.704292207792275","500","250","psychophysics","432","1024183","0.0-432.0","5ee8fdbb6b0e1325a483f9fa","61fd928f2aab9a4440b535ba","7","","","","","1","3"
"null","","","null","","","","html-keyboard-response","433","1024685","0.0-433.0","5ee8fdbb6b0e1325a483f9fa","61fd928f2aab9a4440b535ba","","","","","<p style=""color:darkgreen;font-size:24px;"">Correct :)</p>","",""
"2922","key","n","n","16.702942857142936","500","250","psychophysics","434","1027614","0.0-434.0","5ee8fdbb6b0e1325a483f9fa","61fd928f2aab9a4440b535ba","7","","","","","0","2"
"null","","","null","","","","html-keyboard-response","435","1028115","0.0-435.0","5ee8fdbb6b0e1325a483f9fa","61fd928f2aab9a4440b535ba","","","","","<p style=""color:darkgreen;font-size:24px;"">Correct :)</p>","",""
"2493","key","n","n","16.70410666666692","500","250","psychophysics","436","1030615","0.0-436.0","5ee8fdbb6b0e1325a483f9fa","61fd928f2aab9a4440b535ba","7","","","","","0","6"
"null","","","null","","","","html-keyboard-response","437","1031127","0.0-437.0","5ee8fdbb6b0e1325a483f9fa","61fd928f2aab9a4440b535ba","","","","","<p style=""color:darkgreen;font-size:24px;"">Correct :)</p>","",""
"2601","key","n","n","16.70441666666645","500","250","psychophysics","438","1033735","0.0-438.0","5ee8fdbb6b0e1325a483f9fa","61fd928f2aab9a4440b535ba","7","","","","","0","6"
"null","","","null","","","","html-keyboard-response","439","1034237","0.0-439.0","5ee8fdbb6b0e1325a483f9fa","61fd928f2aab9a4440b535ba","","","","","<p style=""color:darkgreen;font-size:24px;"">Correct :)</p>","",""
"2789","key","v","v","16.70417365269501","500","250","psychophysics","440","1037032","0.0-440.0","5ee8fdbb6b0e1325a483f9fa","61fd928f2aab9a4440b535ba","7","","","","","0","3"
"null","","","null","","","","html-keyboard-response","441","1037534","0.0-441.0","5ee8fdbb6b0e1325a483f9fa","61fd928f2aab9a4440b535ba","","","","","<p style=""color:darkgreen;font-size:24px;"">Correct :)</p>","",""
"2638","key","n","n","16.70401886792461","500","250","psychophysics","442","1040184","0.0-442.0","5ee8fdbb6b0e1325a483f9fa","61fd928f2aab9a4440b535ba","7","","","","","0","2"
"null","","","null","","","","html-keyboard-response","443","1040699","0.0-443.0","5ee8fdbb6b0e1325a483f9fa","61fd928f2aab9a4440b535ba","","","","","<p style=""color:darkgreen;font-size:24px;"">Correct :)</p>","",""
"2609","key","v","v","16.704730769230547","500","250","psychophysics","444","1043312","0.0-444.0","5ee8fdbb6b0e1325a483f9fa","61fd928f2aab9a4440b535ba","7","","","","","1","3"
"null","","","null","","","","html-keyboard-response","445","1043815","0.0-445.0","5ee8fdbb6b0e1325a483f9fa","61fd928f2aab9a4440b535ba","","","","","<p style=""color:darkgreen;font-size:24px;"">Correct :)</p>","",""
"3006","key","v","v","16.70316574585596","500","250","psychophysics","446","1046826","0.0-446.0","5ee8fdbb6b0e1325a483f9fa","61fd928f2aab9a4440b535ba","7","","","","","1","2"
"null","","","null","","","","html-keyboard-response","447","1047327","0.0-447.0","5ee8fdbb6b0e1325a483f9fa","61fd928f2aab9a4440b535ba","","","","","<p style=""color:darkgreen;font-size:24px;"">Correct :)</p>","",""
"2510","key","n","n","16.703973333333465","500","250","psychophysics","448","1049842","0.0-448.0","5ee8fdbb6b0e1325a483f9fa","61fd928f2aab9a4440b535ba","7","","","","","0","4"
"null","","","null","","","","html-keyboard-response","449","1050344","0.0-449.0","5ee8fdbb6b0e1325a483f9fa","61fd928f2aab9a4440b535ba","","","","","<p style=""color:darkgreen;font-size:24px;"">Correct :)</p>","",""
"3466","key","v","v","16.702855769231412","500","250","psychophysics","450","1053818","0.0-450.0","5ee8fdbb6b0e1325a483f9fa","61fd928f2aab9a4440b535ba","7","","","","","0","7"
"null","","","null","","","","html-keyboard-response","451","1054319","0.0-451.0","5ee8fdbb6b0e1325a483f9fa","61fd928f2aab9a4440b535ba","","","","","<p style=""color:darkgreen;font-size:24px;"">Correct :)</p>","",""
"2816","key","n","n","16.703449704142884","500","250","psychophysics","452","1057146","0.0-452.0","5ee8fdbb6b0e1325a483f9fa","61fd928f2aab9a4440b535ba","7","","","","","1","6"
"null","","","null","","","","html-keyboard-response","453","1057648","0.0-453.0","5ee8fdbb6b0e1325a483f9fa","61fd928f2aab9a4440b535ba","","","","","<p style=""color:darkgreen;font-size:24px;"">Correct :)</p>","",""
"3321","key","n","n","16.7025527638189","500","250","psychophysics","454","1060979","0.0-454.0","5ee8fdbb6b0e1325a483f9fa","61fd928f2aab9a4440b535ba","7","","","","","1","6"
"null","","","null","","","","html-keyboard-response","455","1061481","0.0-455.0","5ee8fdbb6b0e1325a483f9fa","61fd928f2aab9a4440b535ba","","","","","<p style=""color:darkgreen;font-size:24px;"">Correct :)</p>","",""
"2659","key","v","v","16.704131249999044","500","250","psychophysics","456","1064147","0.0-456.0","5ee8fdbb6b0e1325a483f9fa","61fd928f2aab9a4440b535ba","7","","","","","0","1"
"null","","","null","","","","html-keyboard-response","457","1064649","0.0-457.0","5ee8fdbb6b0e1325a483f9fa","61fd928f2aab9a4440b535ba","","","","","<p style=""color:darkgreen;font-size:24px;"">Correct :)</p>","",""
"2706","key","n","n","16.703711656440746","500","250","psychophysics","458","1067364","0.0-458.0","5ee8fdbb6b0e1325a483f9fa","61fd928f2aab9a4440b535ba","7","","","","","0","4"
"null","","","null","","","","html-keyboard-response","459","1067874","0.0-459.0","5ee8fdbb6b0e1325a483f9fa","61fd928f2aab9a4440b535ba","","","","","<p style=""color:darkgreen;font-size:24px;"">Correct :)</p>","",""
"3198","key","n","n","16.702786458333623","500","250","psychophysics","460","1071076","0.0-460.0","5ee8fdbb6b0e1325a483f9fa","61fd928f2aab9a4440b535ba","7","","","","","1","7"
"null","","","null","","","","html-keyboard-response","461","1071577","0.0-461.0","5ee8fdbb6b0e1325a483f9fa","61fd928f2aab9a4440b535ba","","","","","<p style=""color:darkgreen;font-size:24px;"">Correct :)</p>","",""
"2532","key","v","v","16.704144736842288","500","250","psychophysics","462","1074116","0.0-462.0","5ee8fdbb6b0e1325a483f9fa","61fd928f2aab9a4440b535ba","7","","","","","1","2"
"null","","","null","","","","html-keyboard-response","463","1074617","0.0-463.0","5ee8fdbb6b0e1325a483f9fa","61fd928f2aab9a4440b535ba","","","","","<p style=""color:darkgreen;font-size:24px;"">Correct :)</p>","",""
"2847","key","n","n","16.70334502923907","500","250","psychophysics","464","1077468","0.0-464.0","5ee8fdbb6b0e1325a483f9fa","61fd928f2aab9a4440b535ba","7","","","","","1","6"
"null","","","null","","","","html-keyboard-response","465","1077970","0.0-465.0","5ee8fdbb6b0e1325a483f9fa","61fd928f2aab9a4440b535ba","","","","","<p style=""color:darkgreen;font-size:24px;"">Correct :)</p>","",""
"2670","key","v","v","16.704343750000408","500","250","psychophysics","466","1080645","0.0-466.0","5ee8fdbb6b0e1325a483f9fa","61fd928f2aab9a4440b535ba","7","","","","","1","3"
"null","","","null","","","","html-keyboard-response","467","1081147","0.0-467.0","5ee8fdbb6b0e1325a483f9fa","61fd928f2aab9a4440b535ba","","","","","<p style=""color:darkgreen;font-size:24px;"">Correct :)</p>","",""
"2614","key","v","v","16.704726114649635","500","250","psychophysics","468","1083765","0.0-468.0","5ee8fdbb6b0e1325a483f9fa","61fd928f2aab9a4440b535ba","7","","","","","1","2"
"null","","","null","","","","html-keyboard-response","469","1084266","0.0-469.0","5ee8fdbb6b0e1325a483f9fa","61fd928f2aab9a4440b535ba","","","","","<p style=""color:darkgreen;font-size:24px;"">Correct :)</p>","",""
"2550","key","v","v","16.70571241830019","500","250","psychophysics","470","1086821","0.0-470.0","5ee8fdbb6b0e1325a483f9fa","61fd928f2aab9a4440b535ba","7","","","","","0","1"
"null","","","null","","","","html-keyboard-response","471","1087323","0.0-471.0","5ee8fdbb6b0e1325a483f9fa","61fd928f2aab9a4440b535ba","","","","","<p style=""color:darkgreen;font-size:24px;"">Correct :)</p>","",""
"2709","key","v","v","16.704512345679333","500","250","psychophysics","472","1090037","0.0-472.0","5ee8fdbb6b0e1325a483f9fa","61fd928f2aab9a4440b535ba","7","","","","","0","7"
"null","","","null","","","","html-keyboard-response","473","1090541","0.0-473.0","5ee8fdbb6b0e1325a483f9fa","61fd928f2aab9a4440b535ba","","","","","<p style=""color:darkgreen;font-size:24px;"">Correct :)</p>","",""
"2489","key","n","n","16.704449664431017","500","250","psychophysics","474","1093038","0.0-474.0","5ee8fdbb6b0e1325a483f9fa","61fd928f2aab9a4440b535ba","7","","","","","0","4"
"null","","","null","","","","html-keyboard-response","475","1093540","0.0-475.0","5ee8fdbb6b0e1325a483f9fa","61fd928f2aab9a4440b535ba","","","","","<p style=""color:darkgreen;font-size:24px;"">Correct :)</p>","",""
"2528","key","n","n","16.704315789474332","500","250","psychophysics","476","1096079","0.0-476.0","5ee8fdbb6b0e1325a483f9fa","61fd928f2aab9a4440b535ba","7","","","","","1","6"
"null","","","null","","","","html-keyboard-response","477","1096582","0.0-477.0","5ee8fdbb6b0e1325a483f9fa","61fd928f2aab9a4440b535ba","","","","","<p style=""color:darkgreen;font-size:24px;"">Correct :)</p>","",""
"4394","key","v","v","16.701772727272438","500","250","psychophysics","478","1100983","0.0-478.0","5ee8fdbb6b0e1325a483f9fa","61fd928f2aab9a4440b535ba","7","","","","","1","4"
"null","","","null","","","","html-keyboard-response","479","1101485","0.0-479.0","5ee8fdbb6b0e1325a483f9fa","61fd928f2aab9a4440b535ba","","","","","<p style=""color:darkgreen;font-size:24px;"">Correct :)</p>","",""
"2814","key","v","v","16.704000000000143","500","250","psychophysics","480","1104303","0.0-480.0","5ee8fdbb6b0e1325a483f9fa","61fd928f2aab9a4440b535ba","7","","","","","1","3"
"null","","","null","","","","html-keyboard-response","481","1104805","0.0-481.0","5ee8fdbb6b0e1325a483f9fa","61fd928f2aab9a4440b535ba","","","","","<p style=""color:darkgreen;font-size:24px;"">Correct :)</p>","",""
"2574","key","n","n","16.704428571429066","500","250","psychophysics","482","1107384","0.0-482.0","5ee8fdbb6b0e1325a483f9fa","61fd928f2aab9a4440b535ba","7","","","","","0","4"
"null","","","null","","","","html-keyboard-response","483","1107886","0.0-483.0","5ee8fdbb6b0e1325a483f9fa","61fd928f2aab9a4440b535ba","","","","","<p style=""color:darkgreen;font-size:24px;"">Correct :)</p>","",""
"2638","key","n","n","16.704622641508905","500","250","psychophysics","484","1110536","0.0-484.0","5ee8fdbb6b0e1325a483f9fa","61fd928f2aab9a4440b535ba","7","","","","","1","7"
"null","","","null","","","","html-keyboard-response","485","1111038","0.0-485.0","5ee8fdbb6b0e1325a483f9fa","61fd928f2aab9a4440b535ba","","","","","<p style=""color:darkgreen;font-size:24px;"">Correct :)</p>","",""
"2965","key","v","v","16.704084269663195","500","250","psychophysics","486","1114008","0.0-486.0","5ee8fdbb6b0e1325a483f9fa","61fd928f2aab9a4440b535ba","7","","","","","1","1"
"null","","","null","","","","html-keyboard-response","487","1114510","0.0-487.0","5ee8fdbb6b0e1325a483f9fa","61fd928f2aab9a4440b535ba","","","","","<p style=""color:darkgreen;font-size:24px;"">Correct :)</p>","",""
"2796","key","n","n","16.704416666667733","500","250","psychophysics","488","1117312","0.0-488.0","5ee8fdbb6b0e1325a483f9fa","61fd928f2aab9a4440b535ba","7","","","","","1","6"
"null","","","null","","","","html-keyboard-response","489","1117816","0.0-489.0","5ee8fdbb6b0e1325a483f9fa","61fd928f2aab9a4440b535ba","","","","","<p style=""color:darkgreen;font-size:24px;"">Correct :)</p>","",""
"2647","key","n","n","16.704748427672545","500","250","psychophysics","490","1120466","0.0-490.0","5ee8fdbb6b0e1325a483f9fa","61fd928f2aab9a4440b535ba","7","","","","","0","4"
"null","","","null","","","","html-keyboard-response","491","1120969","0.0-491.0","5ee8fdbb6b0e1325a483f9fa","61fd928f2aab9a4440b535ba","","","","","<p style=""color:darkgreen;font-size:24px;"">Correct :)</p>","",""
