"rt","response_type","key_press","response","avg_frame_time","center_x","center_y","trial_type","trial_index","time_elapsed","internal_node_id","pid","sid","phase","guide","targ","resp","stimulus","is5","stim"
"3988","key"," "," ","16.820058577405856","499.84","249.92","psychophysics","0","4011","0.0-0.0","5e4465013f75e52fc82f7096","62015595d450ad4b4349a950","","","","","","",""
"4076","key"," "," ","16.818318181818185","499.84","249.92","psychophysics","1","8089","0.0-1.0","5e4465013f75e52fc82f7096","62015595d450ad4b4349a950","","","","","","",""
"2613","key"," "," ","16.680647435897438","499.84","249.92","psychophysics","2","10704","0.0-2.0","5e4465013f75e52fc82f7096","62015595d450ad4b4349a950","","","","","","",""
"1175","key"," "," ","16.68056521739129","499.84","249.92","psychophysics","3","11881","0.0-3.0","5e4465013f75e52fc82f7096","62015595d450ad4b4349a950","","","","","","",""
"2019","key"," "," ","16.680408333333343","499.84","249.92","psychophysics","4","13901","0.0-4.0","5e4465013f75e52fc82f7096","62015595d450ad4b4349a950","","","","","","",""
"4011","key"," "," ","16.680483333333328","499.84","249.92","psychophysics","5","17915","0.0-5.0","5e4465013f75e52fc82f7096","62015595d450ad4b4349a950","","","","","","",""
"5059","key"," "," ","16.680483443708614","499.84","249.92","psychophysics","6","22976","0.0-6.0","5e4465013f75e52fc82f7096","62015595d450ad4b4349a950","","","","","","",""
"3319","key"," "," ","16.680454545454545","499.84","249.92","psychophysics","7","26298","0.0-7.0","5e4465013f75e52fc82f7096","62015595d450ad4b4349a950","","","","","","",""
"5028","key"," "," ","16.68048504983389","499.84","249.92","psychophysics","8","31328","0.0-8.0","5e4465013f75e52fc82f7096","62015595d450ad4b4349a950","0","0","30","32","","",""
"2809","key"," "," ","16.680363095238114","499.84","249.92","psychophysics","9","34140","0.0-9.0","5e4465013f75e52fc82f7096","62015595d450ad4b4349a950","","","","","","",""
"2283","key"," "," ","16.68050000000002","499.84","249.92","psychophysics","10","36425","0.0-10.0","5e4465013f75e52fc82f7096","62015595d450ad4b4349a950","","","","","","",""
"3115","key"," "," ","16.680189189189186","499.84","249.92","psychophysics","11","39542","0.0-11.0","5e4465013f75e52fc82f7096","62015595d450ad4b4349a950","","","","","","",""
"2656","key"," "," ","16.680547169811287","499.84","249.92","psychophysics","12","42202","0.0-12.0","5e4465013f75e52fc82f7096","62015595d450ad4b4349a950","","","","","","",""
"2504","key"," "," ","16.680046979865754","499.84","249.92","psychophysics","13","44708","0.0-13.0","5e4465013f75e52fc82f7096","62015595d450ad4b4349a950","","","","","","",""
"2249","key"," "," ","16.68019402985075","499.84","249.92","psychophysics","14","46958","0.0-14.0","5e4465013f75e52fc82f7096","62015595d450ad4b4349a950","","","","","","",""
"2662","key"," "," ","16.680270440251576","499.84","249.92","psychophysics","15","49622","0.0-15.0","5e4465013f75e52fc82f7096","62015595d450ad4b4349a950","","","","","","",""
"3110","key"," "," ","16.680470270270284","499.84","249.92","psychophysics","16","52735","0.0-16.0","5e4465013f75e52fc82f7096","62015595d450ad4b4349a950","","","","","","",""
"3266","key"," "," ","16.680389743589743","499.84","249.92","psychophysics","17","56002","0.0-17.0","5e4465013f75e52fc82f7096","62015595d450ad4b4349a950","1","0","41","38","","",""
"2247","key"," "," ","16.680477611940308","499.84","249.92","psychophysics","18","58250","0.0-18.0","5e4465013f75e52fc82f7096","62015595d450ad4b4349a950","1","5","20","27","","",""
"2813","key"," "," ","16.680279761904785","499.84","249.92","psychophysics","19","61065","0.0-19.0","5e4465013f75e52fc82f7096","62015595d450ad4b4349a950","1","0","22","27","","",""
"3543","key"," "," ","16.680246445497627","499.84","249.92","psychophysics","20","64610","0.0-20.0","5e4465013f75e52fc82f7096","62015595d450ad4b4349a950","1","5","46","55","","",""
"2179","key"," "," ","16.680384615384593","499.84","249.92","psychophysics","21","66791","0.0-21.0","5e4465013f75e52fc82f7096","62015595d450ad4b4349a950","1","0","23","24","","",""
"6304","key"," "," ","16.68053315649868","499.84","249.92","psychophysics","22","73096","0.0-22.0","5e4465013f75e52fc82f7096","62015595d450ad4b4349a950","1","5","57","61","","",""
"6503","key"," "," ","16.680426735218514","499.84","249.92","psychophysics","23","79601","0.0-23.0","5e4465013f75e52fc82f7096","62015595d450ad4b4349a950","1","0","51","63","","",""
"8297","key"," "," ","16.680468812877262","499.84","249.92","psychophysics","24","87900","0.0-24.0","5e4465013f75e52fc82f7096","62015595d450ad4b4349a950","1","5","60","56","","",""
"21845","key"," "," ","16.6804243119266","499.84","249.92","psychophysics","25","109747","0.0-25.0","5e4465013f75e52fc82f7096","62015595d450ad4b4349a950","1","0","48","53","","",""
"3383","key"," "," ","16.68049009900984","499.84","249.92","psychophysics","26","113132","0.0-26.0","5e4465013f75e52fc82f7096","62015595d450ad4b4349a950","1","5","55","66","","",""
"4026","key"," "," ","16.680547717842334","499.84","249.92","psychophysics","27","117160","0.0-27.0","5e4465013f75e52fc82f7096","62015595d450ad4b4349a950","1","0","48","56","","",""
"2010","key"," "," ","16.68034453781509","499.84","249.92","psychophysics","28","119172","0.0-28.0","5e4465013f75e52fc82f7096","62015595d450ad4b4349a950","1","5","25","28","","",""
"2515","key"," "," ","16.680266666666625","499.84","249.92","psychophysics","29","121688","0.0-29.0","5e4465013f75e52fc82f7096","62015595d450ad4b4349a950","1","0","29","41","","",""
"3374","key"," "," ","16.68024752475249","499.84","249.92","psychophysics","30","125065","0.0-30.0","5e4465013f75e52fc82f7096","62015595d450ad4b4349a950","1","5","35","41","","",""
"2373","key"," "," ","16.680744680851067","499.84","249.92","psychophysics","31","127440","0.0-31.0","5e4465013f75e52fc82f7096","62015595d450ad4b4349a950","1","0","28","32","","",""
"1844","key"," "," ","16.680327272727233","499.84","249.92","psychophysics","32","129286","0.0-32.0","5e4465013f75e52fc82f7096","62015595d450ad4b4349a950","1","5","23","27","","",""
"2342","key"," "," ","16.68058273381302","499.84","249.92","psychophysics","33","131630","0.0-33.0","5e4465013f75e52fc82f7096","62015595d450ad4b4349a950","1","0","27","37","","",""
"3406","key"," "," ","16.680289215686322","499.84","249.92","psychophysics","34","135038","0.0-34.0","5e4465013f75e52fc82f7096","62015595d450ad4b4349a950","1","5","56","69","","",""
"3013","key"," "," ","16.680312849162082","499.84","249.92","psychophysics","35","138054","0.0-35.0","5e4465013f75e52fc82f7096","62015595d450ad4b4349a950","1","0","49","54","","",""
"2322","key"," "," ","16.680266187050364","499.84","249.92","psychophysics","36","140377","0.0-36.0","5e4465013f75e52fc82f7096","62015595d450ad4b4349a950","1","5","38","37","","",""
"2191","key"," "," ","16.68053846153847","499.84","249.92","psychophysics","37","142571","0.0-37.0","5e4465013f75e52fc82f7096","62015595d450ad4b4349a950","","","","","","",""
"2877","key"," "," ","16.680563953488377","499.84","249.92","psychophysics","38","145449","0.0-38.0","5e4465013f75e52fc82f7096","62015595d450ad4b4349a950","","","","","","",""
"1512","key"," "," ","16.68044943820222","499.84","249.92","psychophysics","39","146962","0.0-39.0","5e4465013f75e52fc82f7096","62015595d450ad4b4349a950","","","","","","",""
"2007","key"," "," ","16.680216666666578","499.84","249.92","psychophysics","40","148972","0.0-40.0","5e4465013f75e52fc82f7096","62015595d450ad4b4349a950","2","0","20","24","","",""
"4996","key"," "," ","16.680325503355682","499.84","249.92","psychophysics","41","153969","0.0-41.0","5e4465013f75e52fc82f7096","62015595d450ad4b4349a950","","","","","","",""
"2738","key"," "," ","16.680573170731716","499.84","249.92","psychophysics","42","156711","0.0-42.0","5e4465013f75e52fc82f7096","62015595d450ad4b4349a950","2","0","41","46","","",""
"1512","key"," "," ","16.68070000000007","499.84","249.92","psychophysics","43","158224","0.0-43.0","5e4465013f75e52fc82f7096","62015595d450ad4b4349a950","","","","","","",""
"3567","key"," "," ","16.680599056603825","499.84","249.92","psychophysics","44","161793","0.0-44.0","5e4465013f75e52fc82f7096","62015595d450ad4b4349a950","2","0","57","57","","",""
"1426","key"," "," ","16.680635294117554","499.84","249.92","psychophysics","45","163222","0.0-45.0","5e4465013f75e52fc82f7096","62015595d450ad4b4349a950","","","","","","",""
"2582","key"," "," ","16.680590909091013","499.84","249.92","psychophysics","46","165806","0.0-46.0","5e4465013f75e52fc82f7096","62015595d450ad4b4349a950","2","0","40","43","","",""
"1241","key"," "," ","16.680635135135113","499.84","249.92","psychophysics","47","167049","0.0-47.0","5e4465013f75e52fc82f7096","62015595d450ad4b4349a950","","","","","","",""
"3051","key"," "," ","16.680582417582468","499.84","249.92","psychophysics","48","170102","0.0-48.0","5e4465013f75e52fc82f7096","62015595d450ad4b4349a950","2","0","59","60","","",""
"1096","key"," "," ","16.681093749999945","499.84","249.92","psychophysics","49","171200","0.0-49.0","5e4465013f75e52fc82f7096","62015595d450ad4b4349a950","","","","","","",""
"2398","key"," "," ","16.680377622377787","499.84","249.92","psychophysics","50","173600","0.0-50.0","5e4465013f75e52fc82f7096","62015595d450ad4b4349a950","2","0","33","41","","",""
"1126","key"," "," ","16.68022388059719","499.84","249.92","psychophysics","51","174727","0.0-51.0","5e4465013f75e52fc82f7096","62015595d450ad4b4349a950","","","","","","",""
"2324","key"," "," ","16.680659420289725","499.84","249.92","psychophysics","52","177053","0.0-52.0","5e4465013f75e52fc82f7096","62015595d450ad4b4349a950","2","0","32","40","","",""
"1532","key"," "," ","16.68000000000005","499.84","249.92","psychophysics","53","178586","0.0-53.0","5e4465013f75e52fc82f7096","62015595d450ad4b4349a950","","","","","","",""
"2480","key"," "," ","16.6806013513513","499.84","249.92","psychophysics","54","181068","0.0-54.0","5e4465013f75e52fc82f7096","62015595d450ad4b4349a950","2","0","21","40","","",""
"786","key"," "," ","16.68108695652146","499.84","249.92","psychophysics","55","181856","0.0-55.0","5e4465013f75e52fc82f7096","62015595d450ad4b4349a950","","","","","","",""
"3060","key"," "," ","16.680573770491872","499.84","249.92","psychophysics","56","184918","0.0-56.0","5e4465013f75e52fc82f7096","62015595d450ad4b4349a950","2","0","55","62","","",""
"1125","key"," "," ","16.680545454545417","499.84","249.92","psychophysics","57","186045","0.0-57.0","5e4465013f75e52fc82f7096","62015595d450ad4b4349a950","","","","","","",""
"2836","key"," "," ","16.680641176470605","499.84","249.92","psychophysics","58","188883","0.0-58.0","5e4465013f75e52fc82f7096","62015595d450ad4b4349a950","2","0","48","57","","",""
"1008","key"," "," ","16.680677966101754","499.84","249.92","psychophysics","59","189893","0.0-59.0","5e4465013f75e52fc82f7096","62015595d450ad4b4349a950","","","","","","",""
"2588","key"," "," ","16.68049350649352","499.84","249.92","psychophysics","60","192483","0.0-60.0","5e4465013f75e52fc82f7096","62015595d450ad4b4349a950","2","0","41","44","","",""
"1072","key"," "," ","16.68057812500001","499.84","249.92","psychophysics","61","193558","0.0-61.0","5e4465013f75e52fc82f7096","62015595d450ad4b4349a950","","","","","","",""
"3342","key"," "," ","16.68039698492465","499.84","249.92","psychophysics","62","196901","0.0-62.0","5e4465013f75e52fc82f7096","62015595d450ad4b4349a950","2","0","49","40","","",""
"1197","key"," "," ","16.6799436619716","499.84","249.92","psychophysics","63","198100","0.0-63.0","5e4465013f75e52fc82f7096","62015595d450ad4b4349a950","","","","","","",""
"2252","key"," "," ","16.680194029850806","499.84","249.92","psychophysics","64","200354","0.0-64.0","5e4465013f75e52fc82f7096","62015595d450ad4b4349a950","2","0","37","45","","",""
"857","key"," "," ","16.680078431372714","499.84","249.92","psychophysics","65","201214","0.0-65.0","5e4465013f75e52fc82f7096","62015595d450ad4b4349a950","","","","","","",""
"2296","key"," "," ","16.680430656934394","499.84","249.92","psychophysics","66","203512","0.0-66.0","5e4465013f75e52fc82f7096","62015595d450ad4b4349a950","2","0","25","38","","",""
"867","key"," "," ","16.679666666666677","499.84","249.92","psychophysics","67","204381","0.0-67.0","5e4465013f75e52fc82f7096","62015595d450ad4b4349a950","","","","","","",""
"4994","key"," "," ","16.680422818791957","499.84","249.92","psychophysics","68","209377","0.0-68.0","5e4465013f75e52fc82f7096","62015595d450ad4b4349a950","2","0","57","68","","",""
"961","key"," "," ","16.68035087719296","499.84","249.92","psychophysics","69","210340","0.0-69.0","5e4465013f75e52fc82f7096","62015595d450ad4b4349a950","","","","","","",""
"2165","key"," "," ","16.680317829457355","499.84","249.92","psychophysics","70","212506","0.0-70.0","5e4465013f75e52fc82f7096","62015595d450ad4b4349a950","","","","","","",""
"438","key"," "," ","16.681359999999405","499.84","249.92","psychophysics","71","212946","0.0-71.0","5e4465013f75e52fc82f7096","62015595d450ad4b4349a950","","","","","","",""
"2936","key"," "," ","16.68036571428562","499.84","249.92","psychophysics","72","215884","0.0-72.0","5e4465013f75e52fc82f7096","62015595d450ad4b4349a950","3","5","42","42","","",""
"3974","key"," "," ","16.68037394957985","499.84","249.92","psychophysics","73","219861","0.0-73.0","5e4465013f75e52fc82f7096","62015595d450ad4b4349a950","3","0","54","51","","",""
"3727","key"," "," ","16.680481981981895","499.84","249.92","psychophysics","74","223589","0.0-74.0","5e4465013f75e52fc82f7096","62015595d450ad4b4349a950","3","5","48","46","","",""
"3645","key"," "," ","16.68032110091742","499.84","249.92","psychophysics","75","227236","0.0-75.0","5e4465013f75e52fc82f7096","62015595d450ad4b4349a950","3","0","39","42","","",""
"3435","key"," "," ","16.68033170731704","499.84","249.92","psychophysics","76","230673","0.0-76.0","5e4465013f75e52fc82f7096","62015595d450ad4b4349a950","3","5","41","43","","",""
"2841","key"," "," ","16.680248520710055","499.84","249.92","psychophysics","77","233516","0.0-77.0","5e4465013f75e52fc82f7096","62015595d450ad4b4349a950","3","0","49","48","","",""
"2861","key"," "," ","16.680461988304074","499.84","249.92","psychophysics","78","236379","0.0-78.0","5e4465013f75e52fc82f7096","62015595d450ad4b4349a950","3","5","60","57","","",""
"1942","key"," "," ","16.68006086956517","499.84","249.92","psychophysics","79","238323","0.0-79.0","5e4465013f75e52fc82f7096","62015595d450ad4b4349a950","3","0","30","37","","",""
"2764","key"," "," ","16.680496969696833","499.84","249.92","psychophysics","80","241090","0.0-80.0","5e4465013f75e52fc82f7096","62015595d450ad4b4349a950","3","5","58","56","","",""
"1985","key"," "," ","16.680550847457816","499.84","249.92","psychophysics","81","243076","0.0-81.0","5e4465013f75e52fc82f7096","62015595d450ad4b4349a950","3","0","28","36","","",""
"2329","key"," "," ","16.68056115107912","499.84","249.92","psychophysics","82","245407","0.0-82.0","5e4465013f75e52fc82f7096","62015595d450ad4b4349a950","3","5","42","41","","",""
"3663","key"," "," ","16.680488584474894","499.84","249.92","psychophysics","83","249074","0.0-83.0","5e4465013f75e52fc82f7096","62015595d450ad4b4349a950","3","0","40","57","","",""
"2073","key"," "," ","16.680333333333426","499.84","249.92","psychophysics","84","251149","0.0-84.0","5e4465013f75e52fc82f7096","62015595d450ad4b4349a950","3","5","31","30","","",""
"2617","key"," "," ","16.680480769230762","499.84","249.92","psychophysics","85","253768","0.0-85.0","5e4465013f75e52fc82f7096","62015595d450ad4b4349a950","3","0","46","50","","",""
"3263","key"," "," ","16.680533333333322","499.84","249.92","psychophysics","86","257034","0.0-86.0","5e4465013f75e52fc82f7096","62015595d450ad4b4349a950","3","5","53","55","","",""
"2310","key"," "," ","16.67997826086956","499.84","249.92","psychophysics","87","259345","0.0-87.0","5e4465013f75e52fc82f7096","62015595d450ad4b4349a950","3","0","29","39","","",""
"5258","key"," "," ","16.68044904458606","499.84","249.92","psychophysics","88","264605","0.0-88.0","5e4465013f75e52fc82f7096","62015595d450ad4b4349a950","3","5","41","42","","",""
"2837","key"," "," ","16.680573964496997","499.84","249.92","psychophysics","89","267445","0.0-89.0","5e4465013f75e52fc82f7096","62015595d450ad4b4349a950","3","0","53","51","","",""
"2690","key"," "," ","16.680372670807323","499.84","249.92","psychophysics","90","270137","0.0-90.0","5e4465013f75e52fc82f7096","62015595d450ad4b4349a950","3","5","49","48","","",""
"2146","key"," "," ","16.680523437500142","499.84","249.92","psychophysics","91","272285","0.0-91.0","5e4465013f75e52fc82f7096","62015595d450ad4b4349a950","3","0","29","33","","",""
"1646","key"," "," ","16.680030927834935","499.84","249.92","psychophysics","92","273933","0.0-92.0","5e4465013f75e52fc82f7096","62015595d450ad4b4349a950","","","","","","",""
"24859","","","v","","","","html-keyboard-response","93","298793","0.0-93.0","5e4465013f75e52fc82f7096","62015595d450ad4b4349a950","","","","","<p> In this part of the experiment, we are going present digits 1, 2, 3, 4, 6, 7, 8, and 9.  Notice that 5 is missing.  Your job is to say whether the presented digit is less than or greater than 5.  For example, 3 is less than 5 and 7 is greater than 5.  If the digit is less than 5, press the v key; if it is greater than 5, press the n key. We are going to do 200 of these in total, but only 50 righ now. They go real fast.</p>  <br><br>  Ready? (press v or n)","",""
"2803","key","v","v","16.68428571428584","499.84","249.92","psychophysics","94","301600","0.0-94.0","5e4465013f75e52fc82f7096","62015595d450ad4b4349a950","4","","","","","1","2"
"null","","","null","","","","html-keyboard-response","95","302102","0.0-95.0","5e4465013f75e52fc82f7096","62015595d450ad4b4349a950","","","","","<p style=""color:darkgreen;font-size:24px;"">Correct :)</p>","",""
"2548","key","n","n","16.680888888889122","499.84","249.92","psychophysics","96","304652","0.0-96.0","5e4465013f75e52fc82f7096","62015595d450ad4b4349a950","4","","","","","1","6"
"null","","","null","","","","html-keyboard-response","97","305153","0.0-97.0","5e4465013f75e52fc82f7096","62015595d450ad4b4349a950","","","","","<p style=""color:darkgreen;font-size:24px;"">Correct :)</p>","",""
"2430","key","n","n","16.680815068492986","499.84","249.92","psychophysics","98","307584","0.0-98.0","5e4465013f75e52fc82f7096","62015595d450ad4b4349a950","4","","","","","1","4"
"null","","","null","","","","html-keyboard-response","99","308085","0.0-99.0","5e4465013f75e52fc82f7096","62015595d450ad4b4349a950","","","","","<p style=""color:red;font-size:24px;"">Error :(</p>","",""
"2388","key","v","v","16.680797202797148","499.84","249.92","psychophysics","100","310475","0.0-100.0","5e4465013f75e52fc82f7096","62015595d450ad4b4349a950","4","","","","","1","4"
"null","","","null","","","","html-keyboard-response","101","310976","0.0-101.0","5e4465013f75e52fc82f7096","62015595d450ad4b4349a950","","","","","<p style=""color:darkgreen;font-size:24px;"">Correct :)</p>","",""
"2585","key","n","n","16.68072258064508","499.84","249.92","psychophysics","102","313562","0.0-102.0","5e4465013f75e52fc82f7096","62015595d450ad4b4349a950","4","","","","","1","6"
"null","","","null","","","","html-keyboard-response","103","314063","0.0-103.0","5e4465013f75e52fc82f7096","62015595d450ad4b4349a950","","","","","<p style=""color:darkgreen;font-size:24px;"">Correct :)</p>","",""
"2428","key","v","v","16.68057534246576","499.84","249.92","psychophysics","104","316492","0.0-104.0","5e4465013f75e52fc82f7096","62015595d450ad4b4349a950","4","","","","","1","3"
"null","","","null","","","","html-keyboard-response","105","316993","0.0-105.0","5e4465013f75e52fc82f7096","62015595d450ad4b4349a950","","","","","<p style=""color:darkgreen;font-size:24px;"">Correct :)</p>","",""
"2355","key","v","v","16.680709219858024","499.84","249.92","psychophysics","106","319351","0.0-106.0","5e4465013f75e52fc82f7096","62015595d450ad4b4349a950","4","","","","","1","3"
"null","","","null","","","","html-keyboard-response","107","319851","0.0-107.0","5e4465013f75e52fc82f7096","62015595d450ad4b4349a950","","","","","<p style=""color:darkgreen;font-size:24px;"">Correct :)</p>","",""
"2414","key","v","v","16.681096551723876","499.84","249.92","psychophysics","108","322267","0.0-108.0","5e4465013f75e52fc82f7096","62015595d450ad4b4349a950","4","","","","","1","4"
"null","","","null","","","","html-keyboard-response","109","322768","0.0-109.0","5e4465013f75e52fc82f7096","62015595d450ad4b4349a950","","","","","<p style=""color:darkgreen;font-size:24px;"">Correct :)</p>","",""
"2413","key","v","v","16.680737931034447","499.84","249.92","psychophysics","110","325182","0.0-110.0","5e4465013f75e52fc82f7096","62015595d450ad4b4349a950","4","","","","","1","2"
"null","","","null","","","","html-keyboard-response","111","325683","0.0-111.0","5e4465013f75e52fc82f7096","62015595d450ad4b4349a950","","","","","<p style=""color:darkgreen;font-size:24px;"">Correct :)</p>","",""
"2482","key","n","n","16.680557046979807","499.84","249.92","psychophysics","112","328167","0.0-112.0","5e4465013f75e52fc82f7096","62015595d450ad4b4349a950","4","","","","","1","9"
"null","","","null","","","","html-keyboard-response","113","328668","0.0-113.0","5e4465013f75e52fc82f7096","62015595d450ad4b4349a950","","","","","<p style=""color:darkgreen;font-size:24px;"">Correct :)</p>","",""
"2416","key","v","v","16.680696551724143","499.84","249.92","psychophysics","114","331085","0.0-114.0","5e4465013f75e52fc82f7096","62015595d450ad4b4349a950","4","","","","","1","3"
"null","","","null","","","","html-keyboard-response","115","331587","0.0-115.0","5e4465013f75e52fc82f7096","62015595d450ad4b4349a950","","","","","<p style=""color:darkgreen;font-size:24px;"">Correct :)</p>","",""
"2468","key","v","v","16.680702702702742","499.84","249.92","psychophysics","116","334056","0.0-116.0","5e4465013f75e52fc82f7096","62015595d450ad4b4349a950","4","","","","","1","3"
"null","","","null","","","","html-keyboard-response","117","334557","0.0-117.0","5e4465013f75e52fc82f7096","62015595d450ad4b4349a950","","","","","<p style=""color:darkgreen;font-size:24px;"">Correct :)</p>","",""
"2415","key","v","v","16.680593103448185","499.84","249.92","psychophysics","118","336974","0.0-118.0","5e4465013f75e52fc82f7096","62015595d450ad4b4349a950","4","","","","","1","3"
"null","","","null","","","","html-keyboard-response","119","337475","0.0-119.0","5e4465013f75e52fc82f7096","62015595d450ad4b4349a950","","","","","<p style=""color:darkgreen;font-size:24px;"">Correct :)</p>","",""
"2486","key","n","n","16.68061073825518","499.84","249.92","psychophysics","120","339963","0.0-120.0","5e4465013f75e52fc82f7096","62015595d450ad4b4349a950","4","","","","","1","9"
"null","","","null","","","","html-keyboard-response","121","340464","0.0-121.0","5e4465013f75e52fc82f7096","62015595d450ad4b4349a950","","","","","<p style=""color:darkgreen;font-size:24px;"">Correct :)</p>","",""
"2399","key","n","n","16.680645833333173","499.84","249.92","psychophysics","122","342864","0.0-122.0","5e4465013f75e52fc82f7096","62015595d450ad4b4349a950","4","","","","","1","9"
"null","","","null","","","","html-keyboard-response","123","343365","0.0-123.0","5e4465013f75e52fc82f7096","62015595d450ad4b4349a950","","","","","<p style=""color:darkgreen;font-size:24px;"">Correct :)</p>","",""
"2404","key","n","n","16.680791666666565","499.84","249.92","psychophysics","124","345771","0.0-124.0","5e4465013f75e52fc82f7096","62015595d450ad4b4349a950","4","","","","","1","6"
"null","","","null","","","","html-keyboard-response","125","346272","0.0-125.0","5e4465013f75e52fc82f7096","62015595d450ad4b4349a950","","","","","<p style=""color:darkgreen;font-size:24px;"">Correct :)</p>","",""
"2429","key","v","v","16.680726027397252","499.84","249.92","psychophysics","126","348702","0.0-126.0","5e4465013f75e52fc82f7096","62015595d450ad4b4349a950","4","","","","","1","2"
"null","","","null","","","","html-keyboard-response","127","349204","0.0-127.0","5e4465013f75e52fc82f7096","62015595d450ad4b4349a950","","","","","<p style=""color:darkgreen;font-size:24px;"">Correct :)</p>","",""
"2600","key","v","v","16.680749999999907","499.84","249.92","psychophysics","128","351805","0.0-128.0","5e4465013f75e52fc82f7096","62015595d450ad4b4349a950","4","","","","","1","1"
"null","","","null","","","","html-keyboard-response","129","352306","0.0-129.0","5e4465013f75e52fc82f7096","62015595d450ad4b4349a950","","","","","<p style=""color:darkgreen;font-size:24px;"">Correct :)</p>","",""
"2441","key","n","n","16.680513698630406","499.84","249.92","psychophysics","130","354749","0.0-130.0","5e4465013f75e52fc82f7096","62015595d450ad4b4349a950","4","","","","","1","6"
"null","","","null","","","","html-keyboard-response","131","355250","0.0-131.0","5e4465013f75e52fc82f7096","62015595d450ad4b4349a950","","","","","<p style=""color:darkgreen;font-size:24px;"">Correct :)</p>","",""
"2436","key","v","v","16.68082191780798","499.84","249.92","psychophysics","132","357687","0.0-132.0","5e4465013f75e52fc82f7096","62015595d450ad4b4349a950","4","","","","","1","2"
"null","","","null","","","","html-keyboard-response","133","358188","0.0-133.0","5e4465013f75e52fc82f7096","62015595d450ad4b4349a950","","","","","<p style=""color:darkgreen;font-size:24px;"">Correct :)</p>","",""
"2431","key","n","n","16.795579310344806","499.84","249.92","psychophysics","134","360620","0.0-134.0","5e4465013f75e52fc82f7096","62015595d450ad4b4349a950","4","","","","","1","6"
"null","","","null","","","","html-keyboard-response","135","361122","0.0-135.0","5e4465013f75e52fc82f7096","62015595d450ad4b4349a950","","","","","<p style=""color:darkgreen;font-size:24px;"">Correct :)</p>","",""
"2395","key","v","v","16.680847222222333","499.84","249.92","psychophysics","136","363519","0.0-136.0","5e4465013f75e52fc82f7096","62015595d450ad4b4349a950","4","","","","","1","2"
"null","","","null","","","","html-keyboard-response","137","364020","0.0-137.0","5e4465013f75e52fc82f7096","62015595d450ad4b4349a950","","","","","<p style=""color:darkgreen;font-size:24px;"">Correct :)</p>","",""
"2480","key","n","n","16.680617449664503","499.84","249.92","psychophysics","138","366501","0.0-138.0","5e4465013f75e52fc82f7096","62015595d450ad4b4349a950","4","","","","","1","9"
"null","","","null","","","","html-keyboard-response","139","367002","0.0-139.0","5e4465013f75e52fc82f7096","62015595d450ad4b4349a950","","","","","<p style=""color:darkgreen;font-size:24px;"">Correct :)</p>","",""
"2532","key","n","n","16.680717105263426","499.84","249.92","psychophysics","140","369535","0.0-140.0","5e4465013f75e52fc82f7096","62015595d450ad4b4349a950","4","","","","","1","6"
"null","","","null","","","","html-keyboard-response","141","370037","0.0-141.0","5e4465013f75e52fc82f7096","62015595d450ad4b4349a950","","","","","<p style=""color:darkgreen;font-size:24px;"">Correct :)</p>","",""
"2521","key","v","v","16.680615894039647","499.84","249.92","psychophysics","142","372560","0.0-142.0","5e4465013f75e52fc82f7096","62015595d450ad4b4349a950","4","","","","","1","3"
"null","","","null","","","","html-keyboard-response","143","373061","0.0-143.0","5e4465013f75e52fc82f7096","62015595d450ad4b4349a950","","","","","<p style=""color:darkgreen;font-size:24px;"">Correct :)</p>","",""
"2474","key","v","v","16.680651006711514","499.84","249.92","psychophysics","144","375536","0.0-144.0","5e4465013f75e52fc82f7096","62015595d450ad4b4349a950","4","","","","","1","4"
"null","","","null","","","","html-keyboard-response","145","376037","0.0-145.0","5e4465013f75e52fc82f7096","62015595d450ad4b4349a950","","","","","<p style=""color:darkgreen;font-size:24px;"">Correct :)</p>","",""
"2470","key","n","n","16.680797297297506","499.84","249.92","psychophysics","146","378509","0.0-146.0","5e4465013f75e52fc82f7096","62015595d450ad4b4349a950","4","","","","","1","9"
"null","","","null","","","","html-keyboard-response","147","379011","0.0-147.0","5e4465013f75e52fc82f7096","62015595d450ad4b4349a950","","","","","<p style=""color:darkgreen;font-size:24px;"">Correct :)</p>","",""
"2422","key","n","n","16.68062068965519","499.84","249.92","psychophysics","148","381434","0.0-148.0","5e4465013f75e52fc82f7096","62015595d450ad4b4349a950","4","","","","","1","8"
"null","","","null","","","","html-keyboard-response","149","381935","0.0-149.0","5e4465013f75e52fc82f7096","62015595d450ad4b4349a950","","","","","<p style=""color:darkgreen;font-size:24px;"">Correct :)</p>","",""
"2516","key","v","v","16.680708609271598","499.84","249.92","psychophysics","150","384453","0.0-150.0","5e4465013f75e52fc82f7096","62015595d450ad4b4349a950","4","","","","","1","4"
"null","","","null","","","","html-keyboard-response","151","384954","0.0-151.0","5e4465013f75e52fc82f7096","62015595d450ad4b4349a950","","","","","<p style=""color:darkgreen;font-size:24px;"">Correct :)</p>","",""
"2394","key","v","v","16.68079861111134","499.84","249.92","psychophysics","152","387349","0.0-152.0","5e4465013f75e52fc82f7096","62015595d450ad4b4349a950","4","","","","","1","2"
"null","","","null","","","","html-keyboard-response","153","387850","0.0-153.0","5e4465013f75e52fc82f7096","62015595d450ad4b4349a950","","","","","<p style=""color:darkgreen;font-size:24px;"">Correct :)</p>","",""
"2403","key","v","v","16.680534722222042","499.84","249.92","psychophysics","154","390263","0.0-154.0","5e4465013f75e52fc82f7096","62015595d450ad4b4349a950","4","","","","","1","2"
"null","","","null","","","","html-keyboard-response","155","390763","0.0-155.0","5e4465013f75e52fc82f7096","62015595d450ad4b4349a950","","","","","<p style=""color:darkgreen;font-size:24px;"">Correct :)</p>","",""
"2408","key","v","v","16.796388888888842","499.84","249.92","psychophysics","156","393172","0.0-156.0","5e4465013f75e52fc82f7096","62015595d450ad4b4349a950","4","","","","","1","2"
"null","","","null","","","","html-keyboard-response","157","393673","0.0-157.0","5e4465013f75e52fc82f7096","62015595d450ad4b4349a950","","","","","<p style=""color:darkgreen;font-size:24px;"">Correct :)</p>","",""
"2567","key","n","n","16.68080519480508","499.84","249.92","psychophysics","158","396241","0.0-158.0","5e4465013f75e52fc82f7096","62015595d450ad4b4349a950","4","","","","","1","6"
"null","","","null","","","","html-keyboard-response","159","396743","0.0-159.0","5e4465013f75e52fc82f7096","62015595d450ad4b4349a950","","","","","<p style=""color:darkgreen;font-size:24px;"">Correct :)</p>","",""
"2547","key","n","n","16.680607843137455","499.84","249.92","psychophysics","160","399291","0.0-160.0","5e4465013f75e52fc82f7096","62015595d450ad4b4349a950","4","","","","","1","7"
"null","","","null","","","","html-keyboard-response","161","399792","0.0-161.0","5e4465013f75e52fc82f7096","62015595d450ad4b4349a950","","","","","<p style=""color:darkgreen;font-size:24px;"">Correct :)</p>","",""
"2345","key","n","n","16.680514285714267","499.84","249.92","psychophysics","162","402139","0.0-162.0","5e4465013f75e52fc82f7096","62015595d450ad4b4349a950","4","","","","","1","6"
"null","","","null","","","","html-keyboard-response","163","402640","0.0-163.0","5e4465013f75e52fc82f7096","62015595d450ad4b4349a950","","","","","<p style=""color:darkgreen;font-size:24px;"">Correct :)</p>","",""
"2480","key","n","n","16.680630872483153","499.84","249.92","psychophysics","164","405122","0.0-164.0","5e4465013f75e52fc82f7096","62015595d450ad4b4349a950","4","","","","","1","9"
"null","","","null","","","","html-keyboard-response","165","405622","0.0-165.0","5e4465013f75e52fc82f7096","62015595d450ad4b4349a950","","","","","<p style=""color:darkgreen;font-size:24px;"">Correct :)</p>","",""
"2403","key","v","v","16.680833333333187","499.84","249.92","psychophysics","166","408027","0.0-166.0","5e4465013f75e52fc82f7096","62015595d450ad4b4349a950","4","","","","","1","1"
"null","","","null","","","","html-keyboard-response","167","408528","0.0-167.0","5e4465013f75e52fc82f7096","62015595d450ad4b4349a950","","","","","<p style=""color:darkgreen;font-size:24px;"">Correct :)</p>","",""
"2456","key","v","v","16.79425850340132","499.84","249.92","psychophysics","168","410986","0.0-168.0","5e4465013f75e52fc82f7096","62015595d450ad4b4349a950","4","","","","","1","4"
"null","","","null","","","","html-keyboard-response","169","411487","0.0-169.0","5e4465013f75e52fc82f7096","62015595d450ad4b4349a950","","","","","<p style=""color:darkgreen;font-size:24px;"">Correct :)</p>","",""
"2540","key","n","n","16.68056578947366","499.84","249.92","psychophysics","170","414028","0.0-170.0","5e4465013f75e52fc82f7096","62015595d450ad4b4349a950","4","","","","","1","7"
"null","","","null","","","","html-keyboard-response","171","414529","0.0-171.0","5e4465013f75e52fc82f7096","62015595d450ad4b4349a950","","","","","<p style=""color:darkgreen;font-size:24px;"">Correct :)</p>","",""
"2440","key","n","n","16.680680272108827","499.84","249.92","psychophysics","172","416970","0.0-172.0","5e4465013f75e52fc82f7096","62015595d450ad4b4349a950","4","","","","","1","6"
"null","","","null","","","","html-keyboard-response","173","417472","0.0-173.0","5e4465013f75e52fc82f7096","62015595d450ad4b4349a950","","","","","<p style=""color:darkgreen;font-size:24px;"">Correct :)</p>","",""
"2515","key","n","n","16.680919999999848","499.84","249.92","psychophysics","174","419988","0.0-174.0","5e4465013f75e52fc82f7096","62015595d450ad4b4349a950","4","","","","","1","9"
"null","","","null","","","","html-keyboard-response","175","420489","0.0-175.0","5e4465013f75e52fc82f7096","62015595d450ad4b4349a950","","","","","<p style=""color:darkgreen;font-size:24px;"">Correct :)</p>","",""
"2482","key","n","n","16.680655405405165","499.84","249.92","psychophysics","176","422973","0.0-176.0","5e4465013f75e52fc82f7096","62015595d450ad4b4349a950","4","","","","","1","6"
"null","","","null","","","","html-keyboard-response","177","423474","0.0-177.0","5e4465013f75e52fc82f7096","62015595d450ad4b4349a950","","","","","<p style=""color:darkgreen;font-size:24px;"">Correct :)</p>","",""
"2767","key","n","n","16.781775757575858","499.84","249.92","psychophysics","178","426244","0.0-178.0","5e4465013f75e52fc82f7096","62015595d450ad4b4349a950","4","","","","","1","9"
"null","","","null","","","","html-keyboard-response","179","426745","0.0-179.0","5e4465013f75e52fc82f7096","62015595d450ad4b4349a950","","","","","<p style=""color:darkgreen;font-size:24px;"">Correct :)</p>","",""
"2736","key","n","n","16.680652439024616","499.84","249.92","psychophysics","180","429483","0.0-180.0","5e4465013f75e52fc82f7096","62015595d450ad4b4349a950","4","","","","","1","7"
"null","","","null","","","","html-keyboard-response","181","429984","0.0-181.0","5e4465013f75e52fc82f7096","62015595d450ad4b4349a950","","","","","<p style=""color:darkgreen;font-size:24px;"">Correct :)</p>","",""
"2361","key","n","n","16.68062411347513","499.84","249.92","psychophysics","182","432347","0.0-182.0","5e4465013f75e52fc82f7096","62015595d450ad4b4349a950","4","","","","","1","8"
"null","","","null","","","","html-keyboard-response","183","432848","0.0-183.0","5e4465013f75e52fc82f7096","62015595d450ad4b4349a950","","","","","<p style=""color:darkgreen;font-size:24px;"">Correct :)</p>","",""
"2426","key","n","n","16.795827586207025","499.84","249.92","psychophysics","184","435276","0.0-184.0","5e4465013f75e52fc82f7096","62015595d450ad4b4349a950","4","","","","","1","7"
"null","","","null","","","","html-keyboard-response","185","435777","0.0-185.0","5e4465013f75e52fc82f7096","62015595d450ad4b4349a950","","","","","<p style=""color:darkgreen;font-size:24px;"">Correct :)</p>","",""
"2370","key","n","n","16.680683098591594","499.84","249.92","psychophysics","186","438148","0.0-186.0","5e4465013f75e52fc82f7096","62015595d450ad4b4349a950","4","","","","","1","7"
"null","","","null","","","","html-keyboard-response","187","438649","0.0-187.0","5e4465013f75e52fc82f7096","62015595d450ad4b4349a950","","","","","<p style=""color:darkgreen;font-size:24px;"">Correct :)</p>","",""
"2483","key","n","n","16.680664429530164","499.84","249.92","psychophysics","188","441134","0.0-188.0","5e4465013f75e52fc82f7096","62015595d450ad4b4349a950","4","","","","","1","9"
"null","","","null","","","","html-keyboard-response","189","441634","0.0-189.0","5e4465013f75e52fc82f7096","62015595d450ad4b4349a950","","","","","<p style=""color:darkgreen;font-size:24px;"">Correct :)</p>","",""
"2355","key","n","n","16.680652482269565","499.84","249.92","psychophysics","190","443991","0.0-190.0","5e4465013f75e52fc82f7096","62015595d450ad4b4349a950","4","","","","","1","8"
"null","","","null","","","","html-keyboard-response","191","444492","0.0-191.0","5e4465013f75e52fc82f7096","62015595d450ad4b4349a950","","","","","<p style=""color:darkgreen;font-size:24px;"">Correct :)</p>","",""
"2369","key","n","n","16.79811971830975","499.84","249.92","psychophysics","192","446863","0.0-192.0","5e4465013f75e52fc82f7096","62015595d450ad4b4349a950","4","","","","","1","8"
"null","","","null","","","","html-keyboard-response","193","447363","0.0-193.0","5e4465013f75e52fc82f7096","62015595d450ad4b4349a950","","","","","<p style=""color:darkgreen;font-size:24px;"">Correct :)</p>","",""
"8796","","","v","","","","html-keyboard-response","194","456160","0.0-194.0","5e4465013f75e52fc82f7096","62015595d450ad4b4349a950","","","","","<p> Ok, now we are going present the same digits as before.  Your job is to say whether the digit is even or odd  If the digit is odd, press to v key; if it is even, press the n key. We are going to do 50 of these.  </p>  <br><br>  Ready? (press v or n)","",""
"2491","key","n","n","16.682134228187767","499.84","249.92","psychophysics","195","458653","0.0-195.0","5e4465013f75e52fc82f7096","62015595d450ad4b4349a950","5","","","","","0","6"
"null","","","null","","","","html-keyboard-response","196","459153","0.0-196.0","5e4465013f75e52fc82f7096","62015595d450ad4b4349a950","","","","","<p style=""color:darkgreen;font-size:24px;"">Correct :)</p>","",""
"2447","key","n","n","16.794938356164295","499.84","249.92","psychophysics","197","461602","0.0-197.0","5e4465013f75e52fc82f7096","62015595d450ad4b4349a950","5","","","","","0","8"
"null","","","null","","","","html-keyboard-response","198","462102","0.0-198.0","5e4465013f75e52fc82f7096","62015595d450ad4b4349a950","","","","","<p style=""color:darkgreen;font-size:24px;"">Correct :)</p>","",""
"2537","key","n","n","16.680763157894898","499.84","249.92","psychophysics","199","464641","0.0-199.0","5e4465013f75e52fc82f7096","62015595d450ad4b4349a950","5","","","","","0","9"
"null","","","null","","","","html-keyboard-response","200","465142","0.0-200.0","5e4465013f75e52fc82f7096","62015595d450ad4b4349a950","","","","","<p style=""color:red;font-size:24px;"">Error :(</p>","",""
"2507","key","n","n","16.79183333333349","499.84","249.92","psychophysics","201","467651","0.0-201.0","5e4465013f75e52fc82f7096","62015595d450ad4b4349a950","5","","","","","0","6"
"null","","","null","","","","html-keyboard-response","202","468152","0.0-202.0","5e4465013f75e52fc82f7096","62015595d450ad4b4349a950","","","","","<p style=""color:darkgreen;font-size:24px;"">Correct :)</p>","",""
"2426","key","n","n","16.680648275861788","499.84","249.92","psychophysics","203","470580","0.0-203.0","5e4465013f75e52fc82f7096","62015595d450ad4b4349a950","5","","","","","0","6"
"null","","","null","","","","html-keyboard-response","204","471081","0.0-204.0","5e4465013f75e52fc82f7096","62015595d450ad4b4349a950","","","","","<p style=""color:darkgreen;font-size:24px;"">Correct :)</p>","",""
"2525","key","n","n","16.68062251655613","499.84","249.92","psychophysics","205","473607","0.0-205.0","5e4465013f75e52fc82f7096","62015595d450ad4b4349a950","5","","","","","0","6"
"null","","","null","","","","html-keyboard-response","206","474109","0.0-206.0","5e4465013f75e52fc82f7096","62015595d450ad4b4349a950","","","","","<p style=""color:darkgreen;font-size:24px;"">Correct :)</p>","",""
"2489","key","v","v","16.68062416107383","499.84","249.92","psychophysics","207","476600","0.0-207.0","5e4465013f75e52fc82f7096","62015595d450ad4b4349a950","5","","","","","0","3"
"null","","","null","","","","html-keyboard-response","208","477101","0.0-208.0","5e4465013f75e52fc82f7096","62015595d450ad4b4349a950","","","","","<p style=""color:darkgreen;font-size:24px;"">Correct :)</p>","",""
"2777","key","v","v","16.68064071856297","499.84","249.92","psychophysics","209","479879","0.0-209.0","5e4465013f75e52fc82f7096","62015595d450ad4b4349a950","5","","","","","0","7"
"null","","","null","","","","html-keyboard-response","210","480380","0.0-210.0","5e4465013f75e52fc82f7096","62015595d450ad4b4349a950","","","","","<p style=""color:darkgreen;font-size:24px;"">Correct :)</p>","",""
"2394","key","v","v","16.680555555555557","499.84","249.92","psychophysics","211","482776","0.0-211.0","5e4465013f75e52fc82f7096","62015595d450ad4b4349a950","5","","","","","0","7"
"null","","","null","","","","html-keyboard-response","212","483277","0.0-212.0","5e4465013f75e52fc82f7096","62015595d450ad4b4349a950","","","","","<p style=""color:darkgreen;font-size:24px;"">Correct :)</p>","",""
"2850","key","n","n","16.680602339181124","499.84","249.92","psychophysics","213","486130","0.0-213.0","5e4465013f75e52fc82f7096","62015595d450ad4b4349a950","5","","","","","0","6"
"null","","","null","","","","html-keyboard-response","214","486632","0.0-214.0","5e4465013f75e52fc82f7096","62015595d450ad4b4349a950","","","","","<p style=""color:darkgreen;font-size:24px;"">Correct :)</p>","",""
"2540","key","n","n","16.680815789473662","499.84","249.92","psychophysics","215","489174","0.0-215.0","5e4465013f75e52fc82f7096","62015595d450ad4b4349a950","5","","","","","0","6"
"null","","","null","","","","html-keyboard-response","216","489675","0.0-216.0","5e4465013f75e52fc82f7096","62015595d450ad4b4349a950","","","","","<p style=""color:darkgreen;font-size:24px;"">Correct :)</p>","",""
"2472","key","n","n","16.680637583892477","499.84","249.92","psychophysics","217","492149","0.0-217.0","5e4465013f75e52fc82f7096","62015595d450ad4b4349a950","5","","","","","0","6"
"null","","","null","","","","html-keyboard-response","218","492650","0.0-218.0","5e4465013f75e52fc82f7096","62015595d450ad4b4349a950","","","","","<p style=""color:darkgreen;font-size:24px;"">Correct :)</p>","",""
"2748","key","n","n","16.680420731707184","499.84","249.92","psychophysics","219","495400","0.0-219.0","5e4465013f75e52fc82f7096","62015595d450ad4b4349a950","5","","","","","0","4"
"null","","","null","","","","html-keyboard-response","220","495901","0.0-220.0","5e4465013f75e52fc82f7096","62015595d450ad4b4349a950","","","","","<p style=""color:darkgreen;font-size:24px;"">Correct :)</p>","",""
"2393","key","n","n","16.79737062937046","499.84","249.92","psychophysics","221","498296","0.0-221.0","5e4465013f75e52fc82f7096","62015595d450ad4b4349a950","5","","","","","0","9"
"null","","","null","","","","html-keyboard-response","222","498797","0.0-222.0","5e4465013f75e52fc82f7096","62015595d450ad4b4349a950","","","","","<p style=""color:red;font-size:24px;"">Error :(</p>","",""
"2448","key","n","n","16.68065306122437","499.84","249.92","psychophysics","223","501246","0.0-223.0","5e4465013f75e52fc82f7096","62015595d450ad4b4349a950","5","","","","","0","6"
"null","","","null","","","","html-keyboard-response","224","501747","0.0-224.0","5e4465013f75e52fc82f7096","62015595d450ad4b4349a950","","","","","<p style=""color:darkgreen;font-size:24px;"">Correct :)</p>","",""
"2563","key","n","n","16.680610389610475","499.84","249.92","psychophysics","225","504312","0.0-225.0","5e4465013f75e52fc82f7096","62015595d450ad4b4349a950","5","","","","","0","4"
"null","","","null","","","","html-keyboard-response","226","504813","0.0-226.0","5e4465013f75e52fc82f7096","62015595d450ad4b4349a950","","","","","<p style=""color:darkgreen;font-size:24px;"">Correct :)</p>","",""
"2659","key","n","n","16.68068553459151","499.84","249.92","psychophysics","227","507473","0.0-227.0","5e4465013f75e52fc82f7096","62015595d450ad4b4349a950","5","","","","","0","4"
"null","","","null","","","","html-keyboard-response","228","507974","0.0-228.0","5e4465013f75e52fc82f7096","62015595d450ad4b4349a950","","","","","<p style=""color:darkgreen;font-size:24px;"">Correct :)</p>","",""
"2437","key","n","n","16.680636986301515","499.84","249.92","psychophysics","229","510412","0.0-229.0","5e4465013f75e52fc82f7096","62015595d450ad4b4349a950","5","","","","","0","6"
"null","","","null","","","","html-keyboard-response","230","510914","0.0-230.0","5e4465013f75e52fc82f7096","62015595d450ad4b4349a950","","","","","<p style=""color:darkgreen;font-size:24px;"">Correct :)</p>","",""
"2656","key","v","v","16.680597484276525","499.84","249.92","psychophysics","231","513572","0.0-231.0","5e4465013f75e52fc82f7096","62015595d450ad4b4349a950","5","","","","","0","1"
"null","","","null","","","","html-keyboard-response","232","514073","0.0-232.0","5e4465013f75e52fc82f7096","62015595d450ad4b4349a950","","","","","<p style=""color:darkgreen;font-size:24px;"">Correct :)</p>","",""
"2622","key","n","n","16.680885350318317","499.84","249.92","psychophysics","233","516696","0.0-233.0","5e4465013f75e52fc82f7096","62015595d450ad4b4349a950","5","","","","","0","2"
"null","","","null","","","","html-keyboard-response","234","517197","0.0-234.0","5e4465013f75e52fc82f7096","62015595d450ad4b4349a950","","","","","<p style=""color:darkgreen;font-size:24px;"">Correct :)</p>","",""
"2433","key","n","n","16.680910958904114","499.84","249.92","psychophysics","235","519632","0.0-235.0","5e4465013f75e52fc82f7096","62015595d450ad4b4349a950","5","","","","","0","8"
"null","","","null","","","","html-keyboard-response","236","520132","0.0-236.0","5e4465013f75e52fc82f7096","62015595d450ad4b4349a950","","","","","<p style=""color:darkgreen;font-size:24px;"">Correct :)</p>","",""
"2509","key","v","v","16.680543046357535","499.84","249.92","psychophysics","237","522643","0.0-237.0","5e4465013f75e52fc82f7096","62015595d450ad4b4349a950","5","","","","","0","1"
"null","","","null","","","","html-keyboard-response","238","523144","0.0-238.0","5e4465013f75e52fc82f7096","62015595d450ad4b4349a950","","","","","<p style=""color:darkgreen;font-size:24px;"">Correct :)</p>","",""
"2802","key","v","v","16.680428571428777","499.84","249.92","psychophysics","239","525948","0.0-239.0","5e4465013f75e52fc82f7096","62015595d450ad4b4349a950","5","","","","","0","1"
"null","","","null","","","","html-keyboard-response","240","526449","0.0-240.0","5e4465013f75e52fc82f7096","62015595d450ad4b4349a950","","","","","<p style=""color:darkgreen;font-size:24px;"">Correct :)</p>","",""
"2648","key","n","n","16.6805534591194","499.84","249.92","psychophysics","241","529099","0.0-241.0","5e4465013f75e52fc82f7096","62015595d450ad4b4349a950","5","","","","","0","8"
"null","","","null","","","","html-keyboard-response","242","529600","0.0-242.0","5e4465013f75e52fc82f7096","62015595d450ad4b4349a950","","","","","<p style=""color:darkgreen;font-size:24px;"">Correct :)</p>","",""
"2589","key","v","v","16.680480519480483","499.84","249.92","psychophysics","243","532191","0.0-243.0","5e4465013f75e52fc82f7096","62015595d450ad4b4349a950","5","","","","","0","2"
"null","","","null","","","","html-keyboard-response","244","532692","0.0-244.0","5e4465013f75e52fc82f7096","62015595d450ad4b4349a950","","","","","<p style=""color:red;font-size:24px;"">Error :(</p>","",""
"2760","key","v","v","16.68075301204822","499.84","249.92","psychophysics","245","535454","0.0-245.0","5e4465013f75e52fc82f7096","62015595d450ad4b4349a950","5","","","","","0","3"
"null","","","null","","","","html-keyboard-response","246","535956","0.0-246.0","5e4465013f75e52fc82f7096","62015595d450ad4b4349a950","","","","","<p style=""color:darkgreen;font-size:24px;"">Correct :)</p>","",""
"2594","key","n","n","16.680703225806205","499.84","249.92","psychophysics","247","538552","0.0-247.0","5e4465013f75e52fc82f7096","62015595d450ad4b4349a950","5","","","","","0","8"
"null","","","null","","","","html-keyboard-response","248","539053","0.0-248.0","5e4465013f75e52fc82f7096","62015595d450ad4b4349a950","","","","","<p style=""color:darkgreen;font-size:24px;"">Correct :)</p>","",""
"2715","key","v","v","16.783512345679036","499.84","249.92","psychophysics","249","541770","0.0-249.0","5e4465013f75e52fc82f7096","62015595d450ad4b4349a950","5","","","","","0","1"
"null","","","null","","","","html-keyboard-response","250","542271","0.0-250.0","5e4465013f75e52fc82f7096","62015595d450ad4b4349a950","","","","","<p style=""color:darkgreen;font-size:24px;"">Correct :)</p>","",""
"2649","key","n","n","16.680616352201216","499.84","249.92","psychophysics","251","544922","0.0-251.0","5e4465013f75e52fc82f7096","62015595d450ad4b4349a950","5","","","","","0","4"
"null","","","null","","","","html-keyboard-response","252","545423","0.0-252.0","5e4465013f75e52fc82f7096","62015595d450ad4b4349a950","","","","","<p style=""color:darkgreen;font-size:24px;"">Correct :)</p>","",""
"2732","key","v","v","16.680634146341173","499.84","249.92","psychophysics","253","548157","0.0-253.0","5e4465013f75e52fc82f7096","62015595d450ad4b4349a950","5","","","","","0","9"
"null","","","null","","","","html-keyboard-response","254","548658","0.0-254.0","5e4465013f75e52fc82f7096","62015595d450ad4b4349a950","","","","","<p style=""color:darkgreen;font-size:24px;"">Correct :)</p>","",""
"2717","key","n","n","16.68047852760775","499.84","249.92","psychophysics","255","551377","0.0-255.0","5e4465013f75e52fc82f7096","62015595d450ad4b4349a950","5","","","","","0","6"
"null","","","null","","","","html-keyboard-response","256","551877","0.0-256.0","5e4465013f75e52fc82f7096","62015595d450ad4b4349a950","","","","","<p style=""color:darkgreen;font-size:24px;"">Correct :)</p>","",""
"2711","key","v","v","16.680760736196543","499.84","249.92","psychophysics","257","554590","0.0-257.0","5e4465013f75e52fc82f7096","62015595d450ad4b4349a950","5","","","","","0","7"
"null","","","null","","","","html-keyboard-response","258","555090","0.0-258.0","5e4465013f75e52fc82f7096","62015595d450ad4b4349a950","","","","","<p style=""color:darkgreen;font-size:24px;"">Correct :)</p>","",""
"4343","key","v","v","16.680569230769134","499.84","249.92","psychophysics","259","559435","0.0-259.0","5e4465013f75e52fc82f7096","62015595d450ad4b4349a950","5","","","","","0","3"
"null","","","null","","","","html-keyboard-response","260","559936","0.0-260.0","5e4465013f75e52fc82f7096","62015595d450ad4b4349a950","","","","","<p style=""color:darkgreen;font-size:24px;"">Correct :)</p>","",""
"3256","key","n","n","16.680653061224767","499.84","249.92","psychophysics","261","563193","0.0-261.0","5e4465013f75e52fc82f7096","62015595d450ad4b4349a950","5","","","","","0","8"
"null","","","null","","","","html-keyboard-response","262","563694","0.0-262.0","5e4465013f75e52fc82f7096","62015595d450ad4b4349a950","","","","","<p style=""color:darkgreen;font-size:24px;"">Correct :)</p>","",""
"2540","key","v","v","16.68040131579006","499.84","249.92","psychophysics","263","566237","0.0-263.0","5e4465013f75e52fc82f7096","62015595d450ad4b4349a950","5","","","","","0","1"
"null","","","null","","","","html-keyboard-response","264","566738","0.0-264.0","5e4465013f75e52fc82f7096","62015595d450ad4b4349a950","","","","","<p style=""color:darkgreen;font-size:24px;"">Correct :)</p>","",""
"2487","key","n","n","16.68079865771743","499.84","249.92","psychophysics","265","569227","0.0-265.0","5e4465013f75e52fc82f7096","62015595d450ad4b4349a950","5","","","","","0","2"
"null","","","null","","","","html-keyboard-response","266","569728","0.0-266.0","5e4465013f75e52fc82f7096","62015595d450ad4b4349a950","","","","","<p style=""color:darkgreen;font-size:24px;"">Correct :)</p>","",""
"2515","key","v","v","16.68072847682144","499.84","249.92","psychophysics","267","572245","0.0-267.0","5e4465013f75e52fc82f7096","62015595d450ad4b4349a950","5","","","","","0","7"
"null","","","null","","","","html-keyboard-response","268","572746","0.0-268.0","5e4465013f75e52fc82f7096","62015595d450ad4b4349a950","","","","","<p style=""color:darkgreen;font-size:24px;"">Correct :)</p>","",""
"2802","key","v","v","16.680601190476278","499.84","249.92","psychophysics","269","575550","0.0-269.0","5e4465013f75e52fc82f7096","62015595d450ad4b4349a950","5","","","","","0","7"
"null","","","null","","","","html-keyboard-response","270","576050","0.0-270.0","5e4465013f75e52fc82f7096","62015595d450ad4b4349a950","","","","","<p style=""color:darkgreen;font-size:24px;"">Correct :)</p>","",""
"2594","key","n","n","16.78850322580641","499.84","249.92","psychophysics","271","578645","0.0-271.0","5e4465013f75e52fc82f7096","62015595d450ad4b4349a950","5","","","","","0","6"
"null","","","null","","","","html-keyboard-response","272","579146","0.0-272.0","5e4465013f75e52fc82f7096","62015595d450ad4b4349a950","","","","","<p style=""color:darkgreen;font-size:24px;"">Correct :)</p>","",""
"2573","key","n","n","16.680597402597627","499.84","249.92","psychophysics","273","581720","0.0-273.0","5e4465013f75e52fc82f7096","62015595d450ad4b4349a950","5","","","","","0","2"
"null","","","null","","","","html-keyboard-response","274","582221","0.0-274.0","5e4465013f75e52fc82f7096","62015595d450ad4b4349a950","","","","","<p style=""color:darkgreen;font-size:24px;"">Correct :)</p>","",""
"2603","key","v","v","16.680585987260862","499.84","249.92","psychophysics","275","584826","0.0-275.0","5e4465013f75e52fc82f7096","62015595d450ad4b4349a950","5","","","","","0","3"
"null","","","null","","","","html-keyboard-response","276","585327","0.0-276.0","5e4465013f75e52fc82f7096","62015595d450ad4b4349a950","","","","","<p style=""color:darkgreen;font-size:24px;"">Correct :)</p>","",""
"2979","key","v","v","16.68074719101162","499.84","249.92","psychophysics","277","588308","0.0-277.0","5e4465013f75e52fc82f7096","62015595d450ad4b4349a950","5","","","","","0","2"
"null","","","null","","","","html-keyboard-response","278","588809","0.0-278.0","5e4465013f75e52fc82f7096","62015595d450ad4b4349a950","","","","","<p style=""color:red;font-size:24px;"">Error :(</p>","",""
"2654","key","v","v","16.680849999999918","499.84","249.92","psychophysics","279","591465","0.0-279.0","5e4465013f75e52fc82f7096","62015595d450ad4b4349a950","5","","","","","0","3"
"null","","","null","","","","html-keyboard-response","280","591966","0.0-280.0","5e4465013f75e52fc82f7096","62015595d450ad4b4349a950","","","","","<p style=""color:darkgreen;font-size:24px;"">Correct :)</p>","",""
"2512","key","n","n","16.680580000000386","499.84","249.92","psychophysics","281","594480","0.0-281.0","5e4465013f75e52fc82f7096","62015595d450ad4b4349a950","5","","","","","0","6"
"null","","","null","","","","html-keyboard-response","282","594981","0.0-282.0","5e4465013f75e52fc82f7096","62015595d450ad4b4349a950","","","","","<p style=""color:darkgreen;font-size:24px;"">Correct :)</p>","",""
"2964","key","v","v","16.680820224719028","499.84","249.92","psychophysics","283","597946","0.0-283.0","5e4465013f75e52fc82f7096","62015595d450ad4b4349a950","5","","","","","0","7"
"null","","","null","","","","html-keyboard-response","284","598448","0.0-284.0","5e4465013f75e52fc82f7096","62015595d450ad4b4349a950","","","","","<p style=""color:darkgreen;font-size:24px;"">Correct :)</p>","",""
"2531","key","v","v","16.680618421052042","499.84","249.92","psychophysics","285","600981","0.0-285.0","5e4465013f75e52fc82f7096","62015595d450ad4b4349a950","5","","","","","0","3"
"null","","","null","","","","html-keyboard-response","286","601481","0.0-286.0","5e4465013f75e52fc82f7096","62015595d450ad4b4349a950","","","","","<p style=""color:darkgreen;font-size:24px;"">Correct :)</p>","",""
"2526","key","v","v","16.6805394736837","499.84","249.92","psychophysics","287","604009","0.0-287.0","5e4465013f75e52fc82f7096","62015595d450ad4b4349a950","5","","","","","0","1"
"null","","","null","","","","html-keyboard-response","288","604510","0.0-288.0","5e4465013f75e52fc82f7096","62015595d450ad4b4349a950","","","","","<p style=""color:darkgreen;font-size:24px;"">Correct :)</p>","",""
"2894","key","n","n","16.680797687860885","499.84","249.92","psychophysics","289","607406","0.0-289.0","5e4465013f75e52fc82f7096","62015595d450ad4b4349a950","5","","","","","0","2"
"null","","","null","","","","html-keyboard-response","290","607907","0.0-290.0","5e4465013f75e52fc82f7096","62015595d450ad4b4349a950","","","","","<p style=""color:darkgreen;font-size:24px;"">Correct :)</p>","",""
"2534","key","n","n","16.680486842105317","499.84","249.92","psychophysics","291","610443","0.0-291.0","5e4465013f75e52fc82f7096","62015595d450ad4b4349a950","5","","","","","0","2"
"null","","","null","","","","html-keyboard-response","292","610943","0.0-292.0","5e4465013f75e52fc82f7096","62015595d450ad4b4349a950","","","","","<p style=""color:darkgreen;font-size:24px;"">Correct :)</p>","",""
"2427","key","n","n","16.680636986301515","499.84","249.92","psychophysics","293","613372","0.0-293.0","5e4465013f75e52fc82f7096","62015595d450ad4b4349a950","5","","","","","0","4"
"null","","","null","","","","html-keyboard-response","294","613874","0.0-294.0","5e4465013f75e52fc82f7096","62015595d450ad4b4349a950","","","","","<p style=""color:darkgreen;font-size:24px;"">Correct :)</p>","",""
"8943","","","n","","","","html-keyboard-response","295","622817","0.0-295.0","5e4465013f75e52fc82f7096","62015595d450ad4b4349a950","","","","","<p> Here, the tasks are going to switch.  For some trials, your job is to decide if the digit is less than or greater than 5.  For others, it is to decide if the digit is even or odd.  You will be told which type of trial the current one is.  But, pay attention, the type of trial changes too.  We are going to do 50 of these.  </p>  <br><br>  Ready? (press v or n)","",""
"2777","key","v","v","16.681999999999828","499.84","249.92","psychophysics","296","625596","0.0-296.0","5e4465013f75e52fc82f7096","62015595d450ad4b4349a950","6","","","","","0","9"
"null","","","null","","","","html-keyboard-response","297","626097","0.0-297.0","5e4465013f75e52fc82f7096","62015595d450ad4b4349a950","","","","","<p style=""color:darkgreen;font-size:24px;"">Correct :)</p>","",""
"2474","key","v","v","16.680641891892584","499.84","249.92","psychophysics","298","628573","0.0-298.0","5e4465013f75e52fc82f7096","62015595d450ad4b4349a950","6","","","","","1","4"
"null","","","null","","","","html-keyboard-response","299","629074","0.0-299.0","5e4465013f75e52fc82f7096","62015595d450ad4b4349a950","","","","","<p style=""color:darkgreen;font-size:24px;"">Correct :)</p>","",""
"2599","key","v","v","16.680762820512218","499.84","249.92","psychophysics","300","631674","0.0-300.0","5e4465013f75e52fc82f7096","62015595d450ad4b4349a950","6","","","","","0","7"
"null","","","null","","","","html-keyboard-response","301","632175","0.0-301.0","5e4465013f75e52fc82f7096","62015595d450ad4b4349a950","","","","","<p style=""color:darkgreen;font-size:24px;"">Correct :)</p>","",""
"2520","key","n","n","16.680668874171914","499.84","249.92","psychophysics","302","634697","0.0-302.0","5e4465013f75e52fc82f7096","62015595d450ad4b4349a950","6","","","","","0","2"
"null","","","null","","","","html-keyboard-response","303","635198","0.0-303.0","5e4465013f75e52fc82f7096","62015595d450ad4b4349a950","","","","","<p style=""color:darkgreen;font-size:24px;"">Correct :)</p>","",""
"2393","key","v","v","16.79746853146894","499.84","249.92","psychophysics","304","637593","0.0-304.0","5e4465013f75e52fc82f7096","62015595d450ad4b4349a950","6","","","","","1","1"
"null","","","null","","","","html-keyboard-response","305","638094","0.0-305.0","5e4465013f75e52fc82f7096","62015595d450ad4b4349a950","","","","","<p style=""color:darkgreen;font-size:24px;"">Correct :)</p>","",""
"2731","key","n","n","16.68061585365809","499.84","249.92","psychophysics","306","640827","0.0-306.0","5e4465013f75e52fc82f7096","62015595d450ad4b4349a950","6","","","","","0","2"
"null","","","null","","","","html-keyboard-response","307","641328","0.0-307.0","5e4465013f75e52fc82f7096","62015595d450ad4b4349a950","","","","","<p style=""color:darkgreen;font-size:24px;"">Correct :)</p>","",""
"2810","key","n","n","16.680470238095342","499.84","249.92","psychophysics","308","644140","0.0-308.0","5e4465013f75e52fc82f7096","62015595d450ad4b4349a950","6","","","","","1","4"
"null","","","null","","","","html-keyboard-response","309","644641","0.0-309.0","5e4465013f75e52fc82f7096","62015595d450ad4b4349a950","","","","","<p style=""color:red;font-size:24px;"">Error :(</p>","",""
"2620","key","n","n","16.681101910828517","499.84","249.92","psychophysics","310","647263","0.0-310.0","5e4465013f75e52fc82f7096","62015595d450ad4b4349a950","6","","","","","0","6"
"null","","","null","","","","html-keyboard-response","311","647763","0.0-311.0","5e4465013f75e52fc82f7096","62015595d450ad4b4349a950","","","","","<p style=""color:darkgreen;font-size:24px;"">Correct :)</p>","",""
"2558","key","v","v","16.68082352941156","499.84","249.92","psychophysics","312","650323","0.0-312.0","5e4465013f75e52fc82f7096","62015595d450ad4b4349a950","6","","","","","1","3"
"null","","","null","","","","html-keyboard-response","313","650824","0.0-313.0","5e4465013f75e52fc82f7096","62015595d450ad4b4349a950","","","","","<p style=""color:darkgreen;font-size:24px;"">Correct :)</p>","",""
"2468","key","v","v","16.68060135135169","499.84","249.92","psychophysics","314","653294","0.0-314.0","5e4465013f75e52fc82f7096","62015595d450ad4b4349a950","6","","","","","1","3"
"null","","","null","","","","html-keyboard-response","315","653795","0.0-315.0","5e4465013f75e52fc82f7096","62015595d450ad4b4349a950","","","","","<p style=""color:darkgreen;font-size:24px;"">Correct :)</p>","",""
"2394","key","v","v","16.680881944444586","499.84","249.92","psychophysics","316","656190","0.0-316.0","5e4465013f75e52fc82f7096","62015595d450ad4b4349a950","6","","","","","1","4"
"null","","","null","","","","html-keyboard-response","317","656691","0.0-317.0","5e4465013f75e52fc82f7096","62015595d450ad4b4349a950","","","","","<p style=""color:darkgreen;font-size:24px;"">Correct :)</p>","",""
"2939","key","n","n","16.68057954545392","499.84","249.92","psychophysics","318","659632","0.0-318.0","5e4465013f75e52fc82f7096","62015595d450ad4b4349a950","6","","","","","0","9"
"null","","","null","","","","html-keyboard-response","319","660133","0.0-319.0","5e4465013f75e52fc82f7096","62015595d450ad4b4349a950","","","","","<p style=""color:red;font-size:24px;"">Error :(</p>","",""
"2518","key","v","v","16.681251655628795","499.84","249.92","psychophysics","320","662652","0.0-320.0","5e4465013f75e52fc82f7096","62015595d450ad4b4349a950","6","","","","","1","4"
"null","","","null","","","","html-keyboard-response","321","663153","0.0-321.0","5e4465013f75e52fc82f7096","62015595d450ad4b4349a950","","","","","<p style=""color:darkgreen;font-size:24px;"">Correct :)</p>","",""
"2487","key","v","v","16.680619999999955","499.84","249.92","psychophysics","322","665642","0.0-322.0","5e4465013f75e52fc82f7096","62015595d450ad4b4349a950","6","","","","","1","2"
"null","","","null","","","","html-keyboard-response","323","666143","0.0-323.0","5e4465013f75e52fc82f7096","62015595d450ad4b4349a950","","","","","<p style=""color:darkgreen;font-size:24px;"">Correct :)</p>","",""
"2458","key","v","v","16.680693877550464","499.84","249.92","psychophysics","324","668603","0.0-324.0","5e4465013f75e52fc82f7096","62015595d450ad4b4349a950","6","","","","","1","2"
"null","","","null","","","","html-keyboard-response","325","669104","0.0-325.0","5e4465013f75e52fc82f7096","62015595d450ad4b4349a950","","","","","<p style=""color:darkgreen;font-size:24px;"">Correct :)</p>","",""
"2553","key","n","n","16.680875816993456","499.84","249.92","psychophysics","326","671658","0.0-326.0","5e4465013f75e52fc82f7096","62015595d450ad4b4349a950","6","","","","","0","9"
"null","","","null","","","","html-keyboard-response","327","672159","0.0-327.0","5e4465013f75e52fc82f7096","62015595d450ad4b4349a950","","","","","<p style=""color:red;font-size:24px;"">Error :(</p>","",""
"3455","key","n","n","16.680937198067202","499.84","249.92","psychophysics","328","675616","0.0-328.0","5e4465013f75e52fc82f7096","62015595d450ad4b4349a950","6","","","","","0","4"
"null","","","null","","","","html-keyboard-response","329","676116","0.0-329.0","5e4465013f75e52fc82f7096","62015595d450ad4b4349a950","","","","","<p style=""color:darkgreen;font-size:24px;"">Correct :)</p>","",""
"3569","key","n","n","16.68070093457909","499.84","249.92","psychophysics","330","679687","0.0-330.0","5e4465013f75e52fc82f7096","62015595d450ad4b4349a950","6","","","","","1","7"
"null","","","null","","","","html-keyboard-response","331","680189","0.0-331.0","5e4465013f75e52fc82f7096","62015595d450ad4b4349a950","","","","","<p style=""color:darkgreen;font-size:24px;"">Correct :)</p>","",""
"3063","key","n","n","16.68053005464487","499.84","249.92","psychophysics","332","683255","0.0-332.0","5e4465013f75e52fc82f7096","62015595d450ad4b4349a950","6","","","","","1","7"
"null","","","null","","","","html-keyboard-response","333","683755","0.0-333.0","5e4465013f75e52fc82f7096","62015595d450ad4b4349a950","","","","","<p style=""color:darkgreen;font-size:24px;"">Correct :)</p>","",""
"2521","key","n","n","16.791185430463848","499.84","249.92","psychophysics","334","686277","0.0-334.0","5e4465013f75e52fc82f7096","62015595d450ad4b4349a950","6","","","","","0","6"
"null","","","null","","","","html-keyboard-response","335","686779","0.0-335.0","5e4465013f75e52fc82f7096","62015595d450ad4b4349a950","","","","","<p style=""color:darkgreen;font-size:24px;"">Correct :)</p>","",""
"2493","key","v","v","16.68059060402721","499.84","249.92","psychophysics","336","689274","0.0-336.0","5e4465013f75e52fc82f7096","62015595d450ad4b4349a950","6","","","","","1","4"
"null","","","null","","","","html-keyboard-response","337","689775","0.0-337.0","5e4465013f75e52fc82f7096","62015595d450ad4b4349a950","","","","","<p style=""color:darkgreen;font-size:24px;"">Correct :)</p>","",""
"2525","key","n","n","16.680907894736983","499.84","249.92","psychophysics","338","692302","0.0-338.0","5e4465013f75e52fc82f7096","62015595d450ad4b4349a950","6","","","","","1","8"
"null","","","null","","","","html-keyboard-response","339","692802","0.0-339.0","5e4465013f75e52fc82f7096","62015595d450ad4b4349a950","","","","","<p style=""color:darkgreen;font-size:24px;"">Correct :)</p>","",""
"2715","key","v","v","16.680300613496726","499.84","249.92","psychophysics","340","695519","0.0-340.0","5e4465013f75e52fc82f7096","62015595d450ad4b4349a950","6","","","","","1","3"
"null","","","null","","","","html-keyboard-response","341","696020","0.0-341.0","5e4465013f75e52fc82f7096","62015595d450ad4b4349a950","","","","","<p style=""color:darkgreen;font-size:24px;"">Correct :)</p>","",""
"2961","key","v","v","16.68055932203342","499.84","249.92","psychophysics","342","698983","0.0-342.0","5e4465013f75e52fc82f7096","62015595d450ad4b4349a950","6","","","","","1","3"
"null","","","null","","","","html-keyboard-response","343","699484","0.0-343.0","5e4465013f75e52fc82f7096","62015595d450ad4b4349a950","","","","","<p style=""color:darkgreen;font-size:24px;"">Correct :)</p>","",""
"2471","key","v","v","16.680697986577176","499.84","249.92","psychophysics","344","701959","0.0-344.0","5e4465013f75e52fc82f7096","62015595d450ad4b4349a950","6","","","","","1","3"
"null","","","null","","","","html-keyboard-response","345","702460","0.0-345.0","5e4465013f75e52fc82f7096","62015595d450ad4b4349a950","","","","","<p style=""color:darkgreen;font-size:24px;"">Correct :)</p>","",""
"2628","key","v","v","16.680732484076433","499.84","249.92","psychophysics","346","705090","0.0-346.0","5e4465013f75e52fc82f7096","62015595d450ad4b4349a950","6","","","","","0","3"
"null","","","null","","","","html-keyboard-response","347","705591","0.0-347.0","5e4465013f75e52fc82f7096","62015595d450ad4b4349a950","","","","","<p style=""color:darkgreen;font-size:24px;"">Correct :)</p>","",""
"2414","key","v","v","16.68049305555582","499.84","249.92","psychophysics","348","708007","0.0-348.0","5e4465013f75e52fc82f7096","62015595d450ad4b4349a950","6","","","","","1","3"
"null","","","null","","","","html-keyboard-response","349","708509","0.0-349.0","5e4465013f75e52fc82f7096","62015595d450ad4b4349a950","","","","","<p style=""color:darkgreen;font-size:24px;"">Correct :)</p>","",""
"3874","key","v","v","16.7525517241377","499.84","249.92","psychophysics","350","712384","0.0-350.0","5e4465013f75e52fc82f7096","62015595d450ad4b4349a950","6","","","","","1","2"
"null","","","null","","","","html-keyboard-response","351","712885","0.0-351.0","5e4465013f75e52fc82f7096","62015595d450ad4b4349a950","","","","","<p style=""color:darkgreen;font-size:24px;"">Correct :)</p>","",""
"3915","key","n","n","16.680314893617314","499.84","249.92","psychophysics","352","716802","0.0-352.0","5e4465013f75e52fc82f7096","62015595d450ad4b4349a950","6","","","","","1","9"
"null","","","null","","","","html-keyboard-response","353","717303","0.0-353.0","5e4465013f75e52fc82f7096","62015595d450ad4b4349a950","","","","","<p style=""color:darkgreen;font-size:24px;"">Correct :)</p>","",""
"3573","key","v","v","16.680757009345935","499.84","249.92","psychophysics","354","720878","0.0-354.0","5e4465013f75e52fc82f7096","62015595d450ad4b4349a950","6","","","","","0","9"
"null","","","null","","","","html-keyboard-response","355","721379","0.0-355.0","5e4465013f75e52fc82f7096","62015595d450ad4b4349a950","","","","","<p style=""color:darkgreen;font-size:24px;"">Correct :)</p>","",""
"3100","key","n","n","16.680543010752718","499.84","249.92","psychophysics","356","724489","0.0-356.0","5e4465013f75e52fc82f7096","62015595d450ad4b4349a950","6","","","","","1","7"
"null","","","null","","","","html-keyboard-response","357","724989","0.0-357.0","5e4465013f75e52fc82f7096","62015595d450ad4b4349a950","","","","","<p style=""color:darkgreen;font-size:24px;"">Correct :)</p>","",""
"2362","key","v","v","16.680584507041715","499.84","249.92","psychophysics","358","727353","0.0-358.0","5e4465013f75e52fc82f7096","62015595d450ad4b4349a950","6","","","","","1","2"
"null","","","null","","","","html-keyboard-response","359","727855","0.0-359.0","5e4465013f75e52fc82f7096","62015595d450ad4b4349a950","","","","","<p style=""color:darkgreen;font-size:24px;"">Correct :)</p>","",""
"2431","key","n","n","16.680486301369232","499.84","249.92","psychophysics","360","730287","0.0-360.0","5e4465013f75e52fc82f7096","62015595d450ad4b4349a950","6","","","","","1","8"
"null","","","null","","","","html-keyboard-response","361","730788","0.0-361.0","5e4465013f75e52fc82f7096","62015595d450ad4b4349a950","","","","","<p style=""color:darkgreen;font-size:24px;"">Correct :)</p>","",""
"2618","key","n","n","16.680630573248017","499.84","249.92","psychophysics","362","733408","0.0-362.0","5e4465013f75e52fc82f7096","62015595d450ad4b4349a950","6","","","","","0","2"
"null","","","null","","","","html-keyboard-response","363","733909","0.0-363.0","5e4465013f75e52fc82f7096","62015595d450ad4b4349a950","","","","","<p style=""color:darkgreen;font-size:24px;"">Correct :)</p>","",""
"3170","key","v","v","16.680552631579218","499.84","249.92","psychophysics","364","737081","0.0-364.0","5e4465013f75e52fc82f7096","62015595d450ad4b4349a950","6","","","","","1","3"
"null","","","null","","","","html-keyboard-response","365","737582","0.0-365.0","5e4465013f75e52fc82f7096","62015595d450ad4b4349a950","","","","","<p style=""color:darkgreen;font-size:24px;"">Correct :)</p>","",""
"2555","key","n","n","16.680668831168667","499.84","249.92","psychophysics","366","740139","0.0-366.0","5e4465013f75e52fc82f7096","62015595d450ad4b4349a950","6","","","","","1","6"
"null","","","null","","","","html-keyboard-response","367","740640","0.0-367.0","5e4465013f75e52fc82f7096","62015595d450ad4b4349a950","","","","","<p style=""color:darkgreen;font-size:24px;"">Correct :)</p>","",""
"2799","key","n","n","16.68077976190502","499.84","249.92","psychophysics","368","743441","0.0-368.0","5e4465013f75e52fc82f7096","62015595d450ad4b4349a950","6","","","","","0","4"
"null","","","null","","","","html-keyboard-response","369","743942","0.0-369.0","5e4465013f75e52fc82f7096","62015595d450ad4b4349a950","","","","","<p style=""color:darkgreen;font-size:24px;"">Correct :)</p>","",""
"3253","key","v","v","16.68060000000032","499.84","249.92","psychophysics","370","747198","0.0-370.0","5e4465013f75e52fc82f7096","62015595d450ad4b4349a950","6","","","","","1","1"
"null","","","null","","","","html-keyboard-response","371","747699","0.0-371.0","5e4465013f75e52fc82f7096","62015595d450ad4b4349a950","","","","","<p style=""color:darkgreen;font-size:24px;"">Correct :)</p>","",""
"2747","key","n","n","16.68085454545393","499.84","249.92","psychophysics","372","750448","0.0-372.0","5e4465013f75e52fc82f7096","62015595d450ad4b4349a950","6","","","","","0","8"
"null","","","null","","","","html-keyboard-response","373","750949","0.0-373.0","5e4465013f75e52fc82f7096","62015595d450ad4b4349a950","","","","","<p style=""color:darkgreen;font-size:24px;"">Correct :)</p>","",""
"2980","key","v","v","16.68084916201103","499.84","249.92","psychophysics","374","753932","0.0-374.0","5e4465013f75e52fc82f7096","62015595d450ad4b4349a950","6","","","","","0","3"
"null","","","null","","","","html-keyboard-response","375","754433","0.0-375.0","5e4465013f75e52fc82f7096","62015595d450ad4b4349a950","","","","","<p style=""color:darkgreen;font-size:24px;"">Correct :)</p>","",""
"4939","key","n","n","16.68069256756752","499.84","249.92","psychophysics","376","759375","0.0-376.0","5e4465013f75e52fc82f7096","62015595d450ad4b4349a950","6","","","","","1","8"
"null","","","null","","","","html-keyboard-response","377","759877","0.0-377.0","5e4465013f75e52fc82f7096","62015595d450ad4b4349a950","","","","","<p style=""color:darkgreen;font-size:24px;"">Correct :)</p>","",""
"3350","key","v","v","16.68027860696534","499.84","249.92","psychophysics","378","763229","0.0-378.0","5e4465013f75e52fc82f7096","62015595d450ad4b4349a950","6","","","","","0","9"
"null","","","null","","","","html-keyboard-response","379","763731","0.0-379.0","5e4465013f75e52fc82f7096","62015595d450ad4b4349a950","","","","","<p style=""color:darkgreen;font-size:24px;"">Correct :)</p>","",""
"2790","key","n","n","16.680485029939792","499.84","249.92","psychophysics","380","766523","0.0-380.0","5e4465013f75e52fc82f7096","62015595d450ad4b4349a950","6","","","","","1","7"
"null","","","null","","","","html-keyboard-response","381","767024","0.0-381.0","5e4465013f75e52fc82f7096","62015595d450ad4b4349a950","","","","","<p style=""color:darkgreen;font-size:24px;"">Correct :)</p>","",""
"2516","key","v","v","16.79214666666696","499.84","249.92","psychophysics","382","769542","0.0-382.0","5e4465013f75e52fc82f7096","62015595d450ad4b4349a950","6","","","","","0","4"
"null","","","null","","","","html-keyboard-response","383","770043","0.0-383.0","5e4465013f75e52fc82f7096","62015595d450ad4b4349a950","","","","","<p style=""color:red;font-size:24px;"">Error :(</p>","",""
"2563","key","n","n","16.680532467531876","499.84","249.92","psychophysics","384","772607","0.0-384.0","5e4465013f75e52fc82f7096","62015595d450ad4b4349a950","6","","","","","0","4"
"null","","","null","","","","html-keyboard-response","385","773108","0.0-385.0","5e4465013f75e52fc82f7096","62015595d450ad4b4349a950","","","","","<p style=""color:darkgreen;font-size:24px;"">Correct :)</p>","",""
"2821","key","n","n","16.680644970414775","499.84","249.92","psychophysics","386","775931","0.0-386.0","5e4465013f75e52fc82f7096","62015595d450ad4b4349a950","6","","","","","0","8"
"null","","","null","","","","html-keyboard-response","387","776432","0.0-387.0","5e4465013f75e52fc82f7096","62015595d450ad4b4349a950","","","","","<p style=""color:darkgreen;font-size:24px;"">Correct :)</p>","",""
"3088","key","n","n","16.770832432432076","499.84","249.92","psychophysics","388","779522","0.0-388.0","5e4465013f75e52fc82f7096","62015595d450ad4b4349a950","6","","","","","1","7"
"null","","","null","","","","html-keyboard-response","389","780023","0.0-389.0","5e4465013f75e52fc82f7096","62015595d450ad4b4349a950","","","","","<p style=""color:darkgreen;font-size:24px;"">Correct :)</p>","",""
"2478","key","v","v","16.680587837837535","499.84","249.92","psychophysics","390","782502","0.0-390.0","5e4465013f75e52fc82f7096","62015595d450ad4b4349a950","6","","","","","1","2"
"null","","","null","","","","html-keyboard-response","391","783004","0.0-391.0","5e4465013f75e52fc82f7096","62015595d450ad4b4349a950","","","","","<p style=""color:darkgreen;font-size:24px;"">Correct :)</p>","",""
"2460","key","v","v","16.680520270269906","499.84","249.92","psychophysics","392","785465","0.0-392.0","5e4465013f75e52fc82f7096","62015595d450ad4b4349a950","6","","","","","1","1"
"null","","","null","","","","html-keyboard-response","393","785966","0.0-393.0","5e4465013f75e52fc82f7096","62015595d450ad4b4349a950","","","","","<p style=""color:darkgreen;font-size:24px;"">Correct :)</p>","",""
"3148","key","v","v","16.680698412698423","499.84","249.92","psychophysics","394","789116","0.0-394.0","5e4465013f75e52fc82f7096","62015595d450ad4b4349a950","6","","","","","1","3"
"null","","","null","","","","html-keyboard-response","395","789617","0.0-395.0","5e4465013f75e52fc82f7096","62015595d450ad4b4349a950","","","","","<p style=""color:darkgreen;font-size:24px;"">Correct :)</p>","",""
"4814","","","n","","","","html-keyboard-response","396","794432","0.0-396.0","5e4465013f75e52fc82f7096","62015595d450ad4b4349a950","","","","","<p> Last set of trials.  Here, the tasks are going to switch once again.  We are going to do 50 of these.  And then you are done with the experiment.  </p>  <br><br>  Ready? (press v or n)","",""
"3047","key","n","n","16.680532967032747","499.84","249.92","psychophysics","397","797481","0.0-397.0","5e4465013f75e52fc82f7096","62015595d450ad4b4349a950","7","","","","","1","6"
"null","","","null","","","","html-keyboard-response","398","797982","0.0-398.0","5e4465013f75e52fc82f7096","62015595d450ad4b4349a950","","","","","<p style=""color:darkgreen;font-size:24px;"">Correct :)</p>","",""
"3508","key","n","n","16.680781990520863","499.84","249.92","psychophysics","399","801502","0.0-399.0","5e4465013f75e52fc82f7096","62015595d450ad4b4349a950","7","","","","","0","2"
"null","","","null","","","","html-keyboard-response","400","802003","0.0-400.0","5e4465013f75e52fc82f7096","62015595d450ad4b4349a950","","","","","<p style=""color:darkgreen;font-size:24px;"">Correct :)</p>","",""
"2537","key","v","v","16.6805163398697","499.84","249.92","psychophysics","401","804542","0.0-401.0","5e4465013f75e52fc82f7096","62015595d450ad4b4349a950","7","","","","","1","4"
"null","","","null","","","","html-keyboard-response","402","805043","0.0-402.0","5e4465013f75e52fc82f7096","62015595d450ad4b4349a950","","","","","<p style=""color:darkgreen;font-size:24px;"">Correct :)</p>","",""
"2646","key","n","n","16.680803797467867","499.84","249.92","psychophysics","403","807691","0.0-403.0","5e4465013f75e52fc82f7096","62015595d450ad4b4349a950","7","","","","","0","6"
"null","","","null","","","","html-keyboard-response","404","808192","0.0-404.0","5e4465013f75e52fc82f7096","62015595d450ad4b4349a950","","","","","<p style=""color:darkgreen;font-size:24px;"">Correct :)</p>","",""
"2476","key","v","v","16.793554054054027","499.84","249.92","psychophysics","405","810670","0.0-405.0","5e4465013f75e52fc82f7096","62015595d450ad4b4349a950","7","","","","","0","7"
"null","","","null","","","","html-keyboard-response","406","811171","0.0-406.0","5e4465013f75e52fc82f7096","62015595d450ad4b4349a950","","","","","<p style=""color:darkgreen;font-size:24px;"">Correct :)</p>","",""
"2936","key","n","n","16.68076136363644","499.84","249.92","psychophysics","407","814108","0.0-407.0","5e4465013f75e52fc82f7096","62015595d450ad4b4349a950","7","","","","","0","6"
"null","","","null","","","","html-keyboard-response","408","814609","0.0-408.0","5e4465013f75e52fc82f7096","62015595d450ad4b4349a950","","","","","<p style=""color:darkgreen;font-size:24px;"">Correct :)</p>","",""
"3426","key","v","v","16.68070388349503","499.84","249.92","psychophysics","409","818037","0.0-409.0","5e4465013f75e52fc82f7096","62015595d450ad4b4349a950","7","","","","","0","7"
"null","","","null","","","","html-keyboard-response","410","818539","0.0-410.0","5e4465013f75e52fc82f7096","62015595d450ad4b4349a950","","","","","<p style=""color:darkgreen;font-size:24px;"">Correct :)</p>","",""
"2421","key","n","n","16.68066896551674","499.84","249.92","psychophysics","411","820962","0.0-411.0","5e4465013f75e52fc82f7096","62015595d450ad4b4349a950","7","","","","","1","7"
"null","","","null","","","","html-keyboard-response","412","821463","0.0-412.0","5e4465013f75e52fc82f7096","62015595d450ad4b4349a950","","","","","<p style=""color:darkgreen;font-size:24px;"">Correct :)</p>","",""
"3196","key","n","n","16.680619791666686","499.84","249.92","psychophysics","413","824661","0.0-413.0","5e4465013f75e52fc82f7096","62015595d450ad4b4349a950","7","","","","","1","7"
"null","","","null","","","","html-keyboard-response","414","825163","0.0-414.0","5e4465013f75e52fc82f7096","62015595d450ad4b4349a950","","","","","<p style=""color:darkgreen;font-size:24px;"">Correct :)</p>","",""
"2770","key","n","n","16.680560240963842","499.84","249.92","psychophysics","415","827935","0.0-415.0","5e4465013f75e52fc82f7096","62015595d450ad4b4349a950","7","","","","","0","4"
"null","","","null","","","","html-keyboard-response","416","828435","0.0-416.0","5e4465013f75e52fc82f7096","62015595d450ad4b4349a950","","","","","<p style=""color:darkgreen;font-size:24px;"">Correct :)</p>","",""
"2940","key","v","v","16.680323863636826","499.84","249.92","psychophysics","417","831377","0.0-417.0","5e4465013f75e52fc82f7096","62015595d450ad4b4349a950","7","","","","","1","1"
"null","","","null","","","","html-keyboard-response","418","831879","0.0-418.0","5e4465013f75e52fc82f7096","62015595d450ad4b4349a950","","","","","<p style=""color:darkgreen;font-size:24px;"">Correct :)</p>","",""
"2770","key","v","v","16.680618181818335","499.84","249.92","psychophysics","419","834652","0.0-419.0","5e4465013f75e52fc82f7096","62015595d450ad4b4349a950","7","","","","","1","3"
"null","","","null","","","","html-keyboard-response","420","835153","0.0-420.0","5e4465013f75e52fc82f7096","62015595d450ad4b4349a950","","","","","<p style=""color:darkgreen;font-size:24px;"">Correct :)</p>","",""
"2433","key","v","v","16.680828767122975","499.84","249.92","psychophysics","421","837588","0.0-421.0","5e4465013f75e52fc82f7096","62015595d450ad4b4349a950","7","","","","","0","1"
"null","","","null","","","","html-keyboard-response","422","838089","0.0-422.0","5e4465013f75e52fc82f7096","62015595d450ad4b4349a950","","","","","<p style=""color:darkgreen;font-size:24px;"">Correct :)</p>","",""
"2878","key","n","n","16.680622093023484","499.84","249.92","psychophysics","423","840969","0.0-423.0","5e4465013f75e52fc82f7096","62015595d450ad4b4349a950","7","","","","","0","2"
"null","","","null","","","","html-keyboard-response","424","841471","0.0-424.0","5e4465013f75e52fc82f7096","62015595d450ad4b4349a950","","","","","<p style=""color:darkgreen;font-size:24px;"">Correct :)</p>","",""
"3233","key","n","n","16.680642487046338","499.84","249.92","psychophysics","425","844706","0.0-425.0","5e4465013f75e52fc82f7096","62015595d450ad4b4349a950","7","","","","","1","7"
"null","","","null","","","","html-keyboard-response","426","845207","0.0-426.0","5e4465013f75e52fc82f7096","62015595d450ad4b4349a950","","","","","<p style=""color:darkgreen;font-size:24px;"">Correct :)</p>","",""
"2471","key","v","v","16.680574324324166","499.84","249.92","psychophysics","427","847681","0.0-427.0","5e4465013f75e52fc82f7096","62015595d450ad4b4349a950","7","","","","","1","3"
"null","","","null","","","","html-keyboard-response","428","848182","0.0-428.0","5e4465013f75e52fc82f7096","62015595d450ad4b4349a950","","","","","<p style=""color:darkgreen;font-size:24px;"">Correct :)</p>","",""
"2686","key","n","n","16.680621118012883","499.84","249.92","psychophysics","429","850869","0.0-429.0","5e4465013f75e52fc82f7096","62015595d450ad4b4349a950","7","","","","","0","4"
"null","","","null","","","","html-keyboard-response","430","851370","0.0-430.0","5e4465013f75e52fc82f7096","62015595d450ad4b4349a950","","","","","<p style=""color:darkgreen;font-size:24px;"">Correct :)</p>","",""
"2457","key","v","v","16.680904761904717","499.84","249.92","psychophysics","431","853829","0.0-431.0","5e4465013f75e52fc82f7096","62015595d450ad4b4349a950","7","","","","","1","2"
"null","","","null","","","","html-keyboard-response","432","854330","0.0-432.0","5e4465013f75e52fc82f7096","62015595d450ad4b4349a950","","","","","<p style=""color:darkgreen;font-size:24px;"">Correct :)</p>","",""
"2438","key","v","v","16.79473972602744","499.84","249.92","psychophysics","433","856771","0.0-433.0","5e4465013f75e52fc82f7096","62015595d450ad4b4349a950","7","","","","","1","3"
"null","","","null","","","","html-keyboard-response","434","857272","0.0-434.0","5e4465013f75e52fc82f7096","62015595d450ad4b4349a950","","","","","<p style=""color:darkgreen;font-size:24px;"">Correct :)</p>","",""
"2906","key","v","v","16.680628571428493","499.84","249.92","psychophysics","435","860188","0.0-435.0","5e4465013f75e52fc82f7096","62015595d450ad4b4349a950","7","","","","","0","3"
"null","","","null","","","","html-keyboard-response","436","860690","0.0-436.0","5e4465013f75e52fc82f7096","62015595d450ad4b4349a950","","","","","<p style=""color:darkgreen;font-size:24px;"">Correct :)</p>","",""
"2537","key","v","v","16.680855263157834","499.84","249.92","psychophysics","437","863229","0.0-437.0","5e4465013f75e52fc82f7096","62015595d450ad4b4349a950","7","","","","","1","1"
"null","","","null","","","","html-keyboard-response","438","863730","0.0-438.0","5e4465013f75e52fc82f7096","62015595d450ad4b4349a950","","","","","<p style=""color:darkgreen;font-size:24px;"">Correct :)</p>","",""
"3265","key","n","n","16.68048979591861","499.84","249.92","psychophysics","439","866998","0.0-439.0","5e4465013f75e52fc82f7096","62015595d450ad4b4349a950","7","","","","","1","3"
"null","","","null","","","","html-keyboard-response","440","867498","0.0-440.0","5e4465013f75e52fc82f7096","62015595d450ad4b4349a950","","","","","<p style=""color:red;font-size:24px;"">Error :(</p>","",""
"3250","key","v","v","16.680692307692237","499.84","249.92","psychophysics","441","870750","0.0-441.0","5e4465013f75e52fc82f7096","62015595d450ad4b4349a950","7","","","","","0","7"
"null","","","null","","","","html-keyboard-response","442","871251","0.0-442.0","5e4465013f75e52fc82f7096","62015595d450ad4b4349a950","","","","","<p style=""color:darkgreen;font-size:24px;"">Correct :)</p>","",""
"2471","key","n","n","16.68069594594606","499.84","249.92","psychophysics","443","873725","0.0-443.0","5e4465013f75e52fc82f7096","62015595d450ad4b4349a950","7","","","","","0","2"
"null","","","null","","","","html-keyboard-response","444","874226","0.0-444.0","5e4465013f75e52fc82f7096","62015595d450ad4b4349a950","","","","","<p style=""color:darkgreen;font-size:24px;"">Correct :)</p>","",""
"2835","key","n","n","16.680141176470308","499.84","249.92","psychophysics","445","877063","0.0-445.0","5e4465013f75e52fc82f7096","62015595d450ad4b4349a950","7","","","","","0","2"
"null","","","null","","","","html-keyboard-response","446","877563","0.0-446.0","5e4465013f75e52fc82f7096","62015595d450ad4b4349a950","","","","","<p style=""color:darkgreen;font-size:24px;"">Correct :)</p>","",""
"2899","key","v","v","16.680672413793303","499.84","249.92","psychophysics","447","880464","0.0-447.0","5e4465013f75e52fc82f7096","62015595d450ad4b4349a950","7","","","","","0","1"
"null","","","null","","","","html-keyboard-response","448","880965","0.0-448.0","5e4465013f75e52fc82f7096","62015595d450ad4b4349a950","","","","","<p style=""color:darkgreen;font-size:24px;"">Correct :)</p>","",""
"3498","key","v","v","16.68058293838864","499.84","249.92","psychophysics","449","884473","0.0-449.0","5e4465013f75e52fc82f7096","62015595d450ad4b4349a950","7","","","","","1","1"
"null","","","null","","","","html-keyboard-response","450","884974","0.0-450.0","5e4465013f75e52fc82f7096","62015595d450ad4b4349a950","","","","","<p style=""color:darkgreen;font-size:24px;"">Correct :)</p>","",""
"2947","key","n","n","16.680278409091194","499.84","249.92","psychophysics","451","887925","0.0-451.0","5e4465013f75e52fc82f7096","62015595d450ad4b4349a950","7","","","","","0","6"
"null","","","null","","","","html-keyboard-response","452","888426","0.0-452.0","5e4465013f75e52fc82f7096","62015595d450ad4b4349a950","","","","","<p style=""color:darkgreen;font-size:24px;"">Correct :)</p>","",""
"2833","key","v","v","16.680699999999558","499.84","249.92","psychophysics","453","891262","0.0-453.0","5e4465013f75e52fc82f7096","62015595d450ad4b4349a950","7","","","","","1","1"
"null","","","null","","","","html-keyboard-response","454","891763","0.0-454.0","5e4465013f75e52fc82f7096","62015595d450ad4b4349a950","","","","","<p style=""color:darkgreen;font-size:24px;"">Correct :)</p>","",""
"2594","key","v","v","16.68074193548396","499.84","249.92","psychophysics","455","894360","0.0-455.0","5e4465013f75e52fc82f7096","62015595d450ad4b4349a950","7","","","","","1","2"
"null","","","null","","","","html-keyboard-response","456","894861","0.0-456.0","5e4465013f75e52fc82f7096","62015595d450ad4b4349a950","","","","","<p style=""color:darkgreen;font-size:24px;"">Correct :)</p>","",""
"2456","key","v","v","16.680675675675612","499.84","249.92","psychophysics","457","897326","0.0-457.0","5e4465013f75e52fc82f7096","62015595d450ad4b4349a950","7","","","","","1","1"
"null","","","null","","","","html-keyboard-response","458","897827","0.0-458.0","5e4465013f75e52fc82f7096","62015595d450ad4b4349a950","","","","","<p style=""color:darkgreen;font-size:24px;"">Correct :)</p>","",""
"2592","key","n","n","16.68058333333316","499.84","249.92","psychophysics","459","900419","0.0-459.0","5e4465013f75e52fc82f7096","62015595d450ad4b4349a950","7","","","","","0","6"
"null","","","null","","","","html-keyboard-response","460","900921","0.0-460.0","5e4465013f75e52fc82f7096","62015595d450ad4b4349a950","","","","","<p style=""color:darkgreen;font-size:24px;"">Correct :)</p>","",""
"3379","key","v","v","16.680594059406424","499.84","249.92","psychophysics","461","904302","0.0-461.0","5e4465013f75e52fc82f7096","62015595d450ad4b4349a950","7","","","","","1","3"
"null","","","null","","","","html-keyboard-response","462","904803","0.0-462.0","5e4465013f75e52fc82f7096","62015595d450ad4b4349a950","","","","","<p style=""color:darkgreen;font-size:24px;"">Correct :)</p>","",""
"2512","key","n","n","16.680629139073","499.84","249.92","psychophysics","463","907317","0.0-463.0","5e4465013f75e52fc82f7096","62015595d450ad4b4349a950","7","","","","","1","7"
"null","","","null","","","","html-keyboard-response","464","907818","0.0-464.0","5e4465013f75e52fc82f7096","62015595d450ad4b4349a950","","","","","<p style=""color:darkgreen;font-size:24px;"">Correct :)</p>","",""
"3316","key","n","n","16.680542713568205","499.84","249.92","psychophysics","465","911135","0.0-465.0","5e4465013f75e52fc82f7096","62015595d450ad4b4349a950","7","","","","","1","7"
"null","","","null","","","","html-keyboard-response","466","911636","0.0-466.0","5e4465013f75e52fc82f7096","62015595d450ad4b4349a950","","","","","<p style=""color:darkgreen;font-size:24px;"">Correct :)</p>","",""
"2465","key","n","n","16.68076351351369","499.84","249.92","psychophysics","467","914103","0.0-467.0","5e4465013f75e52fc82f7096","62015595d450ad4b4349a950","7","","","","","1","7"
"null","","","null","","","","html-keyboard-response","468","914605","0.0-468.0","5e4465013f75e52fc82f7096","62015595d450ad4b4349a950","","","","","<p style=""color:darkgreen;font-size:24px;"">Correct :)</p>","",""
"3087","key","v","v","16.680848648648936","499.84","249.92","psychophysics","469","917694","0.0-469.0","5e4465013f75e52fc82f7096","62015595d450ad4b4349a950","7","","","","","0","7"
"null","","","null","","","","html-keyboard-response","470","918194","0.0-470.0","5e4465013f75e52fc82f7096","62015595d450ad4b4349a950","","","","","<p style=""color:darkgreen;font-size:24px;"">Correct :)</p>","",""
"2738","key","n","n","16.680634146341173","499.84","249.92","psychophysics","471","920934","0.0-471.0","5e4465013f75e52fc82f7096","62015595d450ad4b4349a950","7","","","","","0","2"
"null","","","null","","","","html-keyboard-response","472","921434","0.0-472.0","5e4465013f75e52fc82f7096","62015595d450ad4b4349a950","","","","","<p style=""color:darkgreen;font-size:24px;"">Correct :)</p>","",""
"2501","key","v","v","16.792671140939646","499.84","249.92","psychophysics","473","923937","0.0-473.0","5e4465013f75e52fc82f7096","62015595d450ad4b4349a950","7","","","","","1","3"
"null","","","null","","","","html-keyboard-response","474","924438","0.0-474.0","5e4465013f75e52fc82f7096","62015595d450ad4b4349a950","","","","","<p style=""color:darkgreen;font-size:24px;"">Correct :)</p>","",""
"2413","key","n","n","16.68054861111078","499.84","249.92","psychophysics","475","926854","0.0-475.0","5e4465013f75e52fc82f7096","62015595d450ad4b4349a950","7","","","","","1","7"
"null","","","null","","","","html-keyboard-response","476","927354","0.0-476.0","5e4465013f75e52fc82f7096","62015595d450ad4b4349a950","","","","","<p style=""color:darkgreen;font-size:24px;"">Correct :)</p>","",""
"2608","key","v","v","16.680783439490643","499.84","249.92","psychophysics","477","929964","0.0-477.0","5e4465013f75e52fc82f7096","62015595d450ad4b4349a950","7","","","","","0","3"
"null","","","null","","","","html-keyboard-response","478","930465","0.0-478.0","5e4465013f75e52fc82f7096","62015595d450ad4b4349a950","","","","","<p style=""color:darkgreen;font-size:24px;"">Correct :)</p>","",""
"2447","key","n","n","16.680605442176866","499.84","249.92","psychophysics","479","932914","0.0-479.0","5e4465013f75e52fc82f7096","62015595d450ad4b4349a950","7","","","","","1","7"
"null","","","null","","","","html-keyboard-response","480","933415","0.0-480.0","5e4465013f75e52fc82f7096","62015595d450ad4b4349a950","","","","","<p style=""color:darkgreen;font-size:24px;"">Correct :)</p>","",""
"2778","key","v","v","16.680566265059813","499.84","249.92","psychophysics","481","936195","0.0-481.0","5e4465013f75e52fc82f7096","62015595d450ad4b4349a950","7","","","","","0","3"
"null","","","null","","","","html-keyboard-response","482","936696","0.0-482.0","5e4465013f75e52fc82f7096","62015595d450ad4b4349a950","","","","","<p style=""color:darkgreen;font-size:24px;"">Correct :)</p>","",""
"3954","key","v","v","16.680763713080232","499.84","249.92","psychophysics","483","940651","0.0-483.0","5e4465013f75e52fc82f7096","62015595d450ad4b4349a950","7","","","","","1","2"
"null","","","null","","","","html-keyboard-response","484","941153","0.0-484.0","5e4465013f75e52fc82f7096","62015595d450ad4b4349a950","","","","","<p style=""color:darkgreen;font-size:24px;"">Correct :)</p>","",""
"2791","key","n","n","16.680790419161912","499.84","249.92","psychophysics","485","943946","0.0-485.0","5e4465013f75e52fc82f7096","62015595d450ad4b4349a950","7","","","","","0","2"
"null","","","null","","","","html-keyboard-response","486","944446","0.0-486.0","5e4465013f75e52fc82f7096","62015595d450ad4b4349a950","","","","","<p style=""color:darkgreen;font-size:24px;"">Correct :)</p>","",""
"2993","key","v","v","16.68096666666679","499.84","249.92","psychophysics","487","947443","0.0-487.0","5e4465013f75e52fc82f7096","62015595d450ad4b4349a950","7","","","","","0","7"
"null","","","null","","","","html-keyboard-response","488","947944","0.0-488.0","5e4465013f75e52fc82f7096","62015595d450ad4b4349a950","","","","","<p style=""color:darkgreen;font-size:24px;"">Correct :)</p>","",""
"3007","key","v","v","16.68065193370152","499.84","249.92","psychophysics","489","950962","0.0-489.0","5e4465013f75e52fc82f7096","62015595d450ad4b4349a950","7","","","","","1","2"
"null","","","null","","","","html-keyboard-response","490","951463","0.0-490.0","5e4465013f75e52fc82f7096","62015595d450ad4b4349a950","","","","","<p style=""color:darkgreen;font-size:24px;"">Correct :)</p>","",""
"2644","key","n","n","16.680550632911405","499.84","249.92","psychophysics","491","954109","0.0-491.0","5e4465013f75e52fc82f7096","62015595d450ad4b4349a950","7","","","","","0","2"
"null","","","null","","","","html-keyboard-response","492","954610","0.0-492.0","5e4465013f75e52fc82f7096","62015595d450ad4b4349a950","","","","","<p style=""color:darkgreen;font-size:24px;"">Correct :)</p>","",""
"2604","key","n","n","16.680801282051014","499.84","249.92","psychophysics","493","957215","0.0-493.0","5e4465013f75e52fc82f7096","62015595d450ad4b4349a950","7","","","","","0","6"
"null","","","null","","","","html-keyboard-response","494","957717","0.0-494.0","5e4465013f75e52fc82f7096","62015595d450ad4b4349a950","","","","","<p style=""color:darkgreen;font-size:24px;"">Correct :)</p>","",""
"2658","key","v","v","16.680773584905765","499.84","249.92","psychophysics","495","960378","0.0-495.0","5e4465013f75e52fc82f7096","62015595d450ad4b4349a950","7","","","","","1","3"
"null","","","null","","","","html-keyboard-response","496","960879","0.0-496.0","5e4465013f75e52fc82f7096","62015595d450ad4b4349a950","","","","","<p style=""color:darkgreen;font-size:24px;"">Correct :)</p>","",""
