"rt","response_type","key_press","response","avg_frame_time","center_x","center_y","trial_type","trial_index","time_elapsed","internal_node_id","pid","sid","phase","guide","targ","resp","stimulus","is5","stim"
"4500","key"," "," ","16.789910780669146","500","250","psychophysics","0","4535","0.0-0.0","51","1","","","","","","",""
"2886","key"," "," ","16.666000000000004","500","250","psychophysics","1","7424","0.0-1.0","51","1","","","","","","",""
"5939","key"," "," ","16.654997191011237","500","250","psychophysics","2","13367","0.0-2.0","51","1","","","","","","",""
"2527","key"," "," ","16.666000000000018","500","250","psychophysics","3","15895","0.0-3.0","51","1","","","","","","",""
"2730","key"," "," ","16.667386503067483","500","250","psychophysics","4","18629","0.0-4.0","51","1","","","","","","",""
"3513","key"," "," ","16.666000000000004","500","250","psychophysics","5","22146","0.0-5.0","51","1","","","","","","",""
"3387","key"," "," ","16.665999999999983","500","250","psychophysics","6","25536","0.0-6.0","51","1","","","","","","",""
"6566","key"," "," ","16.666758269720113","500","250","psychophysics","7","32113","0.0-7.0","51","1","","","","","","",""
"3352","key"," "," ","16.665999999999986","500","250","psychophysics","8","35466","0.0-8.0","51","1","","","","","","",""
"3288","key"," "," ","16.667035532994902","500","250","psychophysics","9","38760","0.0-9.0","51","1","","","","","","",""
"3147","key"," "," ","16.665999999999993","500","250","psychophysics","10","41910","0.0-10.0","51","1","","","","","","",""
"6548","key"," "," ","16.66685459183673","500","250","psychophysics","11","48461","0.0-11.0","51","1","","","","","","",""
"22630","key"," "," ","16.715635624538066","500","250","psychophysics","12","71093","0.0-12.0","51","1","1","0","29","77","","",""
"5406","key"," "," ","16.666","500","250","psychophysics","13","76501","0.0-13.0","51","1","1","5","30","31","","",""
"9567","key"," "," ","16.6665305410122","500","250","psychophysics","14","86071","0.0-14.0","51","1","1","0","37","99","","",""
"9214","key"," "," ","16.666483695652158","500","250","psychophysics","15","95288","0.0-15.0","51","1","1","5","60","88","","",""
"19690","key"," "," ","16.666450000000005","500","250","psychophysics","16","114980","0.0-16.0","51","1","1","0","53","199","","",""
"6635","key"," "," ","16.66666834170855","500","250","psychophysics","17","121626","0.0-17.0","51","1","1","5","51","70","","",""
"14845","key"," "," ","16.666228089887657","500","250","psychophysics","18","136473","0.0-18.0","51","1","1","0","36","166","","",""
"6547","key"," "," ","16.666839285714243","500","250","psychophysics","19","143022","0.0-19.0","51","1","1","5","57","72","","",""
"15668","key"," "," ","16.666565495207667","500","250","psychophysics","20","158692","0.0-20.0","51","1","1","0","37","161","","",""
"5761","key"," "," ","16.666000000000054","500","250","psychophysics","21","164455","0.0-21.0","51","1","1","5","41","63","","",""
"15834","key"," "," ","16.66656059009483","500","250","psychophysics","22","180291","0.0-22.0","51","1","1","0","43","180","","",""
"5850","key"," "," ","16.666000000000018","500","250","psychophysics","23","186144","0.0-23.0","51","1","1","5","47","64","","",""
"18486","key"," "," ","16.666481514878267","500","250","psychophysics","24","204637","0.0-24.0","51","1","1","0","55","199","","",""
"6753","key"," "," ","16.66649257425744","500","250","psychophysics","25","211392","0.0-25.0","51","1","1","5","57","71","","",""
"17740","key"," "," ","16.66655075187972","500","250","psychophysics","26","229136","0.0-26.0","51","1","1","0","57","200","","",""
"5511","key"," "," ","16.665999999999997","500","250","psychophysics","27","234649","0.0-27.0","51","1","1","5","22","42","","",""
"17481","key"," "," ","16.6665171755725","500","250","psychophysics","28","252132","0.0-28.0","51","1","1","0","44","194","","",""
"5649","key"," "," ","16.665999999999936","500","250","psychophysics","29","257784","0.0-29.0","51","1","1","5","26","55","","",""
"9331","key"," "," ","16.66647584973166","500","250","psychophysics","30","267117","0.0-30.0","51","1","1","0","23","106","","",""
"4581","key"," "," ","16.666985401459698","500","250","psychophysics","31","271701","0.0-31.0","51","1","1","5","26","44","","",""
"2765","key"," "," ","16.666000000000086","500","250","psychophysics","32","274468","0.0-32.0","51","1","","","","","","",""
"4052","key"," "," ","16.666000000000192","500","250","psychophysics","33","278530","0.0-33.0","51","1","","","","","","",""
"1451","key"," "," ","16.66904651162791","500","250","psychophysics","34","279984","0.0-34.0","51","1","","","","","","",""
"15564","key"," "," ","16.66621757770633","500","250","psychophysics","35","295550","0.0-35.0","51","1","2","0","37","175","","",""
"5526","key"," "," ","16.666993957703998","500","250","psychophysics","36","301079","0.0-36.0","51","1","","","","","","",""
"8934","key"," "," ","16.666472897196307","500","250","psychophysics","37","310016","0.0-37.0","51","1","2","0","58","79","","",""
"1934","key"," "," ","16.666000000000224","500","250","psychophysics","38","311952","0.0-38.0","51","1","","","","","","",""
"7161","key"," "," ","16.666000000000086","500","250","psychophysics","39","319115","0.0-39.0","51","1","2","0","31","52","","",""
"1747","key"," "," ","16.668692307692254","500","250","psychophysics","40","320865","0.0-40.0","51","1","","","","","","",""
"5998","key"," "," ","16.66599999999995","500","250","psychophysics","41","326865","0.0-41.0","51","1","2","0","53","61","","",""
"2565","key"," "," ","16.66775163398672","500","250","psychophysics","42","329432","0.0-42.0","51","1","","","","","","",""
"6048","key"," "," ","16.66600000000001","500","250","psychophysics","43","335481","0.0-43.0","51","1","2","0","56","64","","",""
"1797","key"," "," ","16.66600000000043","500","250","psychophysics","44","337281","0.0-44.0","51","1","","","","","","",""
"3645","key"," "," ","16.6671788990826","500","250","psychophysics","45","340928","0.0-45.0","51","1","2","0","26","38","","",""
"1813","key"," "," ","16.665999999999595","500","250","psychophysics","46","342744","0.0-46.0","51","1","","","","","","",""
"4120","key"," "," ","16.666000000000043","500","250","psychophysics","47","346867","0.0-47.0","51","1","2","0","23","40","","",""
"1264","key"," "," ","16.666000000000157","500","250","psychophysics","48","348132","0.0-48.0","51","1","","","","","","",""
"4321","key"," "," ","16.666934108526974","500","250","psychophysics","49","352455","0.0-49.0","51","1","2","0","48","47","","",""
"3155","key"," "," ","16.666000000000057","500","250","psychophysics","50","355614","0.0-50.0","51","1","","","","","","",""
"6602","key"," "," ","16.666731645569612","500","250","psychophysics","51","362219","0.0-51.0","51","1","2","0","31","60","","",""
"1103","key"," "," ","16.666000000000086","500","250","psychophysics","52","363326","0.0-52.0","51","1","","","","","","",""
"5850","key"," "," ","16.6660000000001","500","250","psychophysics","53","369179","0.0-53.0","51","1","2","0","56","65","","",""
"1381","key"," "," ","16.668512195122297","500","250","psychophysics","54","370563","0.0-54.0","51","1","","","","","","",""
"5596","key"," "," ","16.665999999999958","500","250","psychophysics","55","376162","0.0-55.0","51","1","2","0","25","48","","",""
"1245","key"," "," ","16.665999999999798","500","250","psychophysics","56","377410","0.0-56.0","51","1","","","","","","",""
"5200","key"," "," ","16.667070739549754","500","250","psychophysics","57","382612","0.0-57.0","51","1","2","0","47","51","","",""
"1409","key"," "," ","16.66600000000021","500","250","psychophysics","58","384023","0.0-58.0","51","1","","","","","","",""
"4171","key"," "," ","16.66600000000013","500","250","psychophysics","59","388196","0.0-59.0","51","1","2","0","22","44","","",""
"1082","key"," "," ","16.666000000000167","500","250","psychophysics","60","389280","0.0-60.0","51","1","","","","","","",""
"4015","key"," "," ","16.667112500000076","500","250","psychophysics","61","393297","0.0-61.0","51","1","2","0","31","42","","",""
"1196","key"," "," ","16.66599999999949","500","250","psychophysics","62","394495","0.0-62.0","51","1","","","","","","",""
"4790","key"," "," ","16.665999999999976","500","250","psychophysics","63","399287","0.0-63.0","51","1","2","0","29","46","","",""
"1346","key"," "," ","16.66934177215223","500","250","psychophysics","64","400635","0.0-64.0","51","1","","","","","","",""
"12672","key"," "," ","16.666265789473638","500","250","psychophysics","65","413312","0.0-65.0","51","1","","","","","","",""
"8281","key"," "," ","16.66666532258058","500","250","psychophysics","66","421595","0.0-66.0","51","1","","","","","","",""
"5860","key"," "," ","16.66600000000001","500","250","psychophysics","67","427457","0.0-67.0","51","1","3","5","56","40","","",""
"4483","key"," "," ","16.66699253731349","500","250","psychophysics","68","431943","0.0-68.0","51","1","3","0","40","40","","",""
"2930","key"," "," ","16.665999999999933","500","250","psychophysics","69","434876","0.0-69.0","51","1","3","5","30","28","","",""
"5798","key"," "," ","16.666763688760884","500","250","psychophysics","70","440677","0.0-70.0","51","1","3","0","48","59","","",""
"4264","key"," "," ","16.666000000000064","500","250","psychophysics","71","444943","0.0-71.0","51","1","3","5","45","41","","",""
"4216","key"," "," ","16.66599999999998","500","250","psychophysics","72","449161","0.0-72.0","51","1","3","0","28","44","","",""
"3539","key"," "," ","16.667127358490756","500","250","psychophysics","73","452702","0.0-73.0","51","1","3","5","52","31","","",""
"7695","key"," "," ","16.666631236442473","500","250","psychophysics","74","460406","0.0-74.0","51","1","3","0","46","84","","",""
"3134","key"," "," ","16.666000000000086","500","250","psychophysics","75","463542","0.0-75.0","51","1","3","5","41","33","","",""
"6885","key"," "," ","16.666604368932045","500","250","psychophysics","76","470430","0.0-76.0","51","1","3","0","43","74","","",""
"4779","key"," "," ","16.66599999999988","500","250","psychophysics","77","475211","0.0-77.0","51","1","3","5","55","49","","",""
"1346","key"," "," ","16.66599999999962","500","250","psychophysics","78","476558","0.0-78.0","51","1","3","0","36","10","","",""
"4756","key"," "," ","16.66701052631578","500","250","psychophysics","79","481321","0.0-79.0","51","1","3","5","38","44","","",""
"9381","key"," "," ","16.66647153024906","500","250","psychophysics","80","490705","0.0-80.0","51","1","3","0","57","76","","",""
"4832","key"," "," ","16.665999999999958","500","250","psychophysics","81","495540","0.0-81.0","51","1","3","5","35","53","","",""
"648","key"," "," ","16.6660000000005","500","250","psychophysics","82","496191","0.0-82.0","51","1","3","0","58","10","","",""
"5051","key"," "," ","16.66687086092702","500","250","psychophysics","83","501243","0.0-83.0","51","1","3","5","38","44","","",""
"17547","key"," "," ","16.666253802281346","500","250","psychophysics","84","518793","0.0-84.0","51","1","3","0","32","91","","",""
"4944","key"," "," ","16.666868243243183","500","250","psychophysics","85","523739","0.0-85.0","51","1","3","5","21","27","","",""
"7449","key"," "," ","16.66646860986546","500","250","psychophysics","86","531190","0.0-86.0","51","1","3","0","49","75","","",""
"4282","key"," "," ","16.665999999999713","500","250","psychophysics","87","535474","0.0-87.0","51","1","","","","","","",""
"46124","","","v","","","","html-keyboard-response","88","581598","0.0-88.0","51","1","","","","","<p> In this part of the experiment, we are going present digits 1, 2, 3, 4, 6, 7, 8, and 9.  Notice that 5 is missing.  Your job is to say whether the presented digit is less than or greater than 5.  For example, 3 is less than 5 and 7 is greater than 5.  If the digit is less than 5, press to v key; if it is greater than 5, press the n key. We are going to do 200 of these in total, but only 50 righ now. They go real fast.</p>  <br><br>  Ready? (press v or n)","",""
"4531","key","n","n","16.66850367647053","500","250","psychophysics","89","586141","0.0-89.0","51","1","4","","","","","1","7"
"null","","","null","","","","html-keyboard-response","90","586643","0.0-90.0","51","1","","","","","<p style=""color:darkgreen;font-size:24px;"">Correct :)</p>","",""
"2840","key","v","v","16.665999999999837","500","250","psychophysics","91","589487","0.0-91.0","51","1","4","","","","","1","1"
"null","","","null","","","","html-keyboard-response","92","589991","0.0-92.0","51","1","","","","","<p style=""color:darkgreen;font-size:24px;"">Correct :)</p>","",""
"3151","key","n","n","16.628642105263364","500","250","psychophysics","93","593146","0.0-93.0","51","1","4","","","","","1","6"
"null","","","null","","","","html-keyboard-response","94","593648","0.0-94.0","51","1","","","","","<p style=""color:darkgreen;font-size:24px;"">Correct :)</p>","",""
"2750","key","v","v","16.665999999999894","500","250","psychophysics","95","596408","0.0-95.0","51","1","4","","","","","1","4"
"null","","","null","","","","html-keyboard-response","96","596912","0.0-96.0","51","1","","","","","<p style=""color:darkgreen;font-size:24px;"">Correct :)</p>","",""
"2561","key","n","n","16.666000000000086","500","250","psychophysics","97","599477","0.0-97.0","51","1","4","","","","","1","9"
"null","","","null","","","","html-keyboard-response","98","599981","0.0-98.0","51","1","","","","","<p style=""color:darkgreen;font-size:24px;"">Correct :)</p>","",""
"2567","key","v","v","16.661722580645414","500","250","psychophysics","99","602552","0.0-99.0","51","1","4","","","","","1","3"
"null","","","null","","","","html-keyboard-response","100","603057","0.0-100.0","51","1","","","","","<p style=""color:darkgreen;font-size:24px;"">Correct :)</p>","",""
"2662","key","v","v","16.66600000000035","500","250","psychophysics","101","605729","0.0-101.0","51","1","4","","","","","1","3"
"null","","","null","","","","html-keyboard-response","102","606233","0.0-102.0","51","1","","","","","<p style=""color:darkgreen;font-size:24px;"">Correct :)</p>","",""
"2773","key","v","v","16.665999999999894","500","250","psychophysics","103","609011","0.0-103.0","51","1","4","","","","","1","1"
"null","","","null","","","","html-keyboard-response","104","609513","0.0-104.0","51","1","","","","","<p style=""color:darkgreen;font-size:24px;"">Correct :)</p>","",""
"2676","key","v","v","16.66479503105594","500","250","psychophysics","105","612193","0.0-105.0","51","1","4","","","","","1","2"
"null","","","null","","","","html-keyboard-response","106","612694","0.0-106.0","51","1","","","","","<p style=""color:darkgreen;font-size:24px;"">Correct :)</p>","",""
"2550","key","v","v","16.66600000000029","500","250","psychophysics","107","615248","0.0-107.0","51","1","4","","","","","1","3"
"null","","","null","","","","html-keyboard-response","108","615753","0.0-108.0","51","1","","","","","<p style=""color:darkgreen;font-size:24px;"">Correct :)</p>","",""
"2663","key","n","n","16.66599999999962","500","250","psychophysics","109","618420","0.0-109.0","51","1","4","","","","","1","9"
"null","","","null","","","","html-keyboard-response","110","618922","0.0-110.0","51","1","","","","","<p style=""color:darkgreen;font-size:24px;"">Correct :)</p>","",""
"2694","key","n","n","16.665999999999954","500","250","psychophysics","111","621626","0.0-111.0","51","1","4","","","","","1","8"
"null","","","null","","","","html-keyboard-response","112","622127","0.0-112.0","51","1","","","","","<p style=""color:darkgreen;font-size:24px;"">Correct :)</p>","",""
"2526","key","v","v","16.664598684211104","500","250","psychophysics","113","624657","0.0-113.0","51","1","4","","","","","1","4"
"null","","","null","","","","html-keyboard-response","114","625161","0.0-114.0","51","1","","","","","<p style=""color:darkgreen;font-size:24px;"">Correct :)</p>","",""
"2720","key","n","n","16.665999999999567","500","250","psychophysics","115","627885","0.0-115.0","51","1","4","","","","","1","6"
"null","","","null","","","","html-keyboard-response","116","628390","0.0-116.0","51","1","","","","","<p style=""color:darkgreen;font-size:24px;"">Correct :)</p>","",""
"3174","key","v","v","16.66600000000003","500","250","psychophysics","117","631574","0.0-117.0","51","1","4","","","","","1","4"
"null","","","null","","","","html-keyboard-response","118","632076","0.0-118.0","51","1","","","","","<p style=""color:darkgreen;font-size:24px;"">Correct :)</p>","",""
"2742","key","v","v","16.623163636363195","500","250","psychophysics","119","634822","0.0-119.0","51","1","4","","","","","1","1"
"null","","","null","","","","html-keyboard-response","120","635327","0.0-120.0","51","1","","","","","<p style=""color:darkgreen;font-size:24px;"">Correct :)</p>","",""
"2633","key","v","v","16.666000000000018","500","250","psychophysics","121","637964","0.0-121.0","51","1","4","","","","","1","2"
"null","","","null","","","","html-keyboard-response","122","638467","0.0-122.0","51","1","","","","","<p style=""color:darkgreen;font-size:24px;"">Correct :)</p>","",""
"2606","key","v","v","16.66600000000022","500","250","psychophysics","123","641077","0.0-123.0","51","1","4","","","","","1","4"
"null","","","null","","","","html-keyboard-response","124","641581","0.0-124.0","51","1","","","","","<p style=""color:darkgreen;font-size:24px;"">Correct :)</p>","",""
"2601","key","n","n","16.672224358974162","500","250","psychophysics","125","644186","0.0-125.0","51","1","4","","","","","1","9"
"null","","","null","","","","html-keyboard-response","126","644690","0.0-126.0","51","1","","","","","<p style=""color:darkgreen;font-size:24px;"">Correct :)</p>","",""
"2674","key","n","n","16.66600000000015","500","250","psychophysics","127","647374","0.0-127.0","51","1","4","","","","","1","7"
"null","","","null","","","","html-keyboard-response","128","647877","0.0-128.0","51","1","","","","","<p style=""color:darkgreen;font-size:24px;"">Correct :)</p>","",""
"2598","key","v","v","16.666000000000423","500","250","psychophysics","129","650479","0.0-129.0","51","1","4","","","","","1","1"
"null","","","null","","","","html-keyboard-response","130","650982","0.0-130.0","51","1","","","","","<p style=""color:darkgreen;font-size:24px;"">Correct :)</p>","",""
"2647","key","v","v","16.666981132075765","500","250","psychophysics","131","653633","0.0-131.0","51","1","4","","","","","1","3"
"null","","","null","","","","html-keyboard-response","132","654136","0.0-132.0","51","1","","","","","<p style=""color:darkgreen;font-size:24px;"">Correct :)</p>","",""
"2613","key","v","v","16.665999999999478","500","250","psychophysics","133","656759","0.0-133.0","51","1","4","","","","","1","4"
"null","","","null","","","","html-keyboard-response","134","657263","0.0-134.0","51","1","","","","","<p style=""color:darkgreen;font-size:24px;"">Correct :)</p>","",""
"2558","key","v","v","16.666000000000086","500","250","psychophysics","135","659826","0.0-135.0","51","1","4","","","","","1","4"
"null","","","null","","","","html-keyboard-response","136","660330","0.0-136.0","51","1","","","","","<p style=""color:darkgreen;font-size:24px;"">Correct :)</p>","",""
"2617","key","n","n","16.66515286624206","500","250","psychophysics","137","662951","0.0-137.0","51","1","4","","","","","1","8"
"null","","","null","","","","html-keyboard-response","138","663455","0.0-138.0","51","1","","","","","<p style=""color:darkgreen;font-size:24px;"">Correct :)</p>","",""
"2603","key","v","v","16.666000000000423","500","250","psychophysics","139","666062","0.0-139.0","51","1","4","","","","","1","3"
"null","","","null","","","","html-keyboard-response","140","666567","0.0-140.0","51","1","","","","","<p style=""color:darkgreen;font-size:24px;"">Correct :)</p>","",""
"2523","key","n","n","16.665999999999737","500","250","psychophysics","141","669094","0.0-141.0","51","1","4","","","","","1","9"
"null","","","null","","","","html-keyboard-response","142","669598","0.0-142.0","51","1","","","","","<p style=""color:darkgreen;font-size:24px;"">Correct :)</p>","",""
"2593","key","v","v","16.666000000000423","500","250","psychophysics","143","672201","0.0-143.0","51","1","4","","","","","1","4"
"null","","","null","","","","html-keyboard-response","144","672704","0.0-144.0","51","1","","","","","<p style=""color:darkgreen;font-size:24px;"">Correct :)</p>","",""
"2639","key","v","v","16.680867924528496","500","250","psychophysics","145","675348","0.0-145.0","51","1","4","","","","","1","4"
"null","","","null","","","","html-keyboard-response","146","675850","0.0-146.0","51","1","","","","","<p style=""color:darkgreen;font-size:24px;"">Correct :)</p>","",""
"2493","key","n","n","16.666000000000157","500","250","psychophysics","147","678347","0.0-147.0","51","1","4","","","","","1","9"
"null","","","null","","","","html-keyboard-response","148","678851","0.0-148.0","51","1","","","","","<p style=""color:darkgreen;font-size:24px;"">Correct :)</p>","",""
"2523","key","v","v","16.665999999999737","500","250","psychophysics","149","681384","0.0-149.0","51","1","4","","","","","1","3"
"null","","","null","","","","html-keyboard-response","150","681887","0.0-150.0","51","1","","","","","<p style=""color:darkgreen;font-size:24px;"">Correct :)</p>","",""
"2597","key","n","n","16.698871794872385","500","250","psychophysics","151","684488","0.0-151.0","51","1","4","","","","","1","8"
"null","","","null","","","","html-keyboard-response","152","684993","0.0-152.0","51","1","","","","","<p style=""color:darkgreen;font-size:24px;"">Correct :)</p>","",""
"3052","key","v","v","16.66599999999997","500","250","psychophysics","153","688049","0.0-153.0","51","1","4","","","","","1","4"
"null","","","null","","","","html-keyboard-response","154","688551","0.0-154.0","51","1","","","","","<p style=""color:darkgreen;font-size:24px;"">Correct :)</p>","",""
"2549","key","v","v","16.66600000000029","500","250","psychophysics","155","691110","0.0-155.0","51","1","4","","","","","1","1"
"null","","","null","","","","html-keyboard-response","156","691611","0.0-156.0","51","1","","","","","<p style=""color:darkgreen;font-size:24px;"">Correct :)</p>","",""
"2513","key","v","v","16.68602649006601","500","250","psychophysics","157","694128","0.0-157.0","51","1","4","","","","","1","1"
"null","","","null","","","","html-keyboard-response","158","694629","0.0-158.0","51","1","","","","","<p style=""color:darkgreen;font-size:24px;"">Correct :)</p>","",""
"2504","key","n","n","16.665999999999944","500","250","psychophysics","159","697137","0.0-159.0","51","1","4","","","","","1","7"
"null","","","null","","","","html-keyboard-response","160","697641","0.0-160.0","51","1","","","","","<p style=""color:darkgreen;font-size:24px;"">Correct :)</p>","",""
"2517","key","n","n","16.6660000000005","500","250","psychophysics","161","700168","0.0-161.0","51","1","4","","","","","1","8"
"null","","","null","","","","html-keyboard-response","162","700672","0.0-162.0","51","1","","","","","<p style=""color:darkgreen;font-size:24px;"">Correct :)</p>","",""
"2600","key","v","v","16.673724358974514","500","250","psychophysics","163","703276","0.0-163.0","51","1","4","","","","","1","2"
"null","","","null","","","","html-keyboard-response","164","703779","0.0-164.0","51","1","","","","","<p style=""color:darkgreen;font-size:24px;"">Correct :)</p>","",""
"2613","key","n","n","16.66600000000022","500","250","psychophysics","165","706395","0.0-165.0","51","1","4","","","","","1","8"
"null","","","null","","","","html-keyboard-response","166","706900","0.0-166.0","51","1","","","","","<p style=""color:darkgreen;font-size:24px;"">Correct :)</p>","",""
"2460","key","n","n","16.665999999999798","500","250","psychophysics","167","709370","0.0-167.0","51","1","4","","","","","1","9"
"null","","","null","","","","html-keyboard-response","168","709872","0.0-168.0","51","1","","","","","<p style=""color:darkgreen;font-size:24px;"">Correct :)</p>","",""
"2530","key","n","n","16.6660000000005","500","250","psychophysics","169","712407","0.0-169.0","51","1","4","","","","","1","9"
"null","","","null","","","","html-keyboard-response","170","712908","0.0-170.0","51","1","","","","","<p style=""color:darkgreen;font-size:24px;"">Correct :)</p>","",""
"2437","key","n","n","16.672575342465727","500","250","psychophysics","171","715349","0.0-171.0","51","1","4","","","","","1","8"
"null","","","null","","","","html-keyboard-response","172","715851","0.0-172.0","51","1","","","","","<p style=""color:darkgreen;font-size:24px;"">Correct :)</p>","",""
"2530","key","v","v","16.6660000000005","500","250","psychophysics","173","718385","0.0-173.0","51","1","4","","","","","1","2"
"null","","","null","","","","html-keyboard-response","174","718889","0.0-174.0","51","1","","","","","<p style=""color:darkgreen;font-size:24px;"">Correct :)</p>","",""
"2534","key","n","n","16.665999999999737","500","250","psychophysics","175","721427","0.0-175.0","51","1","4","","","","","1","7"
"null","","","null","","","","html-keyboard-response","176","721929","0.0-176.0","51","1","","","","","<p style=""color:darkgreen;font-size:24px;"">Correct :)</p>","",""
"2834","key","n","n","16.61878947368469","500","250","psychophysics","177","724767","0.0-177.0","51","1","4","","","","","1","6"
"null","","","null","","","","html-keyboard-response","178","725271","0.0-178.0","51","1","","","","","<p style=""color:darkgreen;font-size:24px;"">Correct :)</p>","",""
"2716","key","n","n","16.66599999999976","500","250","psychophysics","179","727991","0.0-179.0","51","1","4","","","","","1","6"
"null","","","null","","","","html-keyboard-response","180","728494","0.0-180.0","51","1","","","","","<p style=""color:darkgreen;font-size:24px;"">Correct :)</p>","",""
"2565","key","v","v","16.666000000000086","500","250","psychophysics","181","731063","0.0-181.0","51","1","4","","","","","1","2"
"null","","","null","","","","html-keyboard-response","182","731564","0.0-182.0","51","1","","","","","<p style=""color:darkgreen;font-size:24px;"">Correct :)</p>","",""
"2518","key","n","n","16.67399337748297","500","250","psychophysics","183","734086","0.0-183.0","51","1","4","","","","","1","9"
"null","","","null","","","","html-keyboard-response","184","734589","0.0-184.0","51","1","","","","","<p style=""color:darkgreen;font-size:24px;"">Correct :)</p>","",""
"2490","key","n","n","16.666000000000157","500","250","psychophysics","185","737089","0.0-185.0","51","1","4","","","","","1","8"
"null","","","null","","","","html-keyboard-response","186","737590","0.0-186.0","51","1","","","","","<p style=""color:darkgreen;font-size:24px;"">Correct :)</p>","",""
"2656","key","n","n","16.66599999999982","500","250","psychophysics","187","740250","0.0-187.0","51","1","4","","","","","1","7"
"null","","","null","","","","html-keyboard-response","188","740754","0.0-188.0","51","1","","","","","<p style=""color:darkgreen;font-size:24px;"">Correct :)</p>","",""
"10894","","","v","","","","html-keyboard-response","189","751649","0.0-189.0","51","1","","","","","<p> Ok, now we are going present the same digits as before.  Your job is to say whether the digit is even or odd  If the digit is odd, press to v key; if it is even, press the n key. We are going to do 50 of these.  </p>  <br><br>  Ready? (press v or n)","",""
"3604","key","n","n","16.704296296296416","500","250","psychophysics","190","755256","0.0-190.0","51","1","5","","","","","0","8"
"null","","","null","","","","html-keyboard-response","191","755759","0.0-191.0","51","1","","","","","<p style=""color:darkgreen;font-size:24px;"">Correct :)</p>","",""
"2938","key","n","n","16.665999999999904","500","250","psychophysics","192","758702","0.0-192.0","51","1","5","","","","","0","4"
"null","","","null","","","","html-keyboard-response","193","759206","0.0-193.0","51","1","","","","","<p style=""color:darkgreen;font-size:24px;"">Correct :)</p>","",""
"2611","key","n","n","16.65711464968163","500","250","psychophysics","194","761821","0.0-194.0","51","1","5","","","","","0","6"
"null","","","null","","","","html-keyboard-response","195","762325","0.0-195.0","51","1","","","","","<p style=""color:darkgreen;font-size:24px;"">Correct :)</p>","",""
"2630","key","v","v","16.666000000000018","500","250","psychophysics","196","764958","0.0-196.0","51","1","5","","","","","0","1"
"null","","","null","","","","html-keyboard-response","197","765463","0.0-197.0","51","1","","","","","<p style=""color:darkgreen;font-size:24px;"">Correct :)</p>","",""
"2605","key","v","v","16.665999999999677","500","250","psychophysics","198","768073","0.0-198.0","51","1","5","","","","","0","3"
"null","","","null","","","","html-keyboard-response","199","768577","0.0-199.0","51","1","","","","","<p style=""color:darkgreen;font-size:24px;"">Correct :)</p>","",""
"2609","key","v","v","16.66600000000022","500","250","psychophysics","200","771191","0.0-200.0","51","1","5","","","","","0","1"
"null","","","null","","","","html-keyboard-response","201","771693","0.0-201.0","51","1","","","","","<p style=""color:darkgreen;font-size:24px;"">Correct :)</p>","",""
"2838","key","n","n","16.678836257309975","500","250","psychophysics","202","774534","0.0-202.0","51","1","5","","","","","0","4"
"null","","","null","","","","html-keyboard-response","203","775037","0.0-203.0","51","1","","","","","<p style=""color:darkgreen;font-size:24px;"">Correct :)</p>","",""
"2817","key","v","v","16.66600000000002","500","250","psychophysics","204","777858","0.0-204.0","51","1","5","","","","","0","7"
"null","","","null","","","","html-keyboard-response","205","778362","0.0-205.0","51","1","","","","","<p style=""color:darkgreen;font-size:24px;"">Correct :)</p>","",""
"3231","key","n","n","16.66600000000014","500","250","psychophysics","206","781597","0.0-206.0","51","1","5","","","","","0","4"
"null","","","null","","","","html-keyboard-response","207","782102","0.0-207.0","51","1","","","","","<p style=""color:darkgreen;font-size:24px;"">Correct :)</p>","",""
"2520","key","n","n","16.664854304635256","500","250","psychophysics","208","784625","0.0-208.0","51","1","5","","","","","0","8"
"null","","","null","","","","html-keyboard-response","209","785126","0.0-209.0","51","1","","","","","<p style=""color:darkgreen;font-size:24px;"">Correct :)</p>","",""
"2486","key","n","n","16.666000000000157","500","250","psychophysics","210","787616","0.0-210.0","51","1","5","","","","","0","8"
"null","","","null","","","","html-keyboard-response","211","788120","0.0-211.0","51","1","","","","","<p style=""color:darkgreen;font-size:24px;"">Correct :)</p>","",""
"2618","key","n","n","16.66600000000022","500","250","psychophysics","212","790742","0.0-212.0","51","1","5","","","","","0","8"
"null","","","null","","","","html-keyboard-response","213","791243","0.0-213.0","51","1","","","","","<p style=""color:darkgreen;font-size:24px;"">Correct :)</p>","",""
"2632","key","n","n","16.619723270440755","500","250","psychophysics","214","793879","0.0-214.0","51","1","5","","","","","0","2"
"null","","","null","","","","html-keyboard-response","215","794383","0.0-215.0","51","1","","","","","<p style=""color:darkgreen;font-size:24px;"">Correct :)</p>","",""
"2523","key","v","v","16.665999999999737","500","250","psychophysics","216","796911","0.0-216.0","51","1","5","","","","","0","1"
"null","","","null","","","","html-keyboard-response","217","797415","0.0-217.0","51","1","","","","","<p style=""color:darkgreen;font-size:24px;"">Correct :)</p>","",""
"2728","key","v","v","16.666000000000277","500","250","psychophysics","218","800147","0.0-218.0","51","1","5","","","","","0","7"
"null","","","null","","","","html-keyboard-response","219","800648","0.0-219.0","51","1","","","","","<p style=""color:darkgreen;font-size:24px;"">Correct :)</p>","",""
"2830","key","n","n","16.672211764705615","500","250","psychophysics","220","803482","0.0-220.0","51","1","5","","","","","0","8"
"null","","","null","","","","html-keyboard-response","221","803986","0.0-221.0","51","1","","","","","<p style=""color:darkgreen;font-size:24px;"">Correct :)</p>","",""
"2628","key","v","v","16.66599999999928","500","250","psychophysics","222","806618","0.0-222.0","51","1","5","","","","","0","9"
"null","","","null","","","","html-keyboard-response","223","807120","0.0-223.0","51","1","","","","","<p style=""color:darkgreen;font-size:24px;"">Correct :)</p>","",""
"3135","key","n","n","16.665999999999748","500","250","psychophysics","224","810259","0.0-224.0","51","1","5","","","","","0","6"
"null","","","null","","","","html-keyboard-response","225","810760","0.0-225.0","51","1","","","","","<p style=""color:darkgreen;font-size:24px;"">Correct :)</p>","",""
"2722","key","n","n","16.682509202454412","500","250","psychophysics","226","813486","0.0-226.0","51","1","5","","","","","0","6"
"null","","","null","","","","html-keyboard-response","227","813987","0.0-227.0","51","1","","","","","<p style=""color:darkgreen;font-size:24px;"">Correct :)</p>","",""
"2573","key","v","v","16.66599999999988","500","250","psychophysics","228","816566","0.0-228.0","51","1","5","","","","","0","7"
"null","","","null","","","","html-keyboard-response","229","817071","0.0-229.0","51","1","","","","","<p style=""color:darkgreen;font-size:24px;"">Correct :)</p>","",""
"3708","key","n","n","16.666000000000178","500","250","psychophysics","230","820787","0.0-230.0","51","1","5","","","","","0","6"
"null","","","null","","","","html-keyboard-response","231","821293","0.0-231.0","51","1","","","","","<p style=""color:darkgreen;font-size:24px;"">Correct :)</p>","",""
"2559","key","v","v","16.67285064935031","500","250","psychophysics","232","823858","0.0-232.0","51","1","5","","","","","0","1"
"null","","","null","","","","html-keyboard-response","233","824359","0.0-233.0","51","1","","","","","<p style=""color:darkgreen;font-size:24px;"">Correct :)</p>","",""
"2819","key","n","n","16.665999999999332","500","250","psychophysics","234","827185","0.0-234.0","51","1","5","","","","","0","2"
"null","","","null","","","","html-keyboard-response","235","827687","0.0-235.0","51","1","","","","","<p style=""color:darkgreen;font-size:24px;"">Correct :)</p>","",""
"2608","key","v","v","16.665999999999677","500","250","psychophysics","236","830300","0.0-236.0","51","1","5","","","","","0","1"
"null","","","null","","","","html-keyboard-response","237","830805","0.0-237.0","51","1","","","","","<p style=""color:darkgreen;font-size:24px;"">Correct :)</p>","",""
"2672","key","v","v","16.679412500000034","500","250","psychophysics","238","833482","0.0-238.0","51","1","5","","","","","0","3"
"null","","","null","","","","html-keyboard-response","239","833983","0.0-239.0","51","1","","","","","<p style=""color:darkgreen;font-size:24px;"">Correct :)</p>","",""
"2643","key","v","v","16.66599999999982","500","250","psychophysics","240","836637","0.0-240.0","51","1","5","","","","","0","6"
"null","","","null","","","","html-keyboard-response","241","837142","0.0-241.0","51","1","","","","","<p style=""color:red;font-size:24px;"">Error :(</p>","",""
"2588","key","v","v","16.66599999999988","500","250","psychophysics","242","839735","0.0-242.0","51","1","5","","","","","0","1"
"null","","","null","","","","html-keyboard-response","243","840237","0.0-243.0","51","1","","","","","<p style=""color:darkgreen;font-size:24px;"">Correct :)</p>","",""
"2683","key","n","n","16.662211180124462","500","250","psychophysics","244","842924","0.0-244.0","51","1","5","","","","","0","6"
"null","","","null","","","","html-keyboard-response","245","843429","0.0-245.0","51","1","","","","","<p style=""color:darkgreen;font-size:24px;"">Correct :)</p>","",""
"2691","key","n","n","16.665999999999954","500","250","psychophysics","246","846131","0.0-246.0","51","1","5","","","","","0","4"
"null","","","null","","","","html-keyboard-response","247","846635","0.0-247.0","51","1","","","","","<p style=""color:darkgreen;font-size:24px;"">Correct :)</p>","",""
"2712","key","n","n","16.666000000000473","500","250","psychophysics","248","849352","0.0-248.0","51","1","5","","","","","0","2"
"null","","","null","","","","html-keyboard-response","249","849857","0.0-249.0","51","1","","","","","<p style=""color:darkgreen;font-size:24px;"">Correct :)</p>","",""
"2627","key","v","v","16.66025316455664","500","250","psychophysics","250","852488","0.0-250.0","51","1","5","","","","","0","1"
"null","","","null","","","","html-keyboard-response","251","852993","0.0-251.0","51","1","","","","","<p style=""color:darkgreen;font-size:24px;"">Correct :)</p>","",""
"2580","key","n","n","16.66599999999933","500","250","psychophysics","252","855577","0.0-252.0","51","1","5","","","","","0","8"
"null","","","null","","","","html-keyboard-response","253","856081","0.0-253.0","51","1","","","","","<p style=""color:darkgreen;font-size:24px;"">Correct :)</p>","",""
"2686","key","n","n","16.66600000000015","500","250","psychophysics","254","858771","0.0-254.0","51","1","5","","","","","0","6"
"null","","","null","","","","html-keyboard-response","255","859275","0.0-255.0","51","1","","","","","<p style=""color:darkgreen;font-size:24px;"">Correct :)</p>","",""
"2725","key","v","v","16.665999999999567","500","250","psychophysics","256","862004","0.0-256.0","51","1","5","","","","","0","3"
"null","","","null","","","","html-keyboard-response","257","862508","0.0-257.0","51","1","","","","","<p style=""color:darkgreen;font-size:24px;"">Correct :)</p>","",""
"2736","key","v","v","16.669684848484273","500","250","psychophysics","258","865249","0.0-258.0","51","1","5","","","","","0","9"
"null","","","null","","","","html-keyboard-response","259","865753","0.0-259.0","51","1","","","","","<p style=""color:darkgreen;font-size:24px;"">Correct :)</p>","",""
"2942","key","n","n","16.665999999999904","500","250","psychophysics","260","868699","0.0-260.0","51","1","5","","","","","0","2"
"null","","","null","","","","html-keyboard-response","261","869201","0.0-261.0","51","1","","","","","<p style=""color:darkgreen;font-size:24px;"">Correct :)</p>","",""
"2749","key","v","v","16.666000000000086","500","250","psychophysics","262","871955","0.0-262.0","51","1","5","","","","","0","9"
"null","","","null","","","","html-keyboard-response","263","872458","0.0-263.0","51","1","","","","","<p style=""color:darkgreen;font-size:24px;"">Correct :)</p>","",""
"2647","key","v","v","16.710742138364974","500","250","psychophysics","264","875109","0.0-264.0","51","1","5","","","","","0","1"
"null","","","null","","","","html-keyboard-response","265","875610","0.0-265.0","51","1","","","","","<p style=""color:darkgreen;font-size:24px;"">Correct :)</p>","",""
"2651","key","v","v","16.66599999999982","500","250","psychophysics","266","878265","0.0-266.0","51","1","5","","","","","0","9"
"null","","","null","","","","html-keyboard-response","267","878768","0.0-267.0","51","1","","","","","<p style=""color:darkgreen;font-size:24px;"">Correct :)</p>","",""
"2658","key","v","v","16.66599999999962","500","250","psychophysics","268","881436","0.0-268.0","51","1","5","","","","","0","3"
"null","","","null","","","","html-keyboard-response","269","881938","0.0-269.0","51","1","","","","","<p style=""color:darkgreen;font-size:24px;"">Correct :)</p>","",""
"2506","key","v","v","16.666233333333707","500","250","psychophysics","270","884448","0.0-270.0","51","1","5","","","","","0","3"
"null","","","null","","","","html-keyboard-response","271","884950","0.0-271.0","51","1","","","","","<p style=""color:darkgreen;font-size:24px;"">Correct :)</p>","",""
"2613","key","n","n","16.666000000000423","500","250","psychophysics","272","887567","0.0-272.0","51","1","5","","","","","0","4"
"null","","","null","","","","html-keyboard-response","273","888069","0.0-273.0","51","1","","","","","<p style=""color:darkgreen;font-size:24px;"">Correct :)</p>","",""
"2534","key","n","n","16.665999999999737","500","250","psychophysics","274","890607","0.0-274.0","51","1","5","","","","","0","6"
"null","","","null","","","","html-keyboard-response","275","891109","0.0-275.0","51","1","","","","","<p style=""color:darkgreen;font-size:24px;"">Correct :)</p>","",""
"2600","key","v","v","16.676762820512522","500","250","psychophysics","276","893713","0.0-276.0","51","1","5","","","","","0","3"
"null","","","null","","","","html-keyboard-response","277","894215","0.0-277.0","51","1","","","","","<p style=""color:darkgreen;font-size:24px;"">Correct :)</p>","",""
"2996","key","v","v","16.666000000000025","500","250","psychophysics","278","897216","0.0-278.0","51","1","5","","","","","0","9"
"null","","","null","","","","html-keyboard-response","279","897717","0.0-279.0","51","1","","","","","<p style=""color:darkgreen;font-size:24px;"">Correct :)</p>","",""
"3140","key","v","v","16.666000000000366","500","250","psychophysics","280","900861","0.0-280.0","51","1","5","","","","","0","9"
"null","","","null","","","","html-keyboard-response","281","901365","0.0-281.0","51","1","","","","","<p style=""color:darkgreen;font-size:24px;"">Correct :)</p>","",""
"2557","key","v","v","16.672818181817814","500","250","psychophysics","282","903934","0.0-282.0","51","1","5","","","","","0","1"
"null","","","null","","","","html-keyboard-response","283","904437","0.0-283.0","51","1","","","","","<p style=""color:darkgreen;font-size:24px;"">Correct :)</p>","",""
"2811","key","n","n","16.665999999999517","500","250","psychophysics","284","907253","0.0-284.0","51","1","5","","","","","0","2"
"null","","","null","","","","html-keyboard-response","285","907757","0.0-285.0","51","1","","","","","<p style=""color:darkgreen;font-size:24px;"">Correct :)</p>","",""
"3086","key","v","v","16.665999999999798","500","250","psychophysics","286","910846","0.0-286.0","51","1","5","","","","","0","3"
"null","","","null","","","","html-keyboard-response","287","911351","0.0-287.0","51","1","","","","","<p style=""color:darkgreen;font-size:24px;"">Correct :)</p>","",""
"2704","key","v","v","16.66287037036971","500","250","psychophysics","288","914059","0.0-288.0","51","1","5","","","","","0","3"
"null","","","null","","","","html-keyboard-response","289","914561","0.0-289.0","51","1","","","","","<p style=""color:darkgreen;font-size:24px;"">Correct :)</p>","",""
"12587","","","v","","","","html-keyboard-response","290","927148","0.0-290.0","51","1","","","","","<p> Here, the tasks are going to switch.  For some trials, your job is to decide if the digit is less than or greater than 5.  For others, it is to decide if the digit is even or odd.  You will be told which type of trial the current one is.  But, pay attention, the type of trial changes too.  We are going to do 50 of these.  </p>  <br><br>  Ready? (press v or n)","",""
"2760","key","n","n","16.655843373493948","500","250","psychophysics","291","929912","0.0-291.0","51","1","6","","","","","0","2"
"null","","","null","","","","html-keyboard-response","292","930414","0.0-292.0","51","1","","","","","<p style=""color:darkgreen;font-size:24px;"">Correct :)</p>","",""
"2927","key","v","v","16.666000000000086","500","250","psychophysics","293","933345","0.0-293.0","51","1","6","","","","","0","3"
"null","","","null","","","","html-keyboard-response","294","933849","0.0-294.0","51","1","","","","","<p style=""color:darkgreen;font-size:24px;"">Correct :)</p>","",""
"2743","key","n","n","16.665999999999567","500","250","psychophysics","295","936597","0.0-295.0","51","1","6","","","","","0","6"
"null","","","null","","","","html-keyboard-response","296","937101","0.0-296.0","51","1","","","","","<p style=""color:darkgreen;font-size:24px;"">Correct :)</p>","",""
"2662","key","n","n","16.704031446540828","500","250","psychophysics","297","939767","0.0-297.0","51","1","6","","","","","1","6"
"null","","","null","","","","html-keyboard-response","298","940270","0.0-298.0","51","1","","","","","<p style=""color:darkgreen;font-size:24px;"">Correct :)</p>","",""
"2669","key","n","n","16.66600000000035","500","250","psychophysics","299","942944","0.0-299.0","51","1","6","","","","","0","8"
"null","","","null","","","","html-keyboard-response","300","943446","0.0-300.0","51","1","","","","","<p style=""color:darkgreen;font-size:24px;"">Correct :)</p>","",""
"2609","key","n","n","16.665999999999478","500","250","psychophysics","301","946059","0.0-301.0","51","1","6","","","","","0","4"
"null","","","null","","","","html-keyboard-response","302","946563","0.0-302.0","51","1","","","","","<p style=""color:darkgreen;font-size:24px;"">Correct :)</p>","",""
"2796","key","v","v","16.67239880952374","500","250","psychophysics","303","949363","0.0-303.0","51","1","6","","","","","0","7"
"null","","","null","","","","html-keyboard-response","304","949866","0.0-304.0","51","1","","","","","<p style=""color:darkgreen;font-size:24px;"">Correct :)</p>","",""
"2833","key","v","v","16.665999999999837","500","250","psychophysics","305","952703","0.0-305.0","51","1","6","","","","","1","1"
"null","","","null","","","","html-keyboard-response","306","953204","0.0-306.0","51","1","","","","","<p style=""color:darkgreen;font-size:24px;"">Correct :)</p>","",""
"4184","key","v","v","16.64823107569677","500","250","psychophysics","307","957392","0.0-307.0","51","1","6","","","","","1","4"
"null","","","null","","","","html-keyboard-response","308","957893","0.0-308.0","51","1","","","","","<p style=""color:darkgreen;font-size:24px;"">Correct :)</p>","",""
"3489","key","n","n","16.665999999999933","500","250","psychophysics","309","961384","0.0-309.0","51","1","6","","","","","1","6"
"null","","","null","","","","html-keyboard-response","310","961888","0.0-310.0","51","1","","","","","<p style=""color:darkgreen;font-size:24px;"">Correct :)</p>","",""
"2727","key","n","n","16.666000000000277","500","250","psychophysics","311","964619","0.0-311.0","51","1","6","","","","","1","4"
"null","","","null","","","","html-keyboard-response","312","965121","0.0-312.0","51","1","","","","","<p style=""color:red;font-size:24px;"">Error :(</p>","",""
"3606","key","v","v","16.657124423963225","500","250","psychophysics","313","968737","0.0-313.0","51","1","6","","","","","0","7"
"null","","","null","","","","html-keyboard-response","314","969241","0.0-314.0","51","1","","","","","<p style=""color:darkgreen;font-size:24px;"">Correct :)</p>","",""
"2934","key","v","v","16.666000000000086","500","250","psychophysics","315","972180","0.0-315.0","51","1","6","","","","","1","2"
"null","","","null","","","","html-keyboard-response","316","972684","0.0-316.0","51","1","","","","","<p style=""color:darkgreen;font-size:24px;"">Correct :)</p>","",""
"2604","key","v","v","16.665999999999677","500","250","psychophysics","317","975292","0.0-317.0","51","1","6","","","","","1","2"
"null","","","null","","","","html-keyboard-response","318","975796","0.0-318.0","51","1","","","","","<p style=""color:darkgreen;font-size:24px;"">Correct :)</p>","",""
"3173","key","n","n","16.668863157894904","500","250","psychophysics","319","978974","0.0-319.0","51","1","6","","","","","1","6"
"null","","","null","","","","html-keyboard-response","320","979476","0.0-320.0","51","1","","","","","<p style=""color:darkgreen;font-size:24px;"">Correct :)</p>","",""
"2925","key","v","v","16.666000000000086","500","250","psychophysics","321","982405","0.0-321.0","51","1","6","","","","","0","1"
"null","","","null","","","","html-keyboard-response","322","982907","0.0-322.0","51","1","","","","","<p style=""color:darkgreen;font-size:24px;"">Correct :)</p>","",""
"2865","key","n","n","16.666000000000146","500","250","psychophysics","323","985776","0.0-323.0","51","1","6","","","","","0","6"
"null","","","null","","","","html-keyboard-response","324","986279","0.0-324.0","51","1","","","","","<p style=""color:darkgreen;font-size:24px;"">Correct :)</p>","",""
"3126","key","n","n","16.6758716577542","500","250","psychophysics","325","989410","0.0-325.0","51","1","6","","","","","1","6"
"null","","","null","","","","html-keyboard-response","326","989913","0.0-326.0","51","1","","","","","<p style=""color:darkgreen;font-size:24px;"">Correct :)</p>","",""
"3396","key","v","v","16.665999999999876","500","250","psychophysics","327","993313","0.0-327.0","51","1","6","","","","","1","2"
"null","","","null","","","","html-keyboard-response","328","993814","0.0-328.0","51","1","","","","","<p style=""color:darkgreen;font-size:24px;"">Correct :)</p>","",""
"3289","key","n","n","16.665999999999656","500","250","psychophysics","329","997107","0.0-329.0","51","1","6","","","","","1","9"
"null","","","null","","","","html-keyboard-response","330","997615","0.0-330.0","51","1","","","","","<p style=""color:darkgreen;font-size:24px;"">Correct :)</p>","",""
"3223","key","v","v","16.647243523315787","500","250","psychophysics","331","1000842","0.0-331.0","51","1","6","","","","","0","7"
"null","","","null","","","","html-keyboard-response","332","1001343","0.0-332.0","51","1","","","","","<p style=""color:darkgreen;font-size:24px;"">Correct :)</p>","",""
"3322","key","n","n","16.665999999999926","500","250","psychophysics","333","1004669","0.0-333.0","51","1","6","","","","","1","6"
"null","","","null","","","","html-keyboard-response","334","1005174","0.0-334.0","51","1","","","","","<p style=""color:darkgreen;font-size:24px;"">Correct :)</p>","",""
"3280","key","v","v","16.66905583756347","500","250","psychophysics","335","1008458","0.0-335.0","51","1","6","","","","","1","4"
"null","","","null","","","","html-keyboard-response","336","1008962","0.0-336.0","51","1","","","","","<p style=""color:darkgreen;font-size:24px;"">Correct :)</p>","",""
"3234","key","n","n","16.66600000000014","500","250","psychophysics","337","1012201","0.0-337.0","51","1","6","","","","","0","6"
"null","","","null","","","","html-keyboard-response","338","1012703","0.0-338.0","51","1","","","","","<p style=""color:darkgreen;font-size:24px;"">Correct :)</p>","",""
"3013","key","v","v","16.666000000000494","500","250","psychophysics","339","1015719","0.0-339.0","51","1","6","","","","","1","1"
"null","","","null","","","","html-keyboard-response","340","1016222","0.0-340.0","51","1","","","","","<p style=""color:darkgreen;font-size:24px;"">Correct :)</p>","",""
"2980","key","n","n","16.673525139664733","500","250","psychophysics","341","1019206","0.0-341.0","51","1","6","","","","","1","8"
"null","","","null","","","","html-keyboard-response","342","1019709","0.0-342.0","51","1","","","","","<p style=""color:darkgreen;font-size:24px;"">Correct :)</p>","",""
"3413","key","v","v","16.66600000000029","500","250","psychophysics","343","1023127","0.0-343.0","51","1","6","","","","","1","2"
"null","","","null","","","","html-keyboard-response","344","1023628","0.0-344.0","51","1","","","","","<p style=""color:darkgreen;font-size:24px;"">Correct :)</p>","",""
"3282","key","v","v","16.666000000000246","500","250","psychophysics","345","1026914","0.0-345.0","51","1","6","","","","","0","3"
"null","","","null","","","","html-keyboard-response","346","1027418","0.0-346.0","51","1","","","","","<p style=""color:darkgreen;font-size:24px;"">Correct :)</p>","",""
"3023","key","v","v","16.670629834253933","500","250","psychophysics","347","1030445","0.0-347.0","51","1","6","","","","","1","2"
"null","","","null","","","","html-keyboard-response","348","1030947","0.0-348.0","51","1","","","","","<p style=""color:darkgreen;font-size:24px;"">Correct :)</p>","",""
"3057","key","n","n","16.665999999999507","500","250","psychophysics","349","1034008","0.0-349.0","51","1","6","","","","","0","8"
"null","","","null","","","","html-keyboard-response","350","1034512","0.0-350.0","51","1","","","","","<p style=""color:darkgreen;font-size:24px;"">Correct :)</p>","",""
"3051","key","n","n","16.666000000000142","500","250","psychophysics","351","1037567","0.0-351.0","51","1","6","","","","","0","4"
"null","","","null","","","","html-keyboard-response","352","1038072","0.0-352.0","51","1","","","","","<p style=""color:darkgreen;font-size:24px;"">Correct :)</p>","",""
"2979","key","v","v","16.64450279329565","500","250","psychophysics","353","1041055","0.0-353.0","51","1","6","","","","","1","3"
"null","","","null","","","","html-keyboard-response","354","1041559","0.0-354.0","51","1","","","","","<p style=""color:darkgreen;font-size:24px;"">Correct :)</p>","",""
"2870","key","n","n","16.666000000000146","500","250","psychophysics","355","1044433","0.0-355.0","51","1","6","","","","","1","9"
"null","","","null","","","","html-keyboard-response","356","1044937","0.0-356.0","51","1","","","","","<p style=""color:darkgreen;font-size:24px;"">Correct :)</p>","",""
"3319","key","v","v","16.664459999999963","500","250","psychophysics","357","1048260","0.0-357.0","51","1","6","","","","","0","9"
"null","","","null","","","","html-keyboard-response","358","1048762","0.0-358.0","51","1","","","","","<p style=""color:darkgreen;font-size:24px;"">Correct :)</p>","",""
"3630","key","v","v","16.666000000000377","500","250","psychophysics","359","1052396","0.0-359.0","51","1","6","","","","","1","2"
"null","","","null","","","","html-keyboard-response","360","1052901","0.0-360.0","51","1","","","","","<p style=""color:darkgreen;font-size:24px;"">Correct :)</p>","",""
"3312","key","n","n","16.665999999999926","500","250","psychophysics","361","1056217","0.0-361.0","51","1","6","","","","","0","8"
"null","","","null","","","","html-keyboard-response","362","1056721","0.0-362.0","51","1","","","","","<p style=""color:darkgreen;font-size:24px;"">Correct :)</p>","",""
"3301","key","v","v","16.670530303029786","500","250","psychophysics","363","1060032","0.0-363.0","51","1","6","","","","","1","2"
"null","","","null","","","","html-keyboard-response","364","1060534","0.0-364.0","51","1","","","","","<p style=""color:darkgreen;font-size:24px;"">Correct :)</p>","",""
"4124","key","n","n","16.66599999999932","500","250","psychophysics","365","1064663","0.0-365.0","51","1","6","","","","","0","8"
"null","","","null","","","","html-keyboard-response","366","1065167","0.0-366.0","51","1","","","","","<p style=""color:darkgreen;font-size:24px;"">Correct :)</p>","",""
"2789","key","n","n","16.66600000000021","500","250","psychophysics","367","1067960","0.0-367.0","51","1","6","","","","","1","6"
"null","","","null","","","","html-keyboard-response","368","1068463","0.0-368.0","51","1","","","","","<p style=""color:darkgreen;font-size:24px;"">Correct :)</p>","",""
"3099","key","n","n","16.64406989247323","500","250","psychophysics","369","1071566","0.0-369.0","51","1","6","","","","","0","4"
"null","","","null","","","","html-keyboard-response","370","1072070","0.0-370.0","51","1","","","","","<p style=""color:darkgreen;font-size:24px;"">Correct :)</p>","",""
"3076","key","n","n","16.66599999999997","500","250","psychophysics","371","1075151","0.0-371.0","51","1","6","","","","","1","8"
"null","","","null","","","","html-keyboard-response","372","1075655","0.0-372.0","51","1","","","","","<p style=""color:darkgreen;font-size:24px;"">Correct :)</p>","",""
"3850","key","v","v","16.668108225107652","500","250","psychophysics","373","1079509","0.0-373.0","51","1","6","","","","","0","3"
"null","","","null","","","","html-keyboard-response","374","1080012","0.0-374.0","51","1","","","","","<p style=""color:darkgreen;font-size:24px;"">Correct :)</p>","",""
"3230","key","v","v","16.66600000000074","500","250","psychophysics","375","1083246","0.0-375.0","51","1","6","","","","","1","2"
"null","","","null","","","","html-keyboard-response","376","1083750","0.0-376.0","51","1","","","","","<p style=""color:darkgreen;font-size:24px;"">Correct :)</p>","",""
"2595","key","v","v","16.665999999999677","500","250","psychophysics","377","1086356","0.0-377.0","51","1","6","","","","","1","2"
"null","","","null","","","","html-keyboard-response","378","1086859","0.0-378.0","51","1","","","","","<p style=""color:darkgreen;font-size:24px;"">Correct :)</p>","",""
"2577","key","n","n","16.67158064516111","500","250","psychophysics","379","1089441","0.0-379.0","51","1","6","","","","","1","6"
"null","","","null","","","","html-keyboard-response","380","1089942","0.0-380.0","51","1","","","","","<p style=""color:darkgreen;font-size:24px;"">Correct :)</p>","",""
"3303","key","v","v","16.666000000000086","500","250","psychophysics","381","1093249","0.0-381.0","51","1","6","","","","","0","7"
"null","","","null","","","","html-keyboard-response","382","1093750","0.0-382.0","51","1","","","","","<p style=""color:darkgreen;font-size:24px;"">Correct :)</p>","",""
"3267","key","v","v","16.665999999999222","500","250","psychophysics","383","1097021","0.0-383.0","51","1","6","","","","","1","3"
"null","","","null","","","","html-keyboard-response","384","1097523","0.0-384.0","51","1","","","","","<p style=""color:darkgreen;font-size:24px;"">Correct :)</p>","",""
"3241","key","v","v","16.67235051546385","500","250","psychophysics","385","1100767","0.0-385.0","51","1","6","","","","","0","1"
"null","","","null","","","","html-keyboard-response","386","1101271","0.0-386.0","51","1","","","","","<p style=""color:darkgreen;font-size:24px;"">Correct :)</p>","",""
"2996","key","n","n","16.66599999999938","500","250","psychophysics","387","1104272","0.0-387.0","51","1","6","","","","","1","9"
"null","","","null","","","","html-keyboard-response","388","1104774","0.0-388.0","51","1","","","","","<p style=""color:darkgreen;font-size:24px;"">Correct :)</p>","",""
"2542","key","n","n","16.66600000000029","500","250","psychophysics","389","1107320","0.0-389.0","51","1","6","","","","","1","9"
"null","","","null","","","","html-keyboard-response","390","1107825","0.0-390.0","51","1","","","","","<p style=""color:darkgreen;font-size:24px;"">Correct :)</p>","",""
"12101","","","n","","","","html-keyboard-response","391","1119927","0.0-391.0","51","1","","","","","<p> Last set of trials.  Here, the tasks are going to switch once again.  We are going to do 50 of these.  And then you are done with the experiment.  </p>  <br><br>  Ready? (press v or n)","",""
"4547","key","v","v","16.66599999999989","500","250","psychophysics","392","1124476","0.0-392.0","51","1","7","","","","","1","2"
"null","","","null","","","","html-keyboard-response","393","1124979","0.0-393.0","51","1","","","","","<p style=""color:darkgreen;font-size:24px;"">Correct :)</p>","",""
"2697","key","v","v","16.709691358025957","500","250","psychophysics","394","1127680","0.0-394.0","51","1","7","","","","","1","1"
"null","","","null","","","","html-keyboard-response","395","1128184","0.0-395.0","51","1","","","","","<p style=""color:darkgreen;font-size:24px;"">Correct :)</p>","",""
"2617","key","v","v","16.665999999999478","500","250","psychophysics","396","1130805","0.0-396.0","51","1","7","","","","","1","3"
"null","","","null","","","","html-keyboard-response","397","1131309","0.0-397.0","51","1","","","","","<p style=""color:darkgreen;font-size:24px;"">Correct :)</p>","",""
"2483","key","n","n","16.66599999999959","500","250","psychophysics","398","1133796","0.0-398.0","51","1","7","","","","","0","4"
"null","","","null","","","","html-keyboard-response","399","1134299","0.0-399.0","51","1","","","","","<p style=""color:darkgreen;font-size:24px;"">Correct :)</p>","",""
"2845","key","v","v","16.665999999999652","500","250","psychophysics","400","1137148","0.0-400.0","51","1","7","","","","","1","3"
"null","","","null","","","","html-keyboard-response","401","1137651","0.0-401.0","51","1","","","","","<p style=""color:darkgreen;font-size:24px;"">Correct :)</p>","",""
"2536","key","v","v","16.68567105263202","500","250","psychophysics","402","1140191","0.0-402.0","51","1","7","","","","","0","3"
"null","","","null","","","","html-keyboard-response","403","1140693","0.0-403.0","51","1","","","","","<p style=""color:darkgreen;font-size:24px;"">Correct :)</p>","",""
"2782","key","n","n","16.666000000000402","500","250","psychophysics","404","1143480","0.0-404.0","51","1","7","","","","","0","6"
"null","","","null","","","","html-keyboard-response","405","1143984","0.0-405.0","51","1","","","","","<p style=""color:darkgreen;font-size:24px;"">Correct :)</p>","",""
"2995","key","v","v","16.66599999999938","500","250","psychophysics","406","1146983","0.0-406.0","51","1","7","","","","","1","7"
"null","","","null","","","","html-keyboard-response","407","1147488","0.0-407.0","51","1","","","","","<p style=""color:red;font-size:24px;"">Error :(</p>","",""
"2949","key","v","v","16.674237288136066","500","250","psychophysics","408","1150441","0.0-408.0","51","1","7","","","","","0","2"
"null","","","null","","","","html-keyboard-response","409","1150944","0.0-409.0","51","1","","","","","<p style=""color:red;font-size:24px;"">Error :(</p>","",""
"2737","key","v","v","16.665999999999567","500","250","psychophysics","410","1153686","0.0-410.0","51","1","7","","","","","1","4"
"null","","","null","","","","html-keyboard-response","411","1154189","0.0-411.0","51","1","","","","","<p style=""color:darkgreen;font-size:24px;"">Correct :)</p>","",""
"3386","key","n","n","16.66600000000029","500","250","psychophysics","412","1157579","0.0-412.0","51","1","7","","","","","0","2"
"null","","","null","","","","html-keyboard-response","413","1158083","0.0-413.0","51","1","","","","","<p style=""color:darkgreen;font-size:24px;"">Correct :)</p>","",""
"2933","key","v","v","16.666000000000086","500","250","psychophysics","414","1161020","0.0-414.0","51","1","7","","","","","0","1"
"null","","","null","","","","html-keyboard-response","415","1161521","0.0-415.0","51","1","","","","","<p style=""color:darkgreen;font-size:24px;"">Correct :)</p>","",""
"3348","key","n","n","16.66599999999961","500","250","psychophysics","416","1164873","0.0-416.0","51","1","7","","","","","0","4"
"null","","","null","","","","html-keyboard-response","417","1165377","0.0-417.0","51","1","","","","","<p style=""color:darkgreen;font-size:24px;"">Correct :)</p>","",""
"2824","key","v","v","16.670295857986954","500","250","psychophysics","418","1168206","0.0-418.0","51","1","7","","","","","0","1"
"null","","","null","","","","html-keyboard-response","419","1168707","0.0-419.0","51","1","","","","","<p style=""color:darkgreen;font-size:24px;"">Correct :)</p>","",""
"3613","key","n","n","16.665999999999308","500","250","psychophysics","420","1172330","0.0-420.0","51","1","7","","","","","0","2"
"null","","","null","","","","html-keyboard-response","421","1172834","0.0-421.0","51","1","","","","","<p style=""color:darkgreen;font-size:24px;"">Correct :)</p>","",""
"3146","key","v","v","16.666000000000366","500","250","psychophysics","422","1175985","0.0-422.0","51","1","7","","","","","1","4"
"null","","","null","","","","html-keyboard-response","423","1176487","0.0-423.0","51","1","","","","","<p style=""color:darkgreen;font-size:24px;"">Correct :)</p>","",""
"4945","key","n","n","16.66420875420882","500","250","psychophysics","424","1181437","0.0-424.0","51","1","7","","","","","1","7"
"null","","","null","","","","html-keyboard-response","425","1181941","0.0-425.0","51","1","","","","","<p style=""color:darkgreen;font-size:24px;"">Correct :)</p>","",""
"3263","key","n","n","16.66600000000041","500","250","psychophysics","426","1185207","0.0-426.0","51","1","7","","","","","0","6"
"null","","","null","","","","html-keyboard-response","427","1185709","0.0-427.0","51","1","","","","","<p style=""color:darkgreen;font-size:24px;"">Correct :)</p>","",""
"2835","key","v","v","16.64212941176477","500","250","psychophysics","428","1188548","0.0-428.0","51","1","7","","","","","1","1"
"null","","","null","","","","html-keyboard-response","429","1189053","0.0-429.0","51","1","","","","","<p style=""color:darkgreen;font-size:24px;"">Correct :)</p>","",""
"2936","key","n","n","16.665999999999904","500","250","psychophysics","430","1191999","0.0-430.0","51","1","7","","","","","1","4"
"null","","","null","","","","html-keyboard-response","431","1192501","0.0-431.0","51","1","","","","","<p style=""color:red;font-size:24px;"">Error :(</p>","",""
"3144","key","v","v","16.666000000000366","500","250","psychophysics","432","1195649","0.0-432.0","51","1","7","","","","","1","4"
"null","","","null","","","","html-keyboard-response","433","1196152","0.0-433.0","51","1","","","","","<p style=""color:darkgreen;font-size:24px;"">Correct :)</p>","",""
"2942","key","n","n","16.664864406778904","500","250","psychophysics","434","1199098","0.0-434.0","51","1","7","","","","","1","7"
"null","","","null","","","","html-keyboard-response","435","1199600","0.0-435.0","51","1","","","","","<p style=""color:darkgreen;font-size:24px;"">Correct :)</p>","",""
"3015","key","v","v","16.665999999999208","500","250","psychophysics","436","1202620","0.0-436.0","51","1","7","","","","","0","1"
"null","","","null","","","","html-keyboard-response","437","1203124","0.0-437.0","51","1","","","","","<p style=""color:darkgreen;font-size:24px;"">Correct :)</p>","",""
"3297","key","n","n","16.666000000000086","500","250","psychophysics","438","1206425","0.0-438.0","51","1","7","","","","","0","4"
"null","","","null","","","","html-keyboard-response","439","1206926","0.0-439.0","51","1","","","","","<p style=""color:darkgreen;font-size:24px;"">Correct :)</p>","",""
"3234","key","n","n","16.656381443298912","500","250","psychophysics","440","1210165","0.0-440.0","51","1","7","","","","","0","2"
"null","","","null","","","","html-keyboard-response","441","1210669","0.0-441.0","51","1","","","","","<p style=""color:darkgreen;font-size:24px;"">Correct :)</p>","",""
"3202","key","n","n","16.665999999999865","500","250","psychophysics","442","1213875","0.0-442.0","51","1","7","","","","","0","6"
"null","","","null","","","","html-keyboard-response","443","1214379","0.0-443.0","51","1","","","","","<p style=""color:darkgreen;font-size:24px;"">Correct :)</p>","",""
"2930","key","v","v","16.666000000000086","500","250","psychophysics","444","1217313","0.0-444.0","51","1","7","","","","","1","4"
"null","","","null","","","","html-keyboard-response","445","1217816","0.0-445.0","51","1","","","","","<p style=""color:darkgreen;font-size:24px;"">Correct :)</p>","",""
"2846","key","n","n","16.636779069767854","500","250","psychophysics","446","1220665","0.0-446.0","51","1","7","","","","","0","6"
"null","","","null","","","","html-keyboard-response","447","1221170","0.0-447.0","51","1","","","","","<p style=""color:darkgreen;font-size:24px;"">Correct :)</p>","",""
"3138","key","v","v","16.665999999999297","500","250","psychophysics","448","1224312","0.0-448.0","51","1","7","","","","","1","1"
"null","","","null","","","","html-keyboard-response","449","1224816","0.0-449.0","51","1","","","","","<p style=""color:darkgreen;font-size:24px;"">Correct :)</p>","",""
"2555","key","n","n","16.66600000000029","500","250","psychophysics","450","1227375","0.0-450.0","51","1","7","","","","","1","7"
"null","","","null","","","","html-keyboard-response","451","1227880","0.0-451.0","51","1","","","","","<p style=""color:darkgreen;font-size:24px;"">Correct :)</p>","",""
"3021","key","v","v","16.666977900552475","500","250","psychophysics","452","1230906","0.0-452.0","51","1","7","","","","","1","1"
"null","","","null","","","","html-keyboard-response","453","1231410","0.0-453.0","51","1","","","","","<p style=""color:darkgreen;font-size:24px;"">Correct :)</p>","",""
"3016","key","v","v","16.665999999999038","500","250","psychophysics","454","1234430","0.0-454.0","51","1","7","","","","","1","2"
"null","","","null","","","","html-keyboard-response","455","1234935","0.0-455.0","51","1","","","","","<p style=""color:darkgreen;font-size:24px;"">Correct :)</p>","",""
"3116","key","v","v","16.666336898395624","500","250","psychophysics","456","1238055","0.0-456.0","51","1","7","","","","","0","7"
"null","","","null","","","","html-keyboard-response","457","1238556","0.0-457.0","51","1","","","","","<p style=""color:darkgreen;font-size:24px;"">Correct :)</p>","",""
"3160","key","v","v","16.66599999999897","500","250","psychophysics","458","1241720","0.0-458.0","51","1","7","","","","","0","1"
"null","","","null","","","","html-keyboard-response","459","1242224","0.0-459.0","51","1","","","","","<p style=""color:darkgreen;font-size:24px;"">Correct :)</p>","",""
"2708","key","v","v","16.666000000001187","500","250","psychophysics","460","1244936","0.0-460.0","51","1","7","","","","","0","1"
"null","","","null","","","","html-keyboard-response","461","1245441","0.0-461.0","51","1","","","","","<p style=""color:darkgreen;font-size:24px;"">Correct :)</p>","",""
"2893","key","n","n","16.67493103448189","500","250","psychophysics","462","1248338","0.0-462.0","51","1","7","","","","","1","6"
"null","","","null","","","","html-keyboard-response","463","1248842","0.0-463.0","51","1","","","","","<p style=""color:darkgreen;font-size:24px;"">Correct :)</p>","",""
"3207","key","n","n","16.666000000000906","500","250","psychophysics","464","1252060","0.0-464.0","51","1","7","","","","","1","4"
"null","","","null","","","","html-keyboard-response","465","1252563","0.0-465.0","51","1","","","","","<p style=""color:red;font-size:24px;"">Error :(</p>","",""
"3133","key","n","n","16.665999999999297","500","250","psychophysics","466","1255700","0.0-466.0","51","1","7","","","","","0","6"
"null","","","null","","","","html-keyboard-response","467","1256205","0.0-467.0","51","1","","","","","<p style=""color:darkgreen;font-size:24px;"">Correct :)</p>","",""
"2662","key","v","v","16.66307499999966","500","250","psychophysics","468","1258871","0.0-468.0","51","1","7","","","","","0","1"
"null","","","null","","","","html-keyboard-response","469","1259374","0.0-469.0","51","1","","","","","<p style=""color:darkgreen;font-size:24px;"">Correct :)</p>","",""
"3370","key","n","n","16.665999999999304","500","250","psychophysics","470","1262748","0.0-470.0","51","1","7","","","","","1","7"
"null","","","null","","","","html-keyboard-response","471","1263250","0.0-471.0","51","1","","","","","<p style=""color:darkgreen;font-size:24px;"">Correct :)</p>","",""
"2739","key","v","v","16.665999999999567","500","250","psychophysics","472","1265993","0.0-472.0","51","1","7","","","","","1","4"
"null","","","null","","","","html-keyboard-response","473","1266495","0.0-473.0","51","1","","","","","<p style=""color:darkgreen;font-size:24px;"">Correct :)</p>","",""
"3089","key","n","n","16.670654054054033","500","250","psychophysics","474","1269589","0.0-474.0","51","1","7","","","","","1","6"
"null","","","null","","","","html-keyboard-response","475","1270093","0.0-475.0","51","1","","","","","<p style=""color:darkgreen;font-size:24px;"">Correct :)</p>","",""
"3911","key","v","v","16.66600000000004","500","250","psychophysics","476","1274007","0.0-476.0","51","1","7","","","","","1","4"
"null","","","null","","","","html-keyboard-response","477","1274511","0.0-477.0","51","1","","","","","<p style=""color:darkgreen;font-size:24px;"">Correct :)</p>","",""
"2782","key","v","v","16.666000000000402","500","250","psychophysics","478","1277298","0.0-478.0","51","1","7","","","","","1","2"
"null","","","null","","","","html-keyboard-response","479","1277803","0.0-479.0","51","1","","","","","<p style=""color:darkgreen;font-size:24px;"">Correct :)</p>","",""
"2595","key","v","v","16.679846153846785","500","250","psychophysics","480","1280402","0.0-480.0","51","1","7","","","","","0","1"
"null","","","null","","","","html-keyboard-response","481","1280907","0.0-481.0","51","1","","","","","<p style=""color:darkgreen;font-size:24px;"">Correct :)</p>","",""
"2880","key","v","v","16.66599999999929","500","250","psychophysics","482","1283791","0.0-482.0","51","1","7","","","","","0","1"
"null","","","null","","","","html-keyboard-response","483","1284293","0.0-483.0","51","1","","","","","<p style=""color:darkgreen;font-size:24px;"">Correct :)</p>","",""
"3074","key","n","n","16.666000000001056","500","250","psychophysics","484","1287370","0.0-484.0","51","1","7","","","","","1","6"
"null","","","null","","","","html-keyboard-response","485","1287874","0.0-485.0","51","1","","","","","<p style=""color:darkgreen;font-size:24px;"">Correct :)</p>","",""
"3715","key","n","n","16.677834080716995","500","250","psychophysics","486","1291593","0.0-486.0","51","1","7","","","","","0","4"
"null","","","null","","","","html-keyboard-response","487","1292099","0.0-487.0","51","1","","","","","<p style=""color:darkgreen;font-size:24px;"">Correct :)</p>","",""
"2645","key","v","v","16.66600000000055","500","250","psychophysics","488","1294755","0.0-488.0","51","1","7","","","","","0","3"
"null","","","null","","","","html-keyboard-response","489","1295257","0.0-489.0","51","1","","","","","<p style=""color:darkgreen;font-size:24px;"">Correct :)</p>","",""
"2943","key","v","v","16.646757062147028","500","250","psychophysics","490","1298204","0.0-490.0","51","1","7","","","","","0","3"
"null","","","null","","","","html-keyboard-response","491","1298706","0.0-491.0","51","1","","","","","<p style=""color:darkgreen;font-size:24px;"">Correct :)</p>","",""
