"rt","response_type","key_press","response","avg_frame_time","center_x","center_y","trial_type","trial_index","time_elapsed","internal_node_id","pid","sid","phase","guide","targ","resp","stimulus","is5","stim"
"1035","key"," "," ","17.09375","500","250","psychophysics","0","1113","0.0-0.0","{{%PROLIFIC_PID%}}","{{%SESSION_ID%}}","","","","","","",""
"230","key"," "," ","16.76923076923077","500","250","psychophysics","1","1346","0.0-1.0","{{%PROLIFIC_PID%}}","{{%SESSION_ID%}}","","","","","","",""
"218","key"," "," ","16.75","500","250","psychophysics","2","1567","0.0-2.0","{{%PROLIFIC_PID%}}","{{%SESSION_ID%}}","","","","","","",""
"208","key"," "," ","16.666666666666668","500","250","psychophysics","3","1783","0.0-3.0","{{%PROLIFIC_PID%}}","{{%SESSION_ID%}}","","","","","","",""
"180","key"," "," ","16.7","500","250","psychophysics","4","1967","0.0-4.0","{{%PROLIFIC_PID%}}","{{%SESSION_ID%}}","","","","","","",""
"239","key"," "," ","16.642857142857142","500","250","psychophysics","5","2209","0.0-5.0","{{%PROLIFIC_PID%}}","{{%SESSION_ID%}}","","","","","","",""
"189","key"," "," ","16.7","500","250","psychophysics","6","2401","0.0-6.0","{{%PROLIFIC_PID%}}","{{%SESSION_ID%}}","","","","","","",""
"188","key"," "," ","16.636363636363637","500","250","psychophysics","7","2593","0.0-7.0","{{%PROLIFIC_PID%}}","{{%SESSION_ID%}}","","","","","","",""
"211","key"," "," ","16.666666666666668","500","250","psychophysics","8","2808","0.0-8.0","{{%PROLIFIC_PID%}}","{{%SESSION_ID%}}","0","0","37","10","","",""
"226","key"," "," ","16.666666666666668","500","250","psychophysics","9","3036","0.0-9.0","{{%PROLIFIC_PID%}}","{{%SESSION_ID%}}","","","","","","",""
"198","key"," "," ","16.545454545454547","500","250","psychophysics","10","3239","0.0-10.0","{{%PROLIFIC_PID%}}","{{%SESSION_ID%}}","","","","","","",""
"189","key"," "," ","16.545454545454547","500","250","psychophysics","11","3437","0.0-11.0","{{%PROLIFIC_PID%}}","{{%SESSION_ID%}}","","","","","","",""
"208","key"," "," ","16.75","500","250","psychophysics","12","3649","0.0-12.0","{{%PROLIFIC_PID%}}","{{%SESSION_ID%}}","","","","","","",""
"204","key"," "," ","16.727272727272727","500","250","psychophysics","13","3857","0.0-13.0","{{%PROLIFIC_PID%}}","{{%SESSION_ID%}}","","","","","","",""
"222","key"," "," ","16","500","250","psychophysics","14","4089","0.0-14.0","{{%PROLIFIC_PID%}}","{{%SESSION_ID%}}","","","","","","",""
"1047","key"," "," ","16.70967741935484","500","250","psychophysics","15","5140","0.0-15.0","{{%PROLIFIC_PID%}}","{{%SESSION_ID%}}","","","","","","",""
"186","key"," "," ","16.7","500","250","psychophysics","16","5328","0.0-16.0","{{%PROLIFIC_PID%}}","{{%SESSION_ID%}}","","","","","","",""
"183","key"," "," ","16.454545454545453","500","250","psychophysics","17","5520","0.0-17.0","{{%PROLIFIC_PID%}}","{{%SESSION_ID%}}","1","0","35","10","","",""
"184","key"," "," ","16.7","500","250","psychophysics","18","5708","0.0-18.0","{{%PROLIFIC_PID%}}","{{%SESSION_ID%}}","1","5","58","10","","",""
"249","key"," "," ","16.714285714285715","500","250","psychophysics","19","5961","0.0-19.0","{{%PROLIFIC_PID%}}","{{%SESSION_ID%}}","1","0","20","10","","",""
"1051","key"," "," ","16.693548387096776","500","250","psychophysics","20","7016","0.0-20.0","{{%PROLIFIC_PID%}}","{{%SESSION_ID%}}","1","5","48","10","","",""
"168","key"," "," ","16.6","500","250","psychophysics","21","7189","0.0-21.0","{{%PROLIFIC_PID%}}","{{%SESSION_ID%}}","1","0","34","10","","",""
"146","key"," "," ","16.875","500","250","psychophysics","22","7341","0.0-22.0","{{%PROLIFIC_PID%}}","{{%SESSION_ID%}}","1","5","48","10","","",""
"162","key"," "," ","16.666666666666668","500","250","psychophysics","23","7505","0.0-23.0","{{%PROLIFIC_PID%}}","{{%SESSION_ID%}}","1","0","56","10","","",""
"172","key"," "," ","16.666666666666668","500","250","psychophysics","24","7679","0.0-24.0","{{%PROLIFIC_PID%}}","{{%SESSION_ID%}}","1","5","44","10","","",""
"189","key"," "," ","16.636363636363637","500","250","psychophysics","25","7871","0.0-25.0","{{%PROLIFIC_PID%}}","{{%SESSION_ID%}}","1","0","48","10","","",""
"285","key"," "," ","16.75","500","250","psychophysics","26","8158","0.0-26.0","{{%PROLIFIC_PID%}}","{{%SESSION_ID%}}","1","5","22","10","","",""
"176","key"," "," ","16.6","500","250","psychophysics","27","8338","0.0-27.0","{{%PROLIFIC_PID%}}","{{%SESSION_ID%}}","1","0","48","10","","",""
"125","key"," "," ","16.666666666666668","500","250","psychophysics","28","8465","0.0-28.0","{{%PROLIFIC_PID%}}","{{%SESSION_ID%}}","1","5","22","10","","",""
"113","key"," "," ","16.666666666666668","500","250","psychophysics","29","8580","0.0-29.0","{{%PROLIFIC_PID%}}","{{%SESSION_ID%}}","1","0","50","10","","",""
"86","key"," "," ","17","500","250","psychophysics","30","8668","0.0-30.0","{{%PROLIFIC_PID%}}","{{%SESSION_ID%}}","1","5","46","10","","",""
"107","key"," "," ","16.833333333333332","500","250","psychophysics","31","8778","0.0-31.0","{{%PROLIFIC_PID%}}","{{%SESSION_ID%}}","1","0","45","10","","",""
"87","key"," "," ","16.5","500","250","psychophysics","32","8867","0.0-32.0","{{%PROLIFIC_PID%}}","{{%SESSION_ID%}}","1","5","56","10","","",""
"205","key"," "," ","16.75","500","250","psychophysics","33","9075","0.0-33.0","{{%PROLIFIC_PID%}}","{{%SESSION_ID%}}","1","0","35","10","","",""
"110","key"," "," ","16.833333333333332","500","250","psychophysics","34","9196","0.0-34.0","{{%PROLIFIC_PID%}}","{{%SESSION_ID%}}","1","5","42","10","","",""
"70","key"," "," ","17","500","250","psychophysics","35","9269","0.0-35.0","{{%PROLIFIC_PID%}}","{{%SESSION_ID%}}","1","0","51","10","","",""
"224","key"," "," ","16.76923076923077","500","250","psychophysics","36","9497","0.0-36.0","{{%PROLIFIC_PID%}}","{{%SESSION_ID%}}","1","5","22","10","","",""
"128","key"," "," ","16.571428571428573","500","250","psychophysics","37","9628","0.0-37.0","{{%PROLIFIC_PID%}}","{{%SESSION_ID%}}","","","","","","",""
"99","key"," "," ","16.8","500","250","psychophysics","38","9731","0.0-38.0","{{%PROLIFIC_PID%}}","{{%SESSION_ID%}}","","","","","","",""
"226","key"," "," ","16.692307692307693","500","250","psychophysics","39","9961","0.0-39.0","{{%PROLIFIC_PID%}}","{{%SESSION_ID%}}","","","","","","",""
"225","key"," "," ","16.75","500","250","psychophysics","40","10189","0.0-40.0","{{%PROLIFIC_PID%}}","{{%SESSION_ID%}}","2","0","40","10","","",""
"129","key"," "," ","16.571428571428573","500","250","psychophysics","41","10320","0.0-41.0","{{%PROLIFIC_PID%}}","{{%SESSION_ID%}}","","","","","","",""
"89","key"," "," ","16.6","500","250","psychophysics","42","10412","0.0-42.0","{{%PROLIFIC_PID%}}","{{%SESSION_ID%}}","2","0","27","10","","",""
"197","key"," "," ","16.636363636363637","500","250","psychophysics","43","10611","0.0-43.0","{{%PROLIFIC_PID%}}","{{%SESSION_ID%}}","","","","","","",""
"234","key"," "," ","16.615384615384617","500","250","psychophysics","44","10849","0.0-44.0","{{%PROLIFIC_PID%}}","{{%SESSION_ID%}}","2","0","54","10","","",""
"211","key"," "," ","16.666666666666668","500","250","psychophysics","45","11067","0.0-45.0","{{%PROLIFIC_PID%}}","{{%SESSION_ID%}}","","","","","","",""
"121","key"," "," ","16.666666666666668","500","250","psychophysics","46","11192","0.0-46.0","{{%PROLIFIC_PID%}}","{{%SESSION_ID%}}","2","0","44","10","","",""
"91","key"," "," ","16.8","500","250","psychophysics","47","11286","0.0-47.0","{{%PROLIFIC_PID%}}","{{%SESSION_ID%}}","","","","","","",""
"210","key"," "," ","16.666666666666668","500","250","psychophysics","48","11500","0.0-48.0","{{%PROLIFIC_PID%}}","{{%SESSION_ID%}}","2","0","45","10","","",""
"125","key"," "," ","16.428571428571427","500","250","psychophysics","49","11632","0.0-49.0","{{%PROLIFIC_PID%}}","{{%SESSION_ID%}}","","","","","","",""
"99","key"," "," ","16.6","500","250","psychophysics","50","11734","0.0-50.0","{{%PROLIFIC_PID%}}","{{%SESSION_ID%}}","2","0","60","10","","",""
"217","key"," "," ","16.666666666666668","500","250","psychophysics","51","11955","0.0-51.0","{{%PROLIFIC_PID%}}","{{%SESSION_ID%}}","","","","","","",""
"218","key"," "," ","16.666666666666668","500","250","psychophysics","52","12179","0.0-52.0","{{%PROLIFIC_PID%}}","{{%SESSION_ID%}}","2","0","57","10","","",""
"101","key"," "," ","16.5","500","250","psychophysics","53","12289","0.0-53.0","{{%PROLIFIC_PID%}}","{{%SESSION_ID%}}","","","","","","",""
"107","key"," "," ","16.5","500","250","psychophysics","54","12400","0.0-54.0","{{%PROLIFIC_PID%}}","{{%SESSION_ID%}}","2","0","30","10","","",""
"219","key"," "," ","16.75","500","250","psychophysics","55","12622","0.0-55.0","{{%PROLIFIC_PID%}}","{{%SESSION_ID%}}","","","","","","",""
"114","key"," "," ","17","500","250","psychophysics","56","12738","0.0-56.0","{{%PROLIFIC_PID%}}","{{%SESSION_ID%}}","2","0","37","10","","",""
"95","key"," "," ","16.6","500","250","psychophysics","57","12837","0.0-57.0","{{%PROLIFIC_PID%}}","{{%SESSION_ID%}}","","","","","","",""
"217","key"," "," ","16.666666666666668","500","250","psychophysics","58","13057","0.0-58.0","{{%PROLIFIC_PID%}}","{{%SESSION_ID%}}","2","0","31","10","","",""
"251","key"," "," ","16.714285714285715","500","250","psychophysics","59","13315","0.0-59.0","{{%PROLIFIC_PID%}}","{{%SESSION_ID%}}","","","","","","",""
"140","key"," "," ","16.625","500","250","psychophysics","60","13457","0.0-60.0","{{%PROLIFIC_PID%}}","{{%SESSION_ID%}}","2","0","35","10","","",""
"89","key"," "," ","16.75","500","250","psychophysics","61","13549","0.0-61.0","{{%PROLIFIC_PID%}}","{{%SESSION_ID%}}","","","","","","",""
"122","key"," "," ","16.142857142857142","500","250","psychophysics","62","13677","0.0-62.0","{{%PROLIFIC_PID%}}","{{%SESSION_ID%}}","2","0","49","10","","",""
"95","key"," "," ","16.8","500","250","psychophysics","63","13775","0.0-63.0","{{%PROLIFIC_PID%}}","{{%SESSION_ID%}}","","","","","","",""
"232","key"," "," ","16.692307692307693","500","250","psychophysics","64","14011","0.0-64.0","{{%PROLIFIC_PID%}}","{{%SESSION_ID%}}","2","0","35","10","","",""
"245","key"," "," ","16.714285714285715","500","250","psychophysics","65","14258","0.0-65.0","{{%PROLIFIC_PID%}}","{{%SESSION_ID%}}","","","","","","",""
"216","key"," "," ","16.75","500","250","psychophysics","66","14481","0.0-66.0","{{%PROLIFIC_PID%}}","{{%SESSION_ID%}}","2","0","25","10","","",""
"241","key"," "," ","16.642857142857142","500","250","psychophysics","67","14725","0.0-67.0","{{%PROLIFIC_PID%}}","{{%SESSION_ID%}}","","","","","","",""
"218","key"," "," ","16.75","500","250","psychophysics","68","14946","0.0-68.0","{{%PROLIFIC_PID%}}","{{%SESSION_ID%}}","2","0","55","10","","",""
"215","key"," "," ","16.75","500","250","psychophysics","69","15167","0.0-69.0","{{%PROLIFIC_PID%}}","{{%SESSION_ID%}}","","","","","","",""
"247","key"," "," ","16.714285714285715","500","250","psychophysics","70","15417","0.0-70.0","{{%PROLIFIC_PID%}}","{{%SESSION_ID%}}","","","","","","",""
"510","key"," "," ","16.7","500","250","psychophysics","71","15930","0.0-71.0","{{%PROLIFIC_PID%}}","{{%SESSION_ID%}}","","","","","","",""
"205","key"," "," ","16.727272727272727","500","250","psychophysics","72","16138","0.0-72.0","{{%PROLIFIC_PID%}}","{{%SESSION_ID%}}","3","5","32","10","","",""
"247","key"," "," ","16.571428571428573","500","250","psychophysics","73","16390","0.0-73.0","{{%PROLIFIC_PID%}}","{{%SESSION_ID%}}","3","0","32","10","","",""
"132","key"," "," ","16.5","500","250","psychophysics","74","16528","0.0-74.0","{{%PROLIFIC_PID%}}","{{%SESSION_ID%}}","3","5","29","10","","",""
"95","key"," "," ","16.75","500","250","psychophysics","75","16625","0.0-75.0","{{%PROLIFIC_PID%}}","{{%SESSION_ID%}}","3","0","36","10","","",""
"94","key"," "," ","16.333333333333332","500","250","psychophysics","76","16728","0.0-76.0","{{%PROLIFIC_PID%}}","{{%SESSION_ID%}}","3","5","23","10","","",""
"100","key"," "," ","16.8","500","250","psychophysics","77","16838","0.0-77.0","{{%PROLIFIC_PID%}}","{{%SESSION_ID%}}","3","0","50","10","","",""
"114","key"," "," ","16.666666666666668","500","250","psychophysics","78","16955","0.0-78.0","{{%PROLIFIC_PID%}}","{{%SESSION_ID%}}","3","5","34","10","","",""
"100","key"," "," ","16.6","500","250","psychophysics","79","17058","0.0-79.0","{{%PROLIFIC_PID%}}","{{%SESSION_ID%}}","3","0","35","10","","",""
"134","key"," "," ","16.625","500","250","psychophysics","80","17199","0.0-80.0","{{%PROLIFIC_PID%}}","{{%SESSION_ID%}}","3","5","27","10","","",""
"99","key"," "," ","16.8","500","250","psychophysics","81","17302","0.0-81.0","{{%PROLIFIC_PID%}}","{{%SESSION_ID%}}","3","0","41","10","","",""
"136","key"," "," ","16.714285714285715","500","250","psychophysics","82","17441","0.0-82.0","{{%PROLIFIC_PID%}}","{{%SESSION_ID%}}","3","5","36","10","","",""
"91","key"," "," ","17","500","250","psychophysics","83","17535","0.0-83.0","{{%PROLIFIC_PID%}}","{{%SESSION_ID%}}","3","0","42","10","","",""
"121","key"," "," ","16.666666666666668","500","250","psychophysics","84","17660","0.0-84.0","{{%PROLIFIC_PID%}}","{{%SESSION_ID%}}","3","5","22","10","","",""
"93","key"," "," ","16.6","500","250","psychophysics","85","17756","0.0-85.0","{{%PROLIFIC_PID%}}","{{%SESSION_ID%}}","3","0","25","10","","",""
"215","key"," "," ","16.666666666666668","500","250","psychophysics","86","17973","0.0-86.0","{{%PROLIFIC_PID%}}","{{%SESSION_ID%}}","3","5","40","10","","",""
"134","key"," "," ","16.857142857142858","500","250","psychophysics","87","18111","0.0-87.0","{{%PROLIFIC_PID%}}","{{%SESSION_ID%}}","3","0","42","10","","",""
"81","key"," "," ","17","500","250","psychophysics","88","18194","0.0-88.0","{{%PROLIFIC_PID%}}","{{%SESSION_ID%}}","3","5","52","10","","",""
"115","key"," "," ","16.833333333333332","500","250","psychophysics","89","18312","0.0-89.0","{{%PROLIFIC_PID%}}","{{%SESSION_ID%}}","3","0","50","10","","",""
"85","key"," "," ","16.8","500","250","psychophysics","90","18403","0.0-90.0","{{%PROLIFIC_PID%}}","{{%SESSION_ID%}}","3","5","43","10","","",""
"126","key"," "," ","16.714285714285715","500","250","psychophysics","91","18535","0.0-91.0","{{%PROLIFIC_PID%}}","{{%SESSION_ID%}}","3","0","47","10","","",""
"84","key"," "," ","16.75","500","250","psychophysics","92","18622","0.0-92.0","{{%PROLIFIC_PID%}}","{{%SESSION_ID%}}","","","","","","",""
"1303","","","v","","","","html-keyboard-response","93","19927","0.0-93.0","{{%PROLIFIC_PID%}}","{{%SESSION_ID%}}","","","","","<p> In this part of the experiment, we are going present digits 1, 2, 3, 4, 6, 7, 8, and 9.  Notice that 5 is missing.  Your job is to say whether the presented digit is less than or greater than 5.  For example, 3 is less than 5 and 7 is greater than 5.  If the digit is less than 5, press the v key; if it is greater than 5, press the n key. We are going to do 200 of these in total, but only 50 righ now. They go real fast.</p>  <br><br>  Ready? (press v or n)","",""
"165","key","v","v","16.75","500","250","psychophysics","94","20100","0.0-94.0","{{%PROLIFIC_PID%}}","{{%SESSION_ID%}}","4","","","","","1","8"
"null","","","null","","","","html-keyboard-response","95","20603","0.0-95.0","{{%PROLIFIC_PID%}}","{{%SESSION_ID%}}","","","","","<p style=""color:red;font-size:24px;"">Error :(</p>","",""
"20","key","v","v","NaN","500","250","psychophysics","96","20626","0.0-96.0","{{%PROLIFIC_PID%}}","{{%SESSION_ID%}}","4","","","","","1","1"
"null","","","null","","","","html-keyboard-response","97","21127","0.0-97.0","{{%PROLIFIC_PID%}}","{{%SESSION_ID%}}","","","","","<p style=""color:darkgreen;font-size:24px;"">Correct :)</p>","",""
"0","key","v","v","NaN","500","250","psychophysics","98","21133","0.0-98.0","{{%PROLIFIC_PID%}}","{{%SESSION_ID%}}","4","","","","","1","9"
"null","","","null","","","","html-keyboard-response","99","21635","0.0-99.0","{{%PROLIFIC_PID%}}","{{%SESSION_ID%}}","","","","","<p style=""color:red;font-size:24px;"">Error :(</p>","",""
"11","key","v","v","NaN","500","250","psychophysics","100","21649","0.0-100.0","{{%PROLIFIC_PID%}}","{{%SESSION_ID%}}","4","","","","","1","7"
"null","","","null","","","","html-keyboard-response","101","22151","0.0-101.0","{{%PROLIFIC_PID%}}","{{%SESSION_ID%}}","","","","","<p style=""color:red;font-size:24px;"">Error :(</p>","",""
"17","key","v","v","NaN","500","250","psychophysics","102","22171","0.0-102.0","{{%PROLIFIC_PID%}}","{{%SESSION_ID%}}","4","","","","","1","7"
"null","","","null","","","","html-keyboard-response","103","22673","0.0-103.0","{{%PROLIFIC_PID%}}","{{%SESSION_ID%}}","","","","","<p style=""color:red;font-size:24px;"">Error :(</p>","",""
"486","key","v","v","16.642857142857142","500","250","psychophysics","104","23162","0.0-104.0","{{%PROLIFIC_PID%}}","{{%SESSION_ID%}}","4","","","","","1","9"
"null","","","null","","","","html-keyboard-response","105","23664","0.0-105.0","{{%PROLIFIC_PID%}}","{{%SESSION_ID%}}","","","","","<p style=""color:red;font-size:24px;"">Error :(</p>","",""
"400","key","v","v","16.652173913043477","500","250","psychophysics","106","24067","0.0-106.0","{{%PROLIFIC_PID%}}","{{%SESSION_ID%}}","4","","","","","1","6"
"null","","","null","","","","html-keyboard-response","107","24569","0.0-107.0","{{%PROLIFIC_PID%}}","{{%SESSION_ID%}}","","","","","<p style=""color:red;font-size:24px;"">Error :(</p>","",""
"290","key","v","v","16.6875","500","250","psychophysics","108","24862","0.0-108.0","{{%PROLIFIC_PID%}}","{{%SESSION_ID%}}","4","","","","","1","2"
"null","","","null","","","","html-keyboard-response","109","25364","0.0-109.0","{{%PROLIFIC_PID%}}","{{%SESSION_ID%}}","","","","","<p style=""color:darkgreen;font-size:24px;"">Correct :)</p>","",""
"297","key","v","v","16.705882352941178","500","250","psychophysics","110","25671","0.0-110.0","{{%PROLIFIC_PID%}}","{{%SESSION_ID%}}","4","","","","","1","3"
"null","","","null","","","","html-keyboard-response","111","26174","0.0-111.0","{{%PROLIFIC_PID%}}","{{%SESSION_ID%}}","","","","","<p style=""color:darkgreen;font-size:24px;"">Correct :)</p>","",""
"267","key","v","v","16.733333333333334","500","250","psychophysics","112","26444","0.0-112.0","{{%PROLIFIC_PID%}}","{{%SESSION_ID%}}","4","","","","","1","1"
"null","","","null","","","","html-keyboard-response","113","26948","0.0-113.0","{{%PROLIFIC_PID%}}","{{%SESSION_ID%}}","","","","","<p style=""color:darkgreen;font-size:24px;"">Correct :)</p>","",""
"310","key","v","v","16.705882352941178","500","250","psychophysics","114","27261","0.0-114.0","{{%PROLIFIC_PID%}}","{{%SESSION_ID%}}","4","","","","","1","1"
"null","","","null","","","","html-keyboard-response","115","27763","0.0-115.0","{{%PROLIFIC_PID%}}","{{%SESSION_ID%}}","","","","","<p style=""color:darkgreen;font-size:24px;"">Correct :)</p>","",""
"355","key","v","v","16.736842105263158","500","250","psychophysics","116","28120","0.0-116.0","{{%PROLIFIC_PID%}}","{{%SESSION_ID%}}","4","","","","","1","3"
"null","","","null","","","","html-keyboard-response","117","28622","0.0-117.0","{{%PROLIFIC_PID%}}","{{%SESSION_ID%}}","","","","","<p style=""color:darkgreen;font-size:24px;"">Correct :)</p>","",""
"236","key","v","v","16.615384615384617","500","250","psychophysics","118","28861","0.0-118.0","{{%PROLIFIC_PID%}}","{{%SESSION_ID%}}","4","","","","","1","9"
"null","","","null","","","","html-keyboard-response","119","29363","0.0-119.0","{{%PROLIFIC_PID%}}","{{%SESSION_ID%}}","","","","","<p style=""color:red;font-size:24px;"">Error :(</p>","",""
"353","key","v","v","16.7","500","250","psychophysics","120","29718","0.0-120.0","{{%PROLIFIC_PID%}}","{{%SESSION_ID%}}","4","","","","","1","2"
"null","","","null","","","","html-keyboard-response","121","30220","0.0-121.0","{{%PROLIFIC_PID%}}","{{%SESSION_ID%}}","","","","","<p style=""color:darkgreen;font-size:24px;"">Correct :)</p>","",""
"307","key","v","v","16.6875","500","250","psychophysics","122","30529","0.0-122.0","{{%PROLIFIC_PID%}}","{{%SESSION_ID%}}","4","","","","","1","8"
"null","","","null","","","","html-keyboard-response","123","31032","0.0-123.0","{{%PROLIFIC_PID%}}","{{%SESSION_ID%}}","","","","","<p style=""color:red;font-size:24px;"">Error :(</p>","",""
"137","key","v","v","16.714285714285715","500","250","psychophysics","124","31171","0.0-124.0","{{%PROLIFIC_PID%}}","{{%SESSION_ID%}}","4","","","","","1","7"
"null","","","null","","","","html-keyboard-response","125","31674","0.0-125.0","{{%PROLIFIC_PID%}}","{{%SESSION_ID%}}","","","","","<p style=""color:red;font-size:24px;"">Error :(</p>","",""
"154","key","v","v","16.714285714285715","500","250","psychophysics","126","31832","0.0-126.0","{{%PROLIFIC_PID%}}","{{%SESSION_ID%}}","4","","","","","1","4"
"null","","","null","","","","html-keyboard-response","127","32333","0.0-127.0","{{%PROLIFIC_PID%}}","{{%SESSION_ID%}}","","","","","<p style=""color:darkgreen;font-size:24px;"">Correct :)</p>","",""
"86","key","v","v","16.25","500","250","psychophysics","128","32422","0.0-128.0","{{%PROLIFIC_PID%}}","{{%SESSION_ID%}}","4","","","","","1","2"
"null","","","null","","","","html-keyboard-response","129","32924","0.0-129.0","{{%PROLIFIC_PID%}}","{{%SESSION_ID%}}","","","","","<p style=""color:darkgreen;font-size:24px;"">Correct :)</p>","",""
"341","key","v","v","16.68421052631579","500","250","psychophysics","130","33268","0.0-130.0","{{%PROLIFIC_PID%}}","{{%SESSION_ID%}}","4","","","","","1","4"
"null","","","null","","","","html-keyboard-response","131","33770","0.0-131.0","{{%PROLIFIC_PID%}}","{{%SESSION_ID%}}","","","","","<p style=""color:darkgreen;font-size:24px;"">Correct :)</p>","",""
"292","key","v","v","16.6875","500","250","psychophysics","132","34064","0.0-132.0","{{%PROLIFIC_PID%}}","{{%SESSION_ID%}}","4","","","","","1","7"
"null","","","null","","","","html-keyboard-response","133","34565","0.0-133.0","{{%PROLIFIC_PID%}}","{{%SESSION_ID%}}","","","","","<p style=""color:red;font-size:24px;"">Error :(</p>","",""
"268","key","v","v","16.785714285714285","500","250","psychophysics","134","34836","0.0-134.0","{{%PROLIFIC_PID%}}","{{%SESSION_ID%}}","4","","","","","1","6"
"null","","","null","","","","html-keyboard-response","135","35339","0.0-135.0","{{%PROLIFIC_PID%}}","{{%SESSION_ID%}}","","","","","<p style=""color:red;font-size:24px;"">Error :(</p>","",""
"250","key","v","v","16.692307692307693","500","250","psychophysics","136","35593","0.0-136.0","{{%PROLIFIC_PID%}}","{{%SESSION_ID%}}","4","","","","","1","9"
"null","","","null","","","","html-keyboard-response","137","36095","0.0-137.0","{{%PROLIFIC_PID%}}","{{%SESSION_ID%}}","","","","","<p style=""color:red;font-size:24px;"">Error :(</p>","",""
"255","key","v","v","16.714285714285715","500","250","psychophysics","138","36353","0.0-138.0","{{%PROLIFIC_PID%}}","{{%SESSION_ID%}}","4","","","","","1","8"
"null","","","null","","","","html-keyboard-response","139","36855","0.0-139.0","{{%PROLIFIC_PID%}}","{{%SESSION_ID%}}","","","","","<p style=""color:red;font-size:24px;"">Error :(</p>","",""
"237","key","v","v","16.666666666666668","500","250","psychophysics","140","37096","0.0-140.0","{{%PROLIFIC_PID%}}","{{%SESSION_ID%}}","4","","","","","1","7"
"null","","","null","","","","html-keyboard-response","141","37598","0.0-141.0","{{%PROLIFIC_PID%}}","{{%SESSION_ID%}}","","","","","<p style=""color:red;font-size:24px;"">Error :(</p>","",""
"239","key","v","v","16.692307692307693","500","250","psychophysics","142","37840","0.0-142.0","{{%PROLIFIC_PID%}}","{{%SESSION_ID%}}","4","","","","","1","9"
"null","","","null","","","","html-keyboard-response","143","38342","0.0-143.0","{{%PROLIFIC_PID%}}","{{%SESSION_ID%}}","","","","","<p style=""color:red;font-size:24px;"">Error :(</p>","",""
"230","key","v","v","16.666666666666668","500","250","psychophysics","144","38574","0.0-144.0","{{%PROLIFIC_PID%}}","{{%SESSION_ID%}}","4","","","","","1","6"
"null","","","null","","","","html-keyboard-response","145","39077","0.0-145.0","{{%PROLIFIC_PID%}}","{{%SESSION_ID%}}","","","","","<p style=""color:red;font-size:24px;"">Error :(</p>","",""
"214","key","v","v","16.727272727272727","500","250","psychophysics","146","39294","0.0-146.0","{{%PROLIFIC_PID%}}","{{%SESSION_ID%}}","4","","","","","1","4"
"null","","","null","","","","html-keyboard-response","147","39796","0.0-147.0","{{%PROLIFIC_PID%}}","{{%SESSION_ID%}}","","","","","<p style=""color:darkgreen;font-size:24px;"">Correct :)</p>","",""
"246","key","v","v","16.692307692307693","500","250","psychophysics","148","40044","0.0-148.0","{{%PROLIFIC_PID%}}","{{%SESSION_ID%}}","4","","","","","1","6"
"null","","","null","","","","html-keyboard-response","149","40546","0.0-149.0","{{%PROLIFIC_PID%}}","{{%SESSION_ID%}}","","","","","<p style=""color:red;font-size:24px;"">Error :(</p>","",""
"182","key","v","v","16.7","500","250","psychophysics","150","40735","0.0-150.0","{{%PROLIFIC_PID%}}","{{%SESSION_ID%}}","4","","","","","1","2"
"null","","","null","","","","html-keyboard-response","151","41237","0.0-151.0","{{%PROLIFIC_PID%}}","{{%SESSION_ID%}}","","","","","<p style=""color:darkgreen;font-size:24px;"">Correct :)</p>","",""
"193","key","v","v","16.7","500","250","psychophysics","152","41434","0.0-152.0","{{%PROLIFIC_PID%}}","{{%SESSION_ID%}}","4","","","","","1","7"
"null","","","null","","","","html-keyboard-response","153","41938","0.0-153.0","{{%PROLIFIC_PID%}}","{{%SESSION_ID%}}","","","","","<p style=""color:red;font-size:24px;"">Error :(</p>","",""
"251","key","v","v","16.692307692307693","500","250","psychophysics","154","42192","0.0-154.0","{{%PROLIFIC_PID%}}","{{%SESSION_ID%}}","4","","","","","1","8"
"null","","","null","","","","html-keyboard-response","155","42694","0.0-155.0","{{%PROLIFIC_PID%}}","{{%SESSION_ID%}}","","","","","<p style=""color:red;font-size:24px;"">Error :(</p>","",""
"221","key","v","v","16.583333333333332","500","250","psychophysics","156","42917","0.0-156.0","{{%PROLIFIC_PID%}}","{{%SESSION_ID%}}","4","","","","","1","9"
"null","","","null","","","","html-keyboard-response","157","43419","0.0-157.0","{{%PROLIFIC_PID%}}","{{%SESSION_ID%}}","","","","","<p style=""color:red;font-size:24px;"">Error :(</p>","",""
"258","key","v","v","16.785714285714285","500","250","psychophysics","158","43679","0.0-158.0","{{%PROLIFIC_PID%}}","{{%SESSION_ID%}}","4","","","","","1","3"
"null","","","null","","","","html-keyboard-response","159","44181","0.0-159.0","{{%PROLIFIC_PID%}}","{{%SESSION_ID%}}","","","","","<p style=""color:darkgreen;font-size:24px;"">Correct :)</p>","",""
"224","key","v","v","16.75","500","250","psychophysics","160","44407","0.0-160.0","{{%PROLIFIC_PID%}}","{{%SESSION_ID%}}","4","","","","","1","9"
"null","","","null","","","","html-keyboard-response","161","44910","0.0-161.0","{{%PROLIFIC_PID%}}","{{%SESSION_ID%}}","","","","","<p style=""color:red;font-size:24px;"">Error :(</p>","",""
"270","key","v","v","16.714285714285715","500","250","psychophysics","162","45183","0.0-162.0","{{%PROLIFIC_PID%}}","{{%SESSION_ID%}}","4","","","","","1","2"
"null","","","null","","","","html-keyboard-response","163","45685","0.0-163.0","{{%PROLIFIC_PID%}}","{{%SESSION_ID%}}","","","","","<p style=""color:darkgreen;font-size:24px;"">Correct :)</p>","",""
"237","key","v","v","16.615384615384617","500","250","psychophysics","164","45925","0.0-164.0","{{%PROLIFIC_PID%}}","{{%SESSION_ID%}}","4","","","","","1","6"
"null","","","null","","","","html-keyboard-response","165","46427","0.0-165.0","{{%PROLIFIC_PID%}}","{{%SESSION_ID%}}","","","","","<p style=""color:red;font-size:24px;"">Error :(</p>","",""
"225","key","v","v","16.75","500","250","psychophysics","166","46654","0.0-166.0","{{%PROLIFIC_PID%}}","{{%SESSION_ID%}}","4","","","","","1","3"
"null","","","null","","","","html-keyboard-response","167","47157","0.0-167.0","{{%PROLIFIC_PID%}}","{{%SESSION_ID%}}","","","","","<p style=""color:darkgreen;font-size:24px;"">Correct :)</p>","",""
"181","key","v","v","16.8","500","250","psychophysics","168","47348","0.0-168.0","{{%PROLIFIC_PID%}}","{{%SESSION_ID%}}","4","","","","","1","2"
"null","","","null","","","","html-keyboard-response","169","47851","0.0-169.0","{{%PROLIFIC_PID%}}","{{%SESSION_ID%}}","","","","","<p style=""color:darkgreen;font-size:24px;"">Correct :)</p>","",""
"255","key","v","v","16.692307692307693","500","250","psychophysics","170","48108","0.0-170.0","{{%PROLIFIC_PID%}}","{{%SESSION_ID%}}","4","","","","","1","8"
"null","","","null","","","","html-keyboard-response","171","48611","0.0-171.0","{{%PROLIFIC_PID%}}","{{%SESSION_ID%}}","","","","","<p style=""color:red;font-size:24px;"">Error :(</p>","",""
"218","key","v","v","16.583333333333332","500","250","psychophysics","172","48832","0.0-172.0","{{%PROLIFIC_PID%}}","{{%SESSION_ID%}}","4","","","","","1","6"
"null","","","null","","","","html-keyboard-response","173","49334","0.0-173.0","{{%PROLIFIC_PID%}}","{{%SESSION_ID%}}","","","","","<p style=""color:red;font-size:24px;"">Error :(</p>","",""
"263","key","v","v","16.666666666666668","500","250","psychophysics","174","49600","0.0-174.0","{{%PROLIFIC_PID%}}","{{%SESSION_ID%}}","4","","","","","1","4"
"null","","","null","","","","html-keyboard-response","175","50102","0.0-175.0","{{%PROLIFIC_PID%}}","{{%SESSION_ID%}}","","","","","<p style=""color:darkgreen;font-size:24px;"">Correct :)</p>","",""
"210","key","v","v","16.727272727272727","500","250","psychophysics","176","50314","0.0-176.0","{{%PROLIFIC_PID%}}","{{%SESSION_ID%}}","4","","","","","1","1"
"null","","","null","","","","html-keyboard-response","177","50817","0.0-177.0","{{%PROLIFIC_PID%}}","{{%SESSION_ID%}}","","","","","<p style=""color:darkgreen;font-size:24px;"">Correct :)</p>","",""
"237","key","v","v","16.615384615384617","500","250","psychophysics","178","51056","0.0-178.0","{{%PROLIFIC_PID%}}","{{%SESSION_ID%}}","4","","","","","1","9"
"null","","","null","","","","html-keyboard-response","179","51558","0.0-179.0","{{%PROLIFIC_PID%}}","{{%SESSION_ID%}}","","","","","<p style=""color:red;font-size:24px;"">Error :(</p>","",""
"40","key","v","v","16","500","250","psychophysics","180","51601","0.0-180.0","{{%PROLIFIC_PID%}}","{{%SESSION_ID%}}","4","","","","","1","4"
"null","","","null","","","","html-keyboard-response","181","52103","0.0-181.0","{{%PROLIFIC_PID%}}","{{%SESSION_ID%}}","","","","","<p style=""color:darkgreen;font-size:24px;"">Correct :)</p>","",""
"156","key","v","v","16.75","500","250","psychophysics","182","52262","0.0-182.0","{{%PROLIFIC_PID%}}","{{%SESSION_ID%}}","4","","","","","1","8"
"null","","","null","","","","html-keyboard-response","183","52765","0.0-183.0","{{%PROLIFIC_PID%}}","{{%SESSION_ID%}}","","","","","<p style=""color:red;font-size:24px;"">Error :(</p>","",""
"159","key","v","v","16.5","500","250","psychophysics","184","52927","0.0-184.0","{{%PROLIFIC_PID%}}","{{%SESSION_ID%}}","4","","","","","1","7"
"null","","","null","","","","html-keyboard-response","185","53429","0.0-185.0","{{%PROLIFIC_PID%}}","{{%SESSION_ID%}}","","","","","<p style=""color:red;font-size:24px;"">Error :(</p>","",""
"147","key","v","v","16.625","500","250","psychophysics","186","53579","0.0-186.0","{{%PROLIFIC_PID%}}","{{%SESSION_ID%}}","4","","","","","1","6"
"null","","","null","","","","html-keyboard-response","187","54081","0.0-187.0","{{%PROLIFIC_PID%}}","{{%SESSION_ID%}}","","","","","<p style=""color:red;font-size:24px;"">Error :(</p>","",""
"112","key","v","v","16.666666666666668","500","250","psychophysics","188","54196","0.0-188.0","{{%PROLIFIC_PID%}}","{{%SESSION_ID%}}","4","","","","","1","3"
"null","","","null","","","","html-keyboard-response","189","54698","0.0-189.0","{{%PROLIFIC_PID%}}","{{%SESSION_ID%}}","","","","","<p style=""color:darkgreen;font-size:24px;"">Correct :)</p>","",""
"151","key","v","v","16.625","500","250","psychophysics","190","54852","0.0-190.0","{{%PROLIFIC_PID%}}","{{%SESSION_ID%}}","4","","","","","1","3"
"null","","","null","","","","html-keyboard-response","191","55354","0.0-191.0","{{%PROLIFIC_PID%}}","{{%SESSION_ID%}}","","","","","<p style=""color:darkgreen;font-size:24px;"">Correct :)</p>","",""
"18","key","v","v","NaN","500","250","psychophysics","192","55375","0.0-192.0","{{%PROLIFIC_PID%}}","{{%SESSION_ID%}}","4","","","","","1","2"
"null","","","null","","","","html-keyboard-response","193","55877","0.0-193.0","{{%PROLIFIC_PID%}}","{{%SESSION_ID%}}","","","","","<p style=""color:darkgreen;font-size:24px;"">Correct :)</p>","",""
"245","","","v","","","","html-keyboard-response","194","56125","0.0-194.0","{{%PROLIFIC_PID%}}","{{%SESSION_ID%}}","","","","","<p> Ok, now we are going present the same digits as before.  Your job is to say whether the digit is even or odd  If the digit is odd, press to v key; if it is even, press the n key. We are going to do 50 of these.  </p>  <br><br>  Ready? (press v or n)","",""
"400","key","v","v","16.695652173913043","500","250","psychophysics","195","56528","0.0-195.0","{{%PROLIFIC_PID%}}","{{%SESSION_ID%}}","5","","","","","0","8"
"null","","","null","","","","html-keyboard-response","196","57030","0.0-196.0","{{%PROLIFIC_PID%}}","{{%SESSION_ID%}}","","","","","<p style=""color:red;font-size:24px;"">Error :(</p>","",""
"92","key","v","v","16.75","500","250","psychophysics","197","57125","0.0-197.0","{{%PROLIFIC_PID%}}","{{%SESSION_ID%}}","5","","","","","0","7"
"null","","","null","","","","html-keyboard-response","198","57627","0.0-198.0","{{%PROLIFIC_PID%}}","{{%SESSION_ID%}}","","","","","<p style=""color:darkgreen;font-size:24px;"">Correct :)</p>","",""
"102","key","v","v","16.5","500","250","psychophysics","199","57732","0.0-199.0","{{%PROLIFIC_PID%}}","{{%SESSION_ID%}}","5","","","","","0","2"
"null","","","null","","","","html-keyboard-response","200","58234","0.0-200.0","{{%PROLIFIC_PID%}}","{{%SESSION_ID%}}","","","","","<p style=""color:red;font-size:24px;"">Error :(</p>","",""
"156","key","v","v","16.75","500","250","psychophysics","201","58397","0.0-201.0","{{%PROLIFIC_PID%}}","{{%SESSION_ID%}}","5","","","","","0","7"
"null","","","null","","","","html-keyboard-response","202","58900","0.0-202.0","{{%PROLIFIC_PID%}}","{{%SESSION_ID%}}","","","","","<p style=""color:darkgreen;font-size:24px;"">Correct :)</p>","",""
"101","key","v","v","16.75","500","250","psychophysics","203","59004","0.0-203.0","{{%PROLIFIC_PID%}}","{{%SESSION_ID%}}","5","","","","","0","8"
"null","","","null","","","","html-keyboard-response","204","59506","0.0-204.0","{{%PROLIFIC_PID%}}","{{%SESSION_ID%}}","","","","","<p style=""color:red;font-size:24px;"">Error :(</p>","",""
"104","key","v","v","16.6","500","250","psychophysics","205","59613","0.0-205.0","{{%PROLIFIC_PID%}}","{{%SESSION_ID%}}","5","","","","","0","3"
"null","","","null","","","","html-keyboard-response","206","60115","0.0-206.0","{{%PROLIFIC_PID%}}","{{%SESSION_ID%}}","","","","","<p style=""color:darkgreen;font-size:24px;"">Correct :)</p>","",""
"114","key","v","v","16.666666666666668","500","250","psychophysics","207","60232","0.0-207.0","{{%PROLIFIC_PID%}}","{{%SESSION_ID%}}","5","","","","","0","9"
"null","","","null","","","","html-keyboard-response","208","60735","0.0-208.0","{{%PROLIFIC_PID%}}","{{%SESSION_ID%}}","","","","","<p style=""color:darkgreen;font-size:24px;"">Correct :)</p>","",""
"90","key","v","v","16.75","500","250","psychophysics","209","60827","0.0-209.0","{{%PROLIFIC_PID%}}","{{%SESSION_ID%}}","5","","","","","0","1"
"null","","","null","","","","html-keyboard-response","210","61329","0.0-210.0","{{%PROLIFIC_PID%}}","{{%SESSION_ID%}}","","","","","<p style=""color:darkgreen;font-size:24px;"">Correct :)</p>","",""
"110","key","v","v","16.6","500","250","psychophysics","211","61442","0.0-211.0","{{%PROLIFIC_PID%}}","{{%SESSION_ID%}}","5","","","","","0","9"
"null","","","null","","","","html-keyboard-response","212","61944","0.0-212.0","{{%PROLIFIC_PID%}}","{{%SESSION_ID%}}","","","","","<p style=""color:darkgreen;font-size:24px;"">Correct :)</p>","",""
"88","key","v","v","16.75","500","250","psychophysics","213","62035","0.0-213.0","{{%PROLIFIC_PID%}}","{{%SESSION_ID%}}","5","","","","","0","2"
"null","","","null","","","","html-keyboard-response","214","62538","0.0-214.0","{{%PROLIFIC_PID%}}","{{%SESSION_ID%}}","","","","","<p style=""color:red;font-size:24px;"">Error :(</p>","",""
"101","key","v","v","16.8","500","250","psychophysics","215","62641","0.0-215.0","{{%PROLIFIC_PID%}}","{{%SESSION_ID%}}","5","","","","","0","4"
"null","","","null","","","","html-keyboard-response","216","63143","0.0-216.0","{{%PROLIFIC_PID%}}","{{%SESSION_ID%}}","","","","","<p style=""color:red;font-size:24px;"">Error :(</p>","",""
"121","key","v","v","16.8","500","250","psychophysics","217","63266","0.0-217.0","{{%PROLIFIC_PID%}}","{{%SESSION_ID%}}","5","","","","","0","8"
"null","","","null","","","","html-keyboard-response","218","63768","0.0-218.0","{{%PROLIFIC_PID%}}","{{%SESSION_ID%}}","","","","","<p style=""color:red;font-size:24px;"">Error :(</p>","",""
"85","key","v","v","17","500","250","psychophysics","219","63861","0.0-219.0","{{%PROLIFIC_PID%}}","{{%SESSION_ID%}}","5","","","","","0","9"
"null","","","null","","","","html-keyboard-response","220","64365","0.0-220.0","{{%PROLIFIC_PID%}}","{{%SESSION_ID%}}","","","","","<p style=""color:darkgreen;font-size:24px;"">Correct :)</p>","",""
"110","key","v","v","16.8","500","250","psychophysics","221","64479","0.0-221.0","{{%PROLIFIC_PID%}}","{{%SESSION_ID%}}","5","","","","","0","8"
"null","","","null","","","","html-keyboard-response","222","64981","0.0-222.0","{{%PROLIFIC_PID%}}","{{%SESSION_ID%}}","","","","","<p style=""color:red;font-size:24px;"">Error :(</p>","",""
"110","key","v","v","16.4","500","250","psychophysics","223","65094","0.0-223.0","{{%PROLIFIC_PID%}}","{{%SESSION_ID%}}","5","","","","","0","8"
"null","","","null","","","","html-keyboard-response","224","65596","0.0-224.0","{{%PROLIFIC_PID%}}","{{%SESSION_ID%}}","","","","","<p style=""color:red;font-size:24px;"">Error :(</p>","",""
"96","key","v","v","16.6","500","250","psychophysics","225","65695","0.0-225.0","{{%PROLIFIC_PID%}}","{{%SESSION_ID%}}","5","","","","","0","4"
"null","","","null","","","","html-keyboard-response","226","66198","0.0-226.0","{{%PROLIFIC_PID%}}","{{%SESSION_ID%}}","","","","","<p style=""color:red;font-size:24px;"">Error :(</p>","",""
"128","key","v","v","16.571428571428573","500","250","psychophysics","227","66328","0.0-227.0","{{%PROLIFIC_PID%}}","{{%SESSION_ID%}}","5","","","","","0","6"
"null","","","null","","","","html-keyboard-response","228","66831","0.0-228.0","{{%PROLIFIC_PID%}}","{{%SESSION_ID%}}","","","","","<p style=""color:red;font-size:24px;"">Error :(</p>","",""
"85","key","v","v","16.75","500","250","psychophysics","229","66918","0.0-229.0","{{%PROLIFIC_PID%}}","{{%SESSION_ID%}}","5","","","","","0","8"
"null","","","null","","","","html-keyboard-response","230","67420","0.0-230.0","{{%PROLIFIC_PID%}}","{{%SESSION_ID%}}","","","","","<p style=""color:red;font-size:24px;"">Error :(</p>","",""
"103","key","v","v","16.75","500","250","psychophysics","231","67527","0.0-231.0","{{%PROLIFIC_PID%}}","{{%SESSION_ID%}}","5","","","","","0","4"
"null","","","null","","","","html-keyboard-response","232","68029","0.0-232.0","{{%PROLIFIC_PID%}}","{{%SESSION_ID%}}","","","","","<p style=""color:red;font-size:24px;"">Error :(</p>","",""
"129","key","v","v","16.714285714285715","500","250","psychophysics","233","68168","0.0-233.0","{{%PROLIFIC_PID%}}","{{%SESSION_ID%}}","5","","","","","0","9"
"null","","","null","","","","html-keyboard-response","234","68670","0.0-234.0","{{%PROLIFIC_PID%}}","{{%SESSION_ID%}}","","","","","<p style=""color:darkgreen;font-size:24px;"">Correct :)</p>","",""
"114","key","v","v","16.666666666666668","500","250","psychophysics","235","68788","0.0-235.0","{{%PROLIFIC_PID%}}","{{%SESSION_ID%}}","5","","","","","0","2"
"null","","","null","","","","html-keyboard-response","236","69290","0.0-236.0","{{%PROLIFIC_PID%}}","{{%SESSION_ID%}}","","","","","<p style=""color:red;font-size:24px;"">Error :(</p>","",""
"104","key","v","v","16.8","500","250","psychophysics","237","69397","0.0-237.0","{{%PROLIFIC_PID%}}","{{%SESSION_ID%}}","5","","","","","0","8"
"null","","","null","","","","html-keyboard-response","238","69899","0.0-238.0","{{%PROLIFIC_PID%}}","{{%SESSION_ID%}}","","","","","<p style=""color:red;font-size:24px;"">Error :(</p>","",""
"75","key","v","v","16.666666666666668","500","250","psychophysics","239","69977","0.0-239.0","{{%PROLIFIC_PID%}}","{{%SESSION_ID%}}","5","","","","","0","7"
"null","","","null","","","","html-keyboard-response","240","70479","0.0-240.0","{{%PROLIFIC_PID%}}","{{%SESSION_ID%}}","","","","","<p style=""color:darkgreen;font-size:24px;"">Correct :)</p>","",""
"97","key","v","v","16.75","500","250","psychophysics","241","70578","0.0-241.0","{{%PROLIFIC_PID%}}","{{%SESSION_ID%}}","5","","","","","0","7"
"null","","","null","","","","html-keyboard-response","242","71081","0.0-242.0","{{%PROLIFIC_PID%}}","{{%SESSION_ID%}}","","","","","<p style=""color:darkgreen;font-size:24px;"">Correct :)</p>","",""
"87","key","v","v","16.666666666666668","500","250","psychophysics","243","71170","0.0-243.0","{{%PROLIFIC_PID%}}","{{%SESSION_ID%}}","5","","","","","0","1"
"null","","","null","","","","html-keyboard-response","244","71673","0.0-244.0","{{%PROLIFIC_PID%}}","{{%SESSION_ID%}}","","","","","<p style=""color:darkgreen;font-size:24px;"">Correct :)</p>","",""
"743","key","v","v","16.72093023255814","500","250","psychophysics","245","72418","0.0-245.0","{{%PROLIFIC_PID%}}","{{%SESSION_ID%}}","5","","","","","0","2"
"null","","","null","","","","html-keyboard-response","246","72921","0.0-246.0","{{%PROLIFIC_PID%}}","{{%SESSION_ID%}}","","","","","<p style=""color:red;font-size:24px;"">Error :(</p>","",""
"405","key","v","v","16.681818181818183","500","250","psychophysics","247","73328","0.0-247.0","{{%PROLIFIC_PID%}}","{{%SESSION_ID%}}","5","","","","","0","6"
"null","","","null","","","","html-keyboard-response","248","73830","0.0-248.0","{{%PROLIFIC_PID%}}","{{%SESSION_ID%}}","","","","","<p style=""color:red;font-size:24px;"">Error :(</p>","",""
"344","key","v","v","16.68421052631579","500","250","psychophysics","249","74176","0.0-249.0","{{%PROLIFIC_PID%}}","{{%SESSION_ID%}}","5","","","","","0","3"
"null","","","null","","","","html-keyboard-response","250","74678","0.0-250.0","{{%PROLIFIC_PID%}}","{{%SESSION_ID%}}","","","","","<p style=""color:darkgreen;font-size:24px;"">Correct :)</p>","",""
"319","key","v","v","16.705882352941178","500","250","psychophysics","251","74999","0.0-251.0","{{%PROLIFIC_PID%}}","{{%SESSION_ID%}}","5","","","","","0","9"
"null","","","null","","","","html-keyboard-response","252","75502","0.0-252.0","{{%PROLIFIC_PID%}}","{{%SESSION_ID%}}","","","","","<p style=""color:darkgreen;font-size:24px;"">Correct :)</p>","",""
"649","key","v","v","16.710526315789473","500","250","psychophysics","253","76156","0.0-253.0","{{%PROLIFIC_PID%}}","{{%SESSION_ID%}}","5","","","","","0","9"
"null","","","null","","","","html-keyboard-response","254","76658","0.0-254.0","{{%PROLIFIC_PID%}}","{{%SESSION_ID%}}","","","","","<p style=""color:darkgreen;font-size:24px;"">Correct :)</p>","",""
"466","key","n","n","16.666666666666668","500","250","psychophysics","255","77128","0.0-255.0","{{%PROLIFIC_PID%}}","{{%SESSION_ID%}}","5","","","","","0","3"
"null","","","null","","","","html-keyboard-response","256","77630","0.0-256.0","{{%PROLIFIC_PID%}}","{{%SESSION_ID%}}","","","","","<p style=""color:red;font-size:24px;"">Error :(</p>","",""
"344","key","v","v","16.7","500","250","psychophysics","257","77977","0.0-257.0","{{%PROLIFIC_PID%}}","{{%SESSION_ID%}}","5","","","","","0","1"
"null","","","null","","","","html-keyboard-response","258","78479","0.0-258.0","{{%PROLIFIC_PID%}}","{{%SESSION_ID%}}","","","","","<p style=""color:darkgreen;font-size:24px;"">Correct :)</p>","",""
"349","key","n","n","16.65","500","250","psychophysics","259","78831","0.0-259.0","{{%PROLIFIC_PID%}}","{{%SESSION_ID%}}","5","","","","","0","7"
"null","","","null","","","","html-keyboard-response","260","79333","0.0-260.0","{{%PROLIFIC_PID%}}","{{%SESSION_ID%}}","","","","","<p style=""color:red;font-size:24px;"">Error :(</p>","",""
"322","key","v","v","16.72222222222222","500","250","psychophysics","261","79657","0.0-261.0","{{%PROLIFIC_PID%}}","{{%SESSION_ID%}}","5","","","","","0","8"
"null","","","null","","","","html-keyboard-response","262","80160","0.0-262.0","{{%PROLIFIC_PID%}}","{{%SESSION_ID%}}","","","","","<p style=""color:red;font-size:24px;"">Error :(</p>","",""
"280","key","n","n","16.733333333333334","500","250","psychophysics","263","80442","0.0-263.0","{{%PROLIFIC_PID%}}","{{%SESSION_ID%}}","5","","","","","0","3"
"null","","","null","","","","html-keyboard-response","264","80945","0.0-264.0","{{%PROLIFIC_PID%}}","{{%SESSION_ID%}}","","","","","<p style=""color:red;font-size:24px;"">Error :(</p>","",""
"240","key","v","v","16.692307692307693","500","250","psychophysics","265","81188","0.0-265.0","{{%PROLIFIC_PID%}}","{{%SESSION_ID%}}","5","","","","","0","1"
"null","","","null","","","","html-keyboard-response","266","81691","0.0-266.0","{{%PROLIFIC_PID%}}","{{%SESSION_ID%}}","","","","","<p style=""color:darkgreen;font-size:24px;"">Correct :)</p>","",""
"129","key","n","n","16.714285714285715","500","250","psychophysics","267","81823","0.0-267.0","{{%PROLIFIC_PID%}}","{{%SESSION_ID%}}","5","","","","","0","4"
"null","","","null","","","","html-keyboard-response","268","82325","0.0-268.0","{{%PROLIFIC_PID%}}","{{%SESSION_ID%}}","","","","","<p style=""color:darkgreen;font-size:24px;"">Correct :)</p>","",""
"350","key","n","n","16.7","500","250","psychophysics","269","82677","0.0-269.0","{{%PROLIFIC_PID%}}","{{%SESSION_ID%}}","5","","","","","0","1"
"null","","","null","","","","html-keyboard-response","270","83180","0.0-270.0","{{%PROLIFIC_PID%}}","{{%SESSION_ID%}}","","","","","<p style=""color:red;font-size:24px;"">Error :(</p>","",""
"356","key","n","n","16.736842105263158","500","250","psychophysics","271","83538","0.0-271.0","{{%PROLIFIC_PID%}}","{{%SESSION_ID%}}","5","","","","","0","2"
"null","","","null","","","","html-keyboard-response","272","84040","0.0-272.0","{{%PROLIFIC_PID%}}","{{%SESSION_ID%}}","","","","","<p style=""color:darkgreen;font-size:24px;"">Correct :)</p>","",""
"378","key","n","n","16.666666666666668","500","250","psychophysics","273","84420","0.0-273.0","{{%PROLIFIC_PID%}}","{{%SESSION_ID%}}","5","","","","","0","3"
"null","","","null","","","","html-keyboard-response","274","84923","0.0-274.0","{{%PROLIFIC_PID%}}","{{%SESSION_ID%}}","","","","","<p style=""color:red;font-size:24px;"">Error :(</p>","",""
"373","key","n","n","16.666666666666668","500","250","psychophysics","275","85299","0.0-275.0","{{%PROLIFIC_PID%}}","{{%SESSION_ID%}}","5","","","","","0","2"
"null","","","null","","","","html-keyboard-response","276","85801","0.0-276.0","{{%PROLIFIC_PID%}}","{{%SESSION_ID%}}","","","","","<p style=""color:darkgreen;font-size:24px;"">Correct :)</p>","",""
"300","key","n","n","16.705882352941178","500","250","psychophysics","277","86107","0.0-277.0","{{%PROLIFIC_PID%}}","{{%SESSION_ID%}}","5","","","","","0","8"
"null","","","null","","","","html-keyboard-response","278","86610","0.0-278.0","{{%PROLIFIC_PID%}}","{{%SESSION_ID%}}","","","","","<p style=""color:darkgreen;font-size:24px;"">Correct :)</p>","",""
"268","key","n","n","16.714285714285715","500","250","psychophysics","279","86881","0.0-279.0","{{%PROLIFIC_PID%}}","{{%SESSION_ID%}}","5","","","","","0","1"
"null","","","null","","","","html-keyboard-response","280","87383","0.0-280.0","{{%PROLIFIC_PID%}}","{{%SESSION_ID%}}","","","","","<p style=""color:red;font-size:24px;"">Error :(</p>","",""
"253","key","n","n","16.642857142857142","500","250","psychophysics","281","87639","0.0-281.0","{{%PROLIFIC_PID%}}","{{%SESSION_ID%}}","5","","","","","0","1"
"null","","","null","","","","html-keyboard-response","282","88141","0.0-282.0","{{%PROLIFIC_PID%}}","{{%SESSION_ID%}}","","","","","<p style=""color:red;font-size:24px;"">Error :(</p>","",""
"238","key","n","n","16.692307692307693","500","250","psychophysics","283","88381","0.0-283.0","{{%PROLIFIC_PID%}}","{{%SESSION_ID%}}","5","","","","","0","6"
"null","","","null","","","","html-keyboard-response","284","88883","0.0-284.0","{{%PROLIFIC_PID%}}","{{%SESSION_ID%}}","","","","","<p style=""color:darkgreen;font-size:24px;"">Correct :)</p>","",""
"275","key","n","n","16.666666666666668","500","250","psychophysics","285","89160","0.0-285.0","{{%PROLIFIC_PID%}}","{{%SESSION_ID%}}","5","","","","","0","4"
"null","","","null","","","","html-keyboard-response","286","89662","0.0-286.0","{{%PROLIFIC_PID%}}","{{%SESSION_ID%}}","","","","","<p style=""color:darkgreen;font-size:24px;"">Correct :)</p>","",""
"256","key","n","n","16.642857142857142","500","250","psychophysics","287","89921","0.0-287.0","{{%PROLIFIC_PID%}}","{{%SESSION_ID%}}","5","","","","","0","9"
"null","","","null","","","","html-keyboard-response","288","90424","0.0-288.0","{{%PROLIFIC_PID%}}","{{%SESSION_ID%}}","","","","","<p style=""color:red;font-size:24px;"">Error :(</p>","",""
"109","key","v","v","16.8","500","250","psychophysics","289","90537","0.0-289.0","{{%PROLIFIC_PID%}}","{{%SESSION_ID%}}","5","","","","","0","6"
"null","","","null","","","","html-keyboard-response","290","91039","0.0-290.0","{{%PROLIFIC_PID%}}","{{%SESSION_ID%}}","","","","","<p style=""color:red;font-size:24px;"">Error :(</p>","",""
"347","key","n","n","16.68421052631579","500","250","psychophysics","291","91389","0.0-291.0","{{%PROLIFIC_PID%}}","{{%SESSION_ID%}}","5","","","","","0","1"
"null","","","null","","","","html-keyboard-response","292","91891","0.0-292.0","{{%PROLIFIC_PID%}}","{{%SESSION_ID%}}","","","","","<p style=""color:red;font-size:24px;"">Error :(</p>","",""
"258","key","n","n","15.307692307692308","500","250","psychophysics","293","92152","0.0-293.0","{{%PROLIFIC_PID%}}","{{%SESSION_ID%}}","5","","","","","0","6"
"null","","","null","","","","html-keyboard-response","294","92654","0.0-294.0","{{%PROLIFIC_PID%}}","{{%SESSION_ID%}}","","","","","<p style=""color:darkgreen;font-size:24px;"">Correct :)</p>","",""
"289","","","n","","","","html-keyboard-response","295","92944","0.0-295.0","{{%PROLIFIC_PID%}}","{{%SESSION_ID%}}","","","","","<p> Here, the tasks are going to switch.  For some trials, your job is to decide if the digit is less than or greater than 5.  For others, it is to decide if the digit is even or odd.  You will be told which type of trial the current one is.  But, pay attention, the type of trial changes too.  We are going to do 50 of these.  </p>  <br><br>  Ready? (press v or n)","",""
"371","key","v","v","16.681818181818183","500","250","psychophysics","296","93318","0.0-296.0","{{%PROLIFIC_PID%}}","{{%SESSION_ID%}}","6","","","","","0","9"
"null","","","null","","","","html-keyboard-response","297","93821","0.0-297.0","{{%PROLIFIC_PID%}}","{{%SESSION_ID%}}","","","","","<p style=""color:darkgreen;font-size:24px;"">Correct :)</p>","",""
"298","key","v","v","16.647058823529413","500","250","psychophysics","298","94121","0.0-298.0","{{%PROLIFIC_PID%}}","{{%SESSION_ID%}}","6","","","","","0","7"
"null","","","null","","","","html-keyboard-response","299","94624","0.0-299.0","{{%PROLIFIC_PID%}}","{{%SESSION_ID%}}","","","","","<p style=""color:darkgreen;font-size:24px;"">Correct :)</p>","",""
"278","key","v","v","16.625","500","250","psychophysics","300","94910","0.0-300.0","{{%PROLIFIC_PID%}}","{{%SESSION_ID%}}","6","","","","","1","8"
"null","","","null","","","","html-keyboard-response","301","95413","0.0-301.0","{{%PROLIFIC_PID%}}","{{%SESSION_ID%}}","","","","","<p style=""color:red;font-size:24px;"">Error :(</p>","",""
"263","key","v","v","16.714285714285715","500","250","psychophysics","302","95679","0.0-302.0","{{%PROLIFIC_PID%}}","{{%SESSION_ID%}}","6","","","","","1","2"
"null","","","null","","","","html-keyboard-response","303","96180","0.0-303.0","{{%PROLIFIC_PID%}}","{{%SESSION_ID%}}","","","","","<p style=""color:darkgreen;font-size:24px;"">Correct :)</p>","",""
"289","key","v","v","16.6875","500","250","psychophysics","304","96472","0.0-304.0","{{%PROLIFIC_PID%}}","{{%SESSION_ID%}}","6","","","","","0","2"
"null","","","null","","","","html-keyboard-response","305","96974","0.0-305.0","{{%PROLIFIC_PID%}}","{{%SESSION_ID%}}","","","","","<p style=""color:red;font-size:24px;"">Error :(</p>","",""
"257","key","v","v","16.714285714285715","500","250","psychophysics","306","97234","0.0-306.0","{{%PROLIFIC_PID%}}","{{%SESSION_ID%}}","6","","","","","0","4"
"null","","","null","","","","html-keyboard-response","307","97735","0.0-307.0","{{%PROLIFIC_PID%}}","{{%SESSION_ID%}}","","","","","<p style=""color:red;font-size:24px;"">Error :(</p>","",""
"226","key","v","v","16.583333333333332","500","250","psychophysics","308","97963","0.0-308.0","{{%PROLIFIC_PID%}}","{{%SESSION_ID%}}","6","","","","","0","4"
"null","","","null","","","","html-keyboard-response","309","98465","0.0-309.0","{{%PROLIFIC_PID%}}","{{%SESSION_ID%}}","","","","","<p style=""color:red;font-size:24px;"">Error :(</p>","",""
"236","key","v","v","16.615384615384617","500","250","psychophysics","310","98704","0.0-310.0","{{%PROLIFIC_PID%}}","{{%SESSION_ID%}}","6","","","","","0","4"
"null","","","null","","","","html-keyboard-response","311","99206","0.0-311.0","{{%PROLIFIC_PID%}}","{{%SESSION_ID%}}","","","","","<p style=""color:red;font-size:24px;"">Error :(</p>","",""
"249","key","v","v","16.76923076923077","500","250","psychophysics","312","99457","0.0-312.0","{{%PROLIFIC_PID%}}","{{%SESSION_ID%}}","6","","","","","0","2"
"null","","","null","","","","html-keyboard-response","313","99959","0.0-313.0","{{%PROLIFIC_PID%}}","{{%SESSION_ID%}}","","","","","<p style=""color:red;font-size:24px;"">Error :(</p>","",""
"196","key","v","v","16.7","500","250","psychophysics","314","100158","0.0-314.0","{{%PROLIFIC_PID%}}","{{%SESSION_ID%}}","6","","","","","1","4"
"null","","","null","","","","html-keyboard-response","315","100661","0.0-315.0","{{%PROLIFIC_PID%}}","{{%SESSION_ID%}}","","","","","<p style=""color:darkgreen;font-size:24px;"">Correct :)</p>","",""
"215","key","v","v","16.727272727272727","500","250","psychophysics","316","100878","0.0-316.0","{{%PROLIFIC_PID%}}","{{%SESSION_ID%}}","6","","","","","1","9"
"null","","","null","","","","html-keyboard-response","317","101380","0.0-317.0","{{%PROLIFIC_PID%}}","{{%SESSION_ID%}}","","","","","<p style=""color:red;font-size:24px;"">Error :(</p>","",""
"232","key","v","v","16.666666666666668","500","250","psychophysics","318","101615","0.0-318.0","{{%PROLIFIC_PID%}}","{{%SESSION_ID%}}","6","","","","","1","7"
"null","","","null","","","","html-keyboard-response","319","102118","0.0-319.0","{{%PROLIFIC_PID%}}","{{%SESSION_ID%}}","","","","","<p style=""color:red;font-size:24px;"">Error :(</p>","",""
"200","key","v","v","16.6","500","250","psychophysics","320","102323","0.0-320.0","{{%PROLIFIC_PID%}}","{{%SESSION_ID%}}","6","","","","","1","1"
"null","","","null","","","","html-keyboard-response","321","102825","0.0-321.0","{{%PROLIFIC_PID%}}","{{%SESSION_ID%}}","","","","","<p style=""color:darkgreen;font-size:24px;"">Correct :)</p>","",""
"203","key","v","v","16.727272727272727","500","250","psychophysics","322","103032","0.0-322.0","{{%PROLIFIC_PID%}}","{{%SESSION_ID%}}","6","","","","","0","2"
"null","","","null","","","","html-keyboard-response","323","103534","0.0-323.0","{{%PROLIFIC_PID%}}","{{%SESSION_ID%}}","","","","","<p style=""color:red;font-size:24px;"">Error :(</p>","",""
"223","key","v","v","16.636363636363637","500","250","psychophysics","324","103759","0.0-324.0","{{%PROLIFIC_PID%}}","{{%SESSION_ID%}}","6","","","","","1","4"
"null","","","null","","","","html-keyboard-response","325","104262","0.0-325.0","{{%PROLIFIC_PID%}}","{{%SESSION_ID%}}","","","","","<p style=""color:darkgreen;font-size:24px;"">Correct :)</p>","",""
"212","key","v","v","16.727272727272727","500","250","psychophysics","326","104476","0.0-326.0","{{%PROLIFIC_PID%}}","{{%SESSION_ID%}}","6","","","","","1","6"
"null","","","null","","","","html-keyboard-response","327","104979","0.0-327.0","{{%PROLIFIC_PID%}}","{{%SESSION_ID%}}","","","","","<p style=""color:red;font-size:24px;"">Error :(</p>","",""
"230","key","v","v","16.666666666666668","500","250","psychophysics","328","105212","0.0-328.0","{{%PROLIFIC_PID%}}","{{%SESSION_ID%}}","6","","","","","0","6"
"null","","","null","","","","html-keyboard-response","329","105714","0.0-329.0","{{%PROLIFIC_PID%}}","{{%SESSION_ID%}}","","","","","<p style=""color:red;font-size:24px;"">Error :(</p>","",""
"228","key","v","v","16.666666666666668","500","250","psychophysics","330","105945","0.0-330.0","{{%PROLIFIC_PID%}}","{{%SESSION_ID%}}","6","","","","","1","9"
"null","","","null","","","","html-keyboard-response","331","106447","0.0-331.0","{{%PROLIFIC_PID%}}","{{%SESSION_ID%}}","","","","","<p style=""color:red;font-size:24px;"">Error :(</p>","",""
"202","key","v","v","16.7","500","250","psychophysics","332","106652","0.0-332.0","{{%PROLIFIC_PID%}}","{{%SESSION_ID%}}","6","","","","","1","9"
"null","","","null","","","","html-keyboard-response","333","107154","0.0-333.0","{{%PROLIFIC_PID%}}","{{%SESSION_ID%}}","","","","","<p style=""color:red;font-size:24px;"">Error :(</p>","",""
"278","key","v","v","16.733333333333334","500","250","psychophysics","334","107435","0.0-334.0","{{%PROLIFIC_PID%}}","{{%SESSION_ID%}}","6","","","","","0","7"
"null","","","null","","","","html-keyboard-response","335","107938","0.0-335.0","{{%PROLIFIC_PID%}}","{{%SESSION_ID%}}","","","","","<p style=""color:darkgreen;font-size:24px;"">Correct :)</p>","",""
"245","key","v","v","16.692307692307693","500","250","psychophysics","336","108188","0.0-336.0","{{%PROLIFIC_PID%}}","{{%SESSION_ID%}}","6","","","","","1","1"
"null","","","null","","","","html-keyboard-response","337","108690","0.0-337.0","{{%PROLIFIC_PID%}}","{{%SESSION_ID%}}","","","","","<p style=""color:darkgreen;font-size:24px;"">Correct :)</p>","",""
"179","key","v","v","16.77777777777778","500","250","psychophysics","338","108873","0.0-338.0","{{%PROLIFIC_PID%}}","{{%SESSION_ID%}}","6","","","","","0","4"
"null","","","null","","","","html-keyboard-response","339","109374","0.0-339.0","{{%PROLIFIC_PID%}}","{{%SESSION_ID%}}","","","","","<p style=""color:red;font-size:24px;"">Error :(</p>","",""
"233","key","v","v","16.666666666666668","500","250","psychophysics","340","109609","0.0-340.0","{{%PROLIFIC_PID%}}","{{%SESSION_ID%}}","6","","","","","0","1"
"null","","","null","","","","html-keyboard-response","341","110111","0.0-341.0","{{%PROLIFIC_PID%}}","{{%SESSION_ID%}}","","","","","<p style=""color:darkgreen;font-size:24px;"">Correct :)</p>","",""
"223","key","v","v","16.75","500","250","psychophysics","342","110337","0.0-342.0","{{%PROLIFIC_PID%}}","{{%SESSION_ID%}}","6","","","","","0","6"
"null","","","null","","","","html-keyboard-response","343","110841","0.0-343.0","{{%PROLIFIC_PID%}}","{{%SESSION_ID%}}","","","","","<p style=""color:red;font-size:24px;"">Error :(</p>","",""
"227","key","v","v","16.666666666666668","500","250","psychophysics","344","111070","0.0-344.0","{{%PROLIFIC_PID%}}","{{%SESSION_ID%}}","6","","","","","1","9"
"null","","","null","","","","html-keyboard-response","345","111572","0.0-345.0","{{%PROLIFIC_PID%}}","{{%SESSION_ID%}}","","","","","<p style=""color:red;font-size:24px;"">Error :(</p>","",""
"186","key","v","v","16.7","500","250","psychophysics","346","111761","0.0-346.0","{{%PROLIFIC_PID%}}","{{%SESSION_ID%}}","6","","","","","1","7"
"null","","","null","","","","html-keyboard-response","347","112263","0.0-347.0","{{%PROLIFIC_PID%}}","{{%SESSION_ID%}}","","","","","<p style=""color:red;font-size:24px;"">Error :(</p>","",""
"247","key","v","v","16.692307692307693","500","250","psychophysics","348","112513","0.0-348.0","{{%PROLIFIC_PID%}}","{{%SESSION_ID%}}","6","","","","","0","1"
"null","","","null","","","","html-keyboard-response","349","113015","0.0-349.0","{{%PROLIFIC_PID%}}","{{%SESSION_ID%}}","","","","","<p style=""color:darkgreen;font-size:24px;"">Correct :)</p>","",""
"174","key","v","v","16.555555555555557","500","250","psychophysics","350","113191","0.0-350.0","{{%PROLIFIC_PID%}}","{{%SESSION_ID%}}","6","","","","","0","6"
"null","","","null","","","","html-keyboard-response","351","113694","0.0-351.0","{{%PROLIFIC_PID%}}","{{%SESSION_ID%}}","","","","","<p style=""color:red;font-size:24px;"">Error :(</p>","",""
"189","key","v","v","16.7","500","250","psychophysics","352","113887","0.0-352.0","{{%PROLIFIC_PID%}}","{{%SESSION_ID%}}","6","","","","","1","6"
"null","","","null","","","","html-keyboard-response","353","114390","0.0-353.0","{{%PROLIFIC_PID%}}","{{%SESSION_ID%}}","","","","","<p style=""color:red;font-size:24px;"">Error :(</p>","",""
"151","key","v","v","16.75","500","250","psychophysics","354","114546","0.0-354.0","{{%PROLIFIC_PID%}}","{{%SESSION_ID%}}","6","","","","","0","3"
"null","","","null","","","","html-keyboard-response","355","115049","0.0-355.0","{{%PROLIFIC_PID%}}","{{%SESSION_ID%}}","","","","","<p style=""color:darkgreen;font-size:24px;"">Correct :)</p>","",""
"97","key","v","v","16.75","500","250","psychophysics","356","115149","0.0-356.0","{{%PROLIFIC_PID%}}","{{%SESSION_ID%}}","6","","","","","0","4"
"null","","","null","","","","html-keyboard-response","357","115652","0.0-357.0","{{%PROLIFIC_PID%}}","{{%SESSION_ID%}}","","","","","<p style=""color:red;font-size:24px;"">Error :(</p>","",""
"39","key","v","v","16","500","250","psychophysics","358","115696","0.0-358.0","{{%PROLIFIC_PID%}}","{{%SESSION_ID%}}","6","","","","","0","4"
"null","","","null","","","","html-keyboard-response","359","116197","0.0-359.0","{{%PROLIFIC_PID%}}","{{%SESSION_ID%}}","","","","","<p style=""color:red;font-size:24px;"">Error :(</p>","",""
"33","key","v","v","17","500","250","psychophysics","360","116232","0.0-360.0","{{%PROLIFIC_PID%}}","{{%SESSION_ID%}}","6","","","","","1","1"
"null","","","null","","","","html-keyboard-response","361","116735","0.0-361.0","{{%PROLIFIC_PID%}}","{{%SESSION_ID%}}","","","","","<p style=""color:darkgreen;font-size:24px;"">Correct :)</p>","",""
"224","key","n","n","16.666666666666668","500","250","psychophysics","362","116960","0.0-362.0","{{%PROLIFIC_PID%}}","{{%SESSION_ID%}}","6","","","","","1","2"
"null","","","null","","","","html-keyboard-response","363","117462","0.0-363.0","{{%PROLIFIC_PID%}}","{{%SESSION_ID%}}","","","","","<p style=""color:red;font-size:24px;"">Error :(</p>","",""
"198","key","v","v","16.8","500","250","psychophysics","364","117663","0.0-364.0","{{%PROLIFIC_PID%}}","{{%SESSION_ID%}}","6","","","","","0","2"
"null","","","null","","","","html-keyboard-response","365","118165","0.0-365.0","{{%PROLIFIC_PID%}}","{{%SESSION_ID%}}","","","","","<p style=""color:red;font-size:24px;"">Error :(</p>","",""
"181","key","n","n","16.666666666666668","500","250","psychophysics","366","118349","0.0-366.0","{{%PROLIFIC_PID%}}","{{%SESSION_ID%}}","6","","","","","1","6"
"null","","","null","","","","html-keyboard-response","367","118851","0.0-367.0","{{%PROLIFIC_PID%}}","{{%SESSION_ID%}}","","","","","<p style=""color:darkgreen;font-size:24px;"">Correct :)</p>","",""
"147","key","v","v","16.714285714285715","500","250","psychophysics","368","119001","0.0-368.0","{{%PROLIFIC_PID%}}","{{%SESSION_ID%}}","6","","","","","1","3"
"null","","","null","","","","html-keyboard-response","369","119503","0.0-369.0","{{%PROLIFIC_PID%}}","{{%SESSION_ID%}}","","","","","<p style=""color:darkgreen;font-size:24px;"">Correct :)</p>","",""
"129","key","n","n","16.666666666666668","500","250","psychophysics","370","119635","0.0-370.0","{{%PROLIFIC_PID%}}","{{%SESSION_ID%}}","6","","","","","1","7"
"null","","","null","","","","html-keyboard-response","371","120137","0.0-371.0","{{%PROLIFIC_PID%}}","{{%SESSION_ID%}}","","","","","<p style=""color:darkgreen;font-size:24px;"">Correct :)</p>","",""
"115","key","v","v","16.6","500","250","psychophysics","372","120255","0.0-372.0","{{%PROLIFIC_PID%}}","{{%SESSION_ID%}}","6","","","","","0","8"
"null","","","null","","","","html-keyboard-response","373","120757","0.0-373.0","{{%PROLIFIC_PID%}}","{{%SESSION_ID%}}","","","","","<p style=""color:red;font-size:24px;"">Error :(</p>","",""
"76","key","n","n","16.666666666666668","500","250","psychophysics","374","120838","0.0-374.0","{{%PROLIFIC_PID%}}","{{%SESSION_ID%}}","6","","","","","0","6"
"null","","","null","","","","html-keyboard-response","375","121340","0.0-375.0","{{%PROLIFIC_PID%}}","{{%SESSION_ID%}}","","","","","<p style=""color:darkgreen;font-size:24px;"">Correct :)</p>","",""
"56","key","v","v","16.5","500","250","psychophysics","376","121399","0.0-376.0","{{%PROLIFIC_PID%}}","{{%SESSION_ID%}}","6","","","","","0","3"
"null","","","null","","","","html-keyboard-response","377","121904","0.0-377.0","{{%PROLIFIC_PID%}}","{{%SESSION_ID%}}","","","","","<p style=""color:darkgreen;font-size:24px;"">Correct :)</p>","",""
"51","key","n","n","17","500","250","psychophysics","378","121959","0.0-378.0","{{%PROLIFIC_PID%}}","{{%SESSION_ID%}}","6","","","","","0","8"
"null","","","null","","","","html-keyboard-response","379","122461","0.0-379.0","{{%PROLIFIC_PID%}}","{{%SESSION_ID%}}","","","","","<p style=""color:darkgreen;font-size:24px;"">Correct :)</p>","",""
"150","key","v","v","16.625","500","250","psychophysics","380","122615","0.0-380.0","{{%PROLIFIC_PID%}}","{{%SESSION_ID%}}","6","","","","","1","7"
"null","","","null","","","","html-keyboard-response","381","123117","0.0-381.0","{{%PROLIFIC_PID%}}","{{%SESSION_ID%}}","","","","","<p style=""color:red;font-size:24px;"">Error :(</p>","",""
"163","key","n","n","16.666666666666668","500","250","psychophysics","382","123283","0.0-382.0","{{%PROLIFIC_PID%}}","{{%SESSION_ID%}}","6","","","","","1","7"
"null","","","null","","","","html-keyboard-response","383","123786","0.0-383.0","{{%PROLIFIC_PID%}}","{{%SESSION_ID%}}","","","","","<p style=""color:darkgreen;font-size:24px;"">Correct :)</p>","",""
"201","key","n","n","16.727272727272727","500","250","psychophysics","384","123989","0.0-384.0","{{%PROLIFIC_PID%}}","{{%SESSION_ID%}}","6","","","","","1","9"
"null","","","null","","","","html-keyboard-response","385","124491","0.0-385.0","{{%PROLIFIC_PID%}}","{{%SESSION_ID%}}","","","","","<p style=""color:darkgreen;font-size:24px;"">Correct :)</p>","",""
"137","key","n","n","16.5","500","250","psychophysics","386","124631","0.0-386.0","{{%PROLIFIC_PID%}}","{{%SESSION_ID%}}","6","","","","","1","2"
"null","","","null","","","","html-keyboard-response","387","125132","0.0-387.0","{{%PROLIFIC_PID%}}","{{%SESSION_ID%}}","","","","","<p style=""color:red;font-size:24px;"">Error :(</p>","",""
"126","key","n","n","16.666666666666668","500","250","psychophysics","388","125261","0.0-388.0","{{%PROLIFIC_PID%}}","{{%SESSION_ID%}}","6","","","","","1","9"
"null","","","null","","","","html-keyboard-response","389","125764","0.0-389.0","{{%PROLIFIC_PID%}}","{{%SESSION_ID%}}","","","","","<p style=""color:darkgreen;font-size:24px;"">Correct :)</p>","",""
"129","key","n","n","16.666666666666668","500","250","psychophysics","390","125896","0.0-390.0","{{%PROLIFIC_PID%}}","{{%SESSION_ID%}}","6","","","","","0","6"
"null","","","null","","","","html-keyboard-response","391","126398","0.0-391.0","{{%PROLIFIC_PID%}}","{{%SESSION_ID%}}","","","","","<p style=""color:darkgreen;font-size:24px;"">Correct :)</p>","",""
"126","key","v","v","16.666666666666668","500","250","psychophysics","392","126534","0.0-392.0","{{%PROLIFIC_PID%}}","{{%SESSION_ID%}}","6","","","","","0","6"
"null","","","null","","","","html-keyboard-response","393","127036","0.0-393.0","{{%PROLIFIC_PID%}}","{{%SESSION_ID%}}","","","","","<p style=""color:red;font-size:24px;"">Error :(</p>","",""
"141","key","n","n","16.571428571428573","500","250","psychophysics","394","127182","0.0-394.0","{{%PROLIFIC_PID%}}","{{%SESSION_ID%}}","6","","","","","1","3"
"null","","","null","","","","html-keyboard-response","395","127684","0.0-395.0","{{%PROLIFIC_PID%}}","{{%SESSION_ID%}}","","","","","<p style=""color:red;font-size:24px;"">Error :(</p>","",""
"124","","","v","","","","html-keyboard-response","396","127809","0.0-396.0","{{%PROLIFIC_PID%}}","{{%SESSION_ID%}}","","","","","<p> Last set of trials.  Here, the tasks are going to switch once again.  We are going to do 50 of these.  And then you are done with the experiment.  </p>  <br><br>  Ready? (press v or n)","",""
"172","key","n","n","16.666666666666668","500","250","psychophysics","397","127983","0.0-397.0","{{%PROLIFIC_PID%}}","{{%SESSION_ID%}}","7","","","","","1","2"
"null","","","null","","","","html-keyboard-response","398","128485","0.0-398.0","{{%PROLIFIC_PID%}}","{{%SESSION_ID%}}","","","","","<p style=""color:red;font-size:24px;"">Error :(</p>","",""
"36","key","n","n","NaN","500","250","psychophysics","399","128524","0.0-399.0","{{%PROLIFIC_PID%}}","{{%SESSION_ID%}}","7","","","","","0","7"
"null","","","null","","","","html-keyboard-response","400","129026","0.0-400.0","{{%PROLIFIC_PID%}}","{{%SESSION_ID%}}","","","","","<p style=""color:red;font-size:24px;"">Error :(</p>","",""
"124","key","v","v","16.833333333333332","500","250","psychophysics","401","129153","0.0-401.0","{{%PROLIFIC_PID%}}","{{%SESSION_ID%}}","7","","","","","0","1"
"null","","","null","","","","html-keyboard-response","402","129656","0.0-402.0","{{%PROLIFIC_PID%}}","{{%SESSION_ID%}}","","","","","<p style=""color:darkgreen;font-size:24px;"">Correct :)</p>","",""
"161","key","n","n","16.625","500","250","psychophysics","403","129819","0.0-403.0","{{%PROLIFIC_PID%}}","{{%SESSION_ID%}}","7","","","","","1","2"
"null","","","null","","","","html-keyboard-response","404","130321","0.0-404.0","{{%PROLIFIC_PID%}}","{{%SESSION_ID%}}","","","","","<p style=""color:red;font-size:24px;"">Error :(</p>","",""
"155","key","v","v","16.75","500","250","psychophysics","405","130478","0.0-405.0","{{%PROLIFIC_PID%}}","{{%SESSION_ID%}}","7","","","","","1","4"
"null","","","null","","","","html-keyboard-response","406","130980","0.0-406.0","{{%PROLIFIC_PID%}}","{{%SESSION_ID%}}","","","","","<p style=""color:darkgreen;font-size:24px;"">Correct :)</p>","",""
"138","key","n","n","16.571428571428573","500","250","psychophysics","407","131121","0.0-407.0","{{%PROLIFIC_PID%}}","{{%SESSION_ID%}}","7","","","","","0","7"
"null","","","null","","","","html-keyboard-response","408","131623","0.0-408.0","{{%PROLIFIC_PID%}}","{{%SESSION_ID%}}","","","","","<p style=""color:red;font-size:24px;"">Error :(</p>","",""
"130","key","v","v","16.714285714285715","500","250","psychophysics","409","131755","0.0-409.0","{{%PROLIFIC_PID%}}","{{%SESSION_ID%}}","7","","","","","0","2"
"null","","","null","","","","html-keyboard-response","410","132257","0.0-410.0","{{%PROLIFIC_PID%}}","{{%SESSION_ID%}}","","","","","<p style=""color:red;font-size:24px;"">Error :(</p>","",""
"58","key","n","n","16.5","500","250","psychophysics","411","132318","0.0-411.0","{{%PROLIFIC_PID%}}","{{%SESSION_ID%}}","7","","","","","0","2"
"null","","","null","","","","html-keyboard-response","412","132819","0.0-412.0","{{%PROLIFIC_PID%}}","{{%SESSION_ID%}}","","","","","<p style=""color:darkgreen;font-size:24px;"">Correct :)</p>","",""
"120","key","v","v","16.5","500","250","psychophysics","413","132942","0.0-413.0","{{%PROLIFIC_PID%}}","{{%SESSION_ID%}}","7","","","","","1","2"
"null","","","null","","","","html-keyboard-response","414","133443","0.0-414.0","{{%PROLIFIC_PID%}}","{{%SESSION_ID%}}","","","","","<p style=""color:darkgreen;font-size:24px;"">Correct :)</p>","",""
"69","key","n","n","16.666666666666668","500","250","psychophysics","415","133525","0.0-415.0","{{%PROLIFIC_PID%}}","{{%SESSION_ID%}}","7","","","","","0","3"
"null","","","null","","","","html-keyboard-response","416","134029","0.0-416.0","{{%PROLIFIC_PID%}}","{{%SESSION_ID%}}","","","","","<p style=""color:red;font-size:24px;"">Error :(</p>","",""
"69","key","v","v","16.666666666666668","500","250","psychophysics","417","134101","0.0-417.0","{{%PROLIFIC_PID%}}","{{%SESSION_ID%}}","7","","","","","0","7"
"null","","","null","","","","html-keyboard-response","418","134603","0.0-418.0","{{%PROLIFIC_PID%}}","{{%SESSION_ID%}}","","","","","<p style=""color:darkgreen;font-size:24px;"">Correct :)</p>","",""
"71","key","n","n","16.5","500","250","psychophysics","419","134676","0.0-419.0","{{%PROLIFIC_PID%}}","{{%SESSION_ID%}}","7","","","","","1","7"
"null","","","null","","","","html-keyboard-response","420","135178","0.0-420.0","{{%PROLIFIC_PID%}}","{{%SESSION_ID%}}","","","","","<p style=""color:darkgreen;font-size:24px;"">Correct :)</p>","",""
"103","key","v","v","16.6","500","250","psychophysics","421","135283","0.0-421.0","{{%PROLIFIC_PID%}}","{{%SESSION_ID%}}","7","","","","","1","1"
"null","","","null","","","","html-keyboard-response","422","135785","0.0-422.0","{{%PROLIFIC_PID%}}","{{%SESSION_ID%}}","","","","","<p style=""color:darkgreen;font-size:24px;"">Correct :)</p>","",""
"100","key","n","n","16.6","500","250","psychophysics","423","135887","0.0-423.0","{{%PROLIFIC_PID%}}","{{%SESSION_ID%}}","7","","","","","1","6"
"null","","","null","","","","html-keyboard-response","424","136389","0.0-424.0","{{%PROLIFIC_PID%}}","{{%SESSION_ID%}}","","","","","<p style=""color:darkgreen;font-size:24px;"">Correct :)</p>","",""
"102","key","v","v","16.75","500","250","psychophysics","425","136494","0.0-425.0","{{%PROLIFIC_PID%}}","{{%SESSION_ID%}}","7","","","","","0","6"
"null","","","null","","","","html-keyboard-response","426","136996","0.0-426.0","{{%PROLIFIC_PID%}}","{{%SESSION_ID%}}","","","","","<p style=""color:red;font-size:24px;"">Error :(</p>","",""
"98","key","n","n","16.5","500","250","psychophysics","427","137096","0.0-427.0","{{%PROLIFIC_PID%}}","{{%SESSION_ID%}}","7","","","","","1","7"
"null","","","null","","","","html-keyboard-response","428","137598","0.0-428.0","{{%PROLIFIC_PID%}}","{{%SESSION_ID%}}","","","","","<p style=""color:darkgreen;font-size:24px;"">Correct :)</p>","",""
"100","key","v","v","16.75","500","250","psychophysics","429","137701","0.0-429.0","{{%PROLIFIC_PID%}}","{{%SESSION_ID%}}","7","","","","","0","3"
"null","","","null","","","","html-keyboard-response","430","138203","0.0-430.0","{{%PROLIFIC_PID%}}","{{%SESSION_ID%}}","","","","","<p style=""color:darkgreen;font-size:24px;"">Correct :)</p>","",""
"111","key","n","n","16.4","500","250","psychophysics","431","138316","0.0-431.0","{{%PROLIFIC_PID%}}","{{%SESSION_ID%}}","7","","","","","1","7"
"null","","","null","","","","html-keyboard-response","432","138818","0.0-432.0","{{%PROLIFIC_PID%}}","{{%SESSION_ID%}}","","","","","<p style=""color:darkgreen;font-size:24px;"">Correct :)</p>","",""
"67","key","v","v","17","500","250","psychophysics","433","138887","0.0-433.0","{{%PROLIFIC_PID%}}","{{%SESSION_ID%}}","7","","","","","1","4"
"null","","","null","","","","html-keyboard-response","434","139390","0.0-434.0","{{%PROLIFIC_PID%}}","{{%SESSION_ID%}}","","","","","<p style=""color:darkgreen;font-size:24px;"">Correct :)</p>","",""
"50","key","n","n","16.5","500","250","psychophysics","435","139443","0.0-435.0","{{%PROLIFIC_PID%}}","{{%SESSION_ID%}}","7","","","","","1","7"
"null","","","null","","","","html-keyboard-response","436","139945","0.0-436.0","{{%PROLIFIC_PID%}}","{{%SESSION_ID%}}","","","","","<p style=""color:darkgreen;font-size:24px;"">Correct :)</p>","",""
"102","key","v","v","16.6","500","250","psychophysics","437","140050","0.0-437.0","{{%PROLIFIC_PID%}}","{{%SESSION_ID%}}","7","","","","","1","1"
"null","","","null","","","","html-keyboard-response","438","140552","0.0-438.0","{{%PROLIFIC_PID%}}","{{%SESSION_ID%}}","","","","","<p style=""color:darkgreen;font-size:24px;"">Correct :)</p>","",""
"61","key","n","n","16.5","500","250","psychophysics","439","140615","0.0-439.0","{{%PROLIFIC_PID%}}","{{%SESSION_ID%}}","7","","","","","1","3"
"null","","","null","","","","html-keyboard-response","440","141118","0.0-440.0","{{%PROLIFIC_PID%}}","{{%SESSION_ID%}}","","","","","<p style=""color:red;font-size:24px;"">Error :(</p>","",""
"181","key","v","v","16.6","500","250","psychophysics","441","141301","0.0-441.0","{{%PROLIFIC_PID%}}","{{%SESSION_ID%}}","7","","","","","0","2"
"null","","","null","","","","html-keyboard-response","442","141803","0.0-442.0","{{%PROLIFIC_PID%}}","{{%SESSION_ID%}}","","","","","<p style=""color:red;font-size:24px;"">Error :(</p>","",""
"1187","key","n","n","16.714285714285715","500","250","psychophysics","443","142998","0.0-443.0","{{%PROLIFIC_PID%}}","{{%SESSION_ID%}}","7","","","","","0","2"
"null","","","null","","","","html-keyboard-response","444","143501","0.0-444.0","{{%PROLIFIC_PID%}}","{{%SESSION_ID%}}","","","","","<p style=""color:darkgreen;font-size:24px;"">Correct :)</p>","",""
"392","key","n","n","16.727272727272727","500","250","psychophysics","445","143898","0.0-445.0","{{%PROLIFIC_PID%}}","{{%SESSION_ID%}}","7","","","","","1","4"
"null","","","null","","","","html-keyboard-response","446","144400","0.0-446.0","{{%PROLIFIC_PID%}}","{{%SESSION_ID%}}","","","","","<p style=""color:red;font-size:24px;"">Error :(</p>","",""
"398","key","n","n","16.681818181818183","500","250","psychophysics","447","144802","0.0-447.0","{{%PROLIFIC_PID%}}","{{%SESSION_ID%}}","7","","","","","0","7"
"null","","","null","","","","html-keyboard-response","448","145304","0.0-448.0","{{%PROLIFIC_PID%}}","{{%SESSION_ID%}}","","","","","<p style=""color:red;font-size:24px;"">Error :(</p>","",""
"357","key","n","n","16.7","500","250","psychophysics","449","145665","0.0-449.0","{{%PROLIFIC_PID%}}","{{%SESSION_ID%}}","7","","","","","0","4"
"null","","","null","","","","html-keyboard-response","450","146168","0.0-450.0","{{%PROLIFIC_PID%}}","{{%SESSION_ID%}}","","","","","<p style=""color:darkgreen;font-size:24px;"">Correct :)</p>","",""
"342","key","n","n","16.63157894736842","500","250","psychophysics","451","146512","0.0-451.0","{{%PROLIFIC_PID%}}","{{%SESSION_ID%}}","7","","","","","0","7"
"null","","","null","","","","html-keyboard-response","452","147014","0.0-452.0","{{%PROLIFIC_PID%}}","{{%SESSION_ID%}}","","","","","<p style=""color:red;font-size:24px;"">Error :(</p>","",""
"290","key","n","n","16.6875","500","250","psychophysics","453","147307","0.0-453.0","{{%PROLIFIC_PID%}}","{{%SESSION_ID%}}","7","","","","","1","1"
"null","","","null","","","","html-keyboard-response","454","147809","0.0-454.0","{{%PROLIFIC_PID%}}","{{%SESSION_ID%}}","","","","","<p style=""color:red;font-size:24px;"">Error :(</p>","",""
"227","key","n","n","16.666666666666668","500","250","psychophysics","455","148039","0.0-455.0","{{%PROLIFIC_PID%}}","{{%SESSION_ID%}}","7","","","","","0","7"
"null","","","null","","","","html-keyboard-response","456","148542","0.0-456.0","{{%PROLIFIC_PID%}}","{{%SESSION_ID%}}","","","","","<p style=""color:red;font-size:24px;"">Error :(</p>","",""
"218","key","n","n","16.727272727272727","500","250","psychophysics","457","148764","0.0-457.0","{{%PROLIFIC_PID%}}","{{%SESSION_ID%}}","7","","","","","1","2"
"null","","","null","","","","html-keyboard-response","458","149266","0.0-458.0","{{%PROLIFIC_PID%}}","{{%SESSION_ID%}}","","","","","<p style=""color:red;font-size:24px;"">Error :(</p>","",""
"218","key","n","n","16.583333333333332","500","250","psychophysics","459","149488","0.0-459.0","{{%PROLIFIC_PID%}}","{{%SESSION_ID%}}","7","","","","","1","6"
"null","","","null","","","","html-keyboard-response","460","149990","0.0-460.0","{{%PROLIFIC_PID%}}","{{%SESSION_ID%}}","","","","","<p style=""color:darkgreen;font-size:24px;"">Correct :)</p>","",""
"401","key","n","n","16.73913043478261","500","250","psychophysics","461","150394","0.0-461.0","{{%PROLIFIC_PID%}}","{{%SESSION_ID%}}","7","","","","","0","6"
"null","","","null","","","","html-keyboard-response","462","150896","0.0-462.0","{{%PROLIFIC_PID%}}","{{%SESSION_ID%}}","","","","","<p style=""color:darkgreen;font-size:24px;"">Correct :)</p>","",""
"243","key","n","n","16.615384615384617","500","250","psychophysics","463","151142","0.0-463.0","{{%PROLIFIC_PID%}}","{{%SESSION_ID%}}","7","","","","","0","2"
"null","","","null","","","","html-keyboard-response","464","151643","0.0-464.0","{{%PROLIFIC_PID%}}","{{%SESSION_ID%}}","","","","","<p style=""color:darkgreen;font-size:24px;"">Correct :)</p>","",""
"173","key","n","n","16.666666666666668","500","250","psychophysics","465","151819","0.0-465.0","{{%PROLIFIC_PID%}}","{{%SESSION_ID%}}","7","","","","","0","6"
"null","","","null","","","","html-keyboard-response","466","152321","0.0-466.0","{{%PROLIFIC_PID%}}","{{%SESSION_ID%}}","","","","","<p style=""color:darkgreen;font-size:24px;"">Correct :)</p>","",""
"248","key","n","n","16.692307692307693","500","250","psychophysics","467","152572","0.0-467.0","{{%PROLIFIC_PID%}}","{{%SESSION_ID%}}","7","","","","","0","7"
"null","","","null","","","","html-keyboard-response","468","153074","0.0-468.0","{{%PROLIFIC_PID%}}","{{%SESSION_ID%}}","","","","","<p style=""color:red;font-size:24px;"">Error :(</p>","",""
"147","key","n","n","16.571428571428573","500","250","psychophysics","469","153224","0.0-469.0","{{%PROLIFIC_PID%}}","{{%SESSION_ID%}}","7","","","","","1","6"
"null","","","null","","","","html-keyboard-response","470","153726","0.0-470.0","{{%PROLIFIC_PID%}}","{{%SESSION_ID%}}","","","","","<p style=""color:darkgreen;font-size:24px;"">Correct :)</p>","",""
"127","key","n","n","16.666666666666668","500","250","psychophysics","471","153860","0.0-471.0","{{%PROLIFIC_PID%}}","{{%SESSION_ID%}}","7","","","","","0","3"
"null","","","null","","","","html-keyboard-response","472","154363","0.0-472.0","{{%PROLIFIC_PID%}}","{{%SESSION_ID%}}","","","","","<p style=""color:red;font-size:24px;"">Error :(</p>","",""
"226","key","n","n","16.75","500","250","psychophysics","473","154593","0.0-473.0","{{%PROLIFIC_PID%}}","{{%SESSION_ID%}}","7","","","","","1","2"
"null","","","null","","","","html-keyboard-response","474","155095","0.0-474.0","{{%PROLIFIC_PID%}}","{{%SESSION_ID%}}","","","","","<p style=""color:red;font-size:24px;"">Error :(</p>","",""
"161","key","n","n","16.75","500","250","psychophysics","475","155259","0.0-475.0","{{%PROLIFIC_PID%}}","{{%SESSION_ID%}}","7","","","","","1","3"
"null","","","null","","","","html-keyboard-response","476","155762","0.0-476.0","{{%PROLIFIC_PID%}}","{{%SESSION_ID%}}","","","","","<p style=""color:red;font-size:24px;"">Error :(</p>","",""
"152","key","n","n","16.714285714285715","500","250","psychophysics","477","155917","0.0-477.0","{{%PROLIFIC_PID%}}","{{%SESSION_ID%}}","7","","","","","0","1"
"null","","","null","","","","html-keyboard-response","478","156419","0.0-478.0","{{%PROLIFIC_PID%}}","{{%SESSION_ID%}}","","","","","<p style=""color:red;font-size:24px;"">Error :(</p>","",""
"100","key","n","n","16.6","500","250","psychophysics","479","156522","0.0-479.0","{{%PROLIFIC_PID%}}","{{%SESSION_ID%}}","7","","","","","1","1"
"null","","","null","","","","html-keyboard-response","480","157024","0.0-480.0","{{%PROLIFIC_PID%}}","{{%SESSION_ID%}}","","","","","<p style=""color:red;font-size:24px;"">Error :(</p>","",""
"90","key","n","n","17","500","250","psychophysics","481","157116","0.0-481.0","{{%PROLIFIC_PID%}}","{{%SESSION_ID%}}","7","","","","","1","2"
"null","","","null","","","","html-keyboard-response","482","157619","0.0-482.0","{{%PROLIFIC_PID%}}","{{%SESSION_ID%}}","","","","","<p style=""color:red;font-size:24px;"">Error :(</p>","",""
"126","key","n","n","16.833333333333332","500","250","psychophysics","483","157747","0.0-483.0","{{%PROLIFIC_PID%}}","{{%SESSION_ID%}}","7","","","","","1","3"
"null","","","null","","","","html-keyboard-response","484","158250","0.0-484.0","{{%PROLIFIC_PID%}}","{{%SESSION_ID%}}","","","","","<p style=""color:red;font-size:24px;"">Error :(</p>","",""
"155","key","n","n","16.714285714285715","500","250","psychophysics","485","158407","0.0-485.0","{{%PROLIFIC_PID%}}","{{%SESSION_ID%}}","7","","","","","1","3"
"null","","","null","","","","html-keyboard-response","486","158908","0.0-486.0","{{%PROLIFIC_PID%}}","{{%SESSION_ID%}}","","","","","<p style=""color:red;font-size:24px;"">Error :(</p>","",""
"124","key","n","n","15.8","500","250","psychophysics","487","159034","0.0-487.0","{{%PROLIFIC_PID%}}","{{%SESSION_ID%}}","7","","","","","0","7"
"null","","","null","","","","html-keyboard-response","488","159536","0.0-488.0","{{%PROLIFIC_PID%}}","{{%SESSION_ID%}}","","","","","<p style=""color:red;font-size:24px;"">Error :(</p>","",""
"181","key","n","n","16.77777777777778","500","250","psychophysics","489","159721","0.0-489.0","{{%PROLIFIC_PID%}}","{{%SESSION_ID%}}","7","","","","","0","4"
"null","","","null","","","","html-keyboard-response","490","160224","0.0-490.0","{{%PROLIFIC_PID%}}","{{%SESSION_ID%}}","","","","","<p style=""color:darkgreen;font-size:24px;"">Correct :)</p>","",""
"179","key","n","n","16.77777777777778","500","250","psychophysics","491","160405","0.0-491.0","{{%PROLIFIC_PID%}}","{{%SESSION_ID%}}","7","","","","","0","7"
"null","","","null","","","","html-keyboard-response","492","160908","0.0-492.0","{{%PROLIFIC_PID%}}","{{%SESSION_ID%}}","","","","","<p style=""color:red;font-size:24px;"">Error :(</p>","",""
"157","key","n","n","16.625","500","250","psychophysics","493","161068","0.0-493.0","{{%PROLIFIC_PID%}}","{{%SESSION_ID%}}","7","","","","","1","2"
"null","","","null","","","","html-keyboard-response","494","161572","0.0-494.0","{{%PROLIFIC_PID%}}","{{%SESSION_ID%}}","","","","","<p style=""color:red;font-size:24px;"">Error :(</p>","",""
"95","key","n","n","16.6","500","250","psychophysics","495","161672","0.0-495.0","{{%PROLIFIC_PID%}}","{{%SESSION_ID%}}","7","","","","","1","7"
"null","","","null","","","","html-keyboard-response","496","162174","0.0-496.0","{{%PROLIFIC_PID%}}","{{%SESSION_ID%}}","","","","","<p style=""color:darkgreen;font-size:24px;"">Correct :)</p>","",""
