"rt","response_type","key_press","response","avg_frame_time","center_x","center_y","trial_type","trial_index","time_elapsed","internal_node_id","pid","sid","phase","guide","targ","resp","stimulus","is5","stim"
"3175","key"," "," ","17.080213903743317","500","250","psychophysics","0","3206","0.0-0.0","60fe7594611a2f2bc720228d","61fd91aae15db0e669cef471","","","","","","",""
"6458","key"," "," ","18.327635327635328","500","250","psychophysics","1","9667","0.0-1.0","60fe7594611a2f2bc720228d","61fd91aae15db0e669cef471","","","","","","",""
"5914","key"," "," ","16.661971830985916","500","250","psychophysics","2","15590","0.0-2.0","60fe7594611a2f2bc720228d","61fd91aae15db0e669cef471","","","","","","",""
"2354","key"," "," ","16.664285714285715","500","250","psychophysics","3","17948","0.0-3.0","60fe7594611a2f2bc720228d","61fd91aae15db0e669cef471","","","","","","",""
"2559","key"," "," ","16.666666666666668","500","250","psychophysics","4","20511","0.0-4.0","60fe7594611a2f2bc720228d","61fd91aae15db0e669cef471","","","","","","",""
"5134","key"," "," ","16.835526315789473","500","250","psychophysics","5","25648","0.0-5.0","60fe7594611a2f2bc720228d","61fd91aae15db0e669cef471","","","","","","",""
"3718","key"," "," ","16.663677130044842","500","250","psychophysics","6","29369","0.0-6.0","60fe7594611a2f2bc720228d","61fd91aae15db0e669cef471","","","","","","",""
"22074","key"," "," ","16.66591080876795","500","250","psychophysics","7","51447","0.0-7.0","60fe7594611a2f2bc720228d","61fd91aae15db0e669cef471","","","","","","",""
"3462","key"," "," ","16.67149758454106","500","250","psychophysics","8","54912","0.0-8.0","60fe7594611a2f2bc720228d","61fd91aae15db0e669cef471","","","","","","",""
"3861","key"," "," ","16.666666666666668","500","250","psychophysics","9","58776","0.0-9.0","60fe7594611a2f2bc720228d","61fd91aae15db0e669cef471","","","","","","",""
"2447","key"," "," ","16.664383561643834","500","250","psychophysics","10","61226","0.0-10.0","60fe7594611a2f2bc720228d","61fd91aae15db0e669cef471","","","","","","",""
"3807","key"," "," ","16.67105263157895","500","250","psychophysics","11","65037","0.0-11.0","60fe7594611a2f2bc720228d","61fd91aae15db0e669cef471","","","","","","",""
"21599","key"," "," ","16.665637065637064","500","250","psychophysics","12","86640","0.0-12.0","60fe7594611a2f2bc720228d","61fd91aae15db0e669cef471","1","0","40","73","","",""
"10453","key"," "," ","16.66773162939297","500","250","psychophysics","13","97097","0.0-13.0","60fe7594611a2f2bc720228d","61fd91aae15db0e669cef471","1","5","31","32","","",""
"17500","key"," "," ","16.666348903717825","500","250","psychophysics","14","114601","0.0-14.0","60fe7594611a2f2bc720228d","61fd91aae15db0e669cef471","1","0","49","124","","",""
"7571","key"," "," ","16.662995594713657","500","250","psychophysics","15","122175","0.0-15.0","60fe7594611a2f2bc720228d","61fd91aae15db0e669cef471","1","5","37","42","","",""
"16126","key"," "," ","16.664943123061015","500","250","psychophysics","16","138304","0.0-16.0","60fe7594611a2f2bc720228d","61fd91aae15db0e669cef471","1","0","59","139","","",""
"35907","key"," "," ","53.00443131462334","500","250","psychophysics","17","174214","0.0-17.0","60fe7594611a2f2bc720228d","61fd91aae15db0e669cef471","1","5","54","63","","",""
"32877","key"," "," ","16.66632860040568","500","250","psychophysics","18","207096","0.0-18.0","60fe7594611a2f2bc720228d","61fd91aae15db0e669cef471","1","0","55","124","","",""
"8591","key"," "," ","16.664077669902913","500","250","psychophysics","19","215690","0.0-19.0","60fe7594611a2f2bc720228d","61fd91aae15db0e669cef471","1","5","25","32","","",""
"11045","key"," "," ","16.66616314199396","500","250","psychophysics","20","226739","0.0-20.0","60fe7594611a2f2bc720228d","61fd91aae15db0e669cef471","1","0","35","81","","",""
"12940","key"," "," ","16.6658064516129","500","250","psychophysics","21","239682","0.0-21.0","60fe7594611a2f2bc720228d","61fd91aae15db0e669cef471","1","5","51","61","","",""
"14244","key"," "," ","16.666276346604217","500","250","psychophysics","22","253929","0.0-22.0","60fe7594611a2f2bc720228d","61fd91aae15db0e669cef471","1","0","60","124","","",""
"6644","key"," "," ","16.66331658291457","500","250","psychophysics","23","260576","0.0-23.0","60fe7594611a2f2bc720228d","61fd91aae15db0e669cef471","1","5","53","58","","",""
"14063","key"," "," ","16.666666666666668","500","250","psychophysics","24","274643","0.0-24.0","60fe7594611a2f2bc720228d","61fd91aae15db0e669cef471","1","0","57","118","","",""
"8835","key"," "," ","16.66540642722117","500","250","psychophysics","25","283480","0.0-25.0","60fe7594611a2f2bc720228d","61fd91aae15db0e669cef471","1","5","53","63","","",""
"19715","key"," "," ","16.666666666666668","500","250","psychophysics","26","303198","0.0-26.0","60fe7594611a2f2bc720228d","61fd91aae15db0e669cef471","1","0","56","112","","",""
"6455","key"," "," ","16.66839378238342","500","250","psychophysics","27","309655","0.0-27.0","60fe7594611a2f2bc720228d","61fd91aae15db0e669cef471","1","5","51","56","","",""
"10936","key"," "," ","16.663109756097562","500","250","psychophysics","28","320594","0.0-28.0","60fe7594611a2f2bc720228d","61fd91aae15db0e669cef471","1","0","47","87","","",""
"9621","key"," "," ","16.66840277777778","500","250","psychophysics","29","330219","0.0-29.0","60fe7594611a2f2bc720228d","61fd91aae15db0e669cef471","1","5","32","36","","",""
"9916","key"," "," ","16.653781512605043","500","250","psychophysics","30","340145","0.0-30.0","60fe7594611a2f2bc720228d","61fd91aae15db0e669cef471","1","0","52","98","","",""
"6390","key"," "," ","16.667539267015705","500","250","psychophysics","31","346538","0.0-31.0","60fe7594611a2f2bc720228d","61fd91aae15db0e669cef471","1","5","48","54","","",""
"2198","key"," "," ","16.66412213740458","500","250","psychophysics","32","348738","0.0-32.0","60fe7594611a2f2bc720228d","61fd91aae15db0e669cef471","","","","","","",""
"7008","key"," "," ","16.664285714285715","500","250","psychophysics","33","355749","0.0-33.0","60fe7594611a2f2bc720228d","61fd91aae15db0e669cef471","","","","","","",""
"1743","key"," "," ","16.66346153846154","500","250","psychophysics","34","357494","0.0-34.0","60fe7594611a2f2bc720228d","61fd91aae15db0e669cef471","","","","","","",""
"13513","key"," "," ","16.665432098765432","500","250","psychophysics","35","371011","0.0-35.0","60fe7594611a2f2bc720228d","61fd91aae15db0e669cef471","2","0","60","114","","",""
"6769","key"," "," ","16.664197530864197","500","250","psychophysics","36","377783","0.0-36.0","60fe7594611a2f2bc720228d","61fd91aae15db0e669cef471","","","","","","",""
"11971","key"," "," ","16.66434540389972","500","250","psychophysics","37","389758","0.0-37.0","60fe7594611a2f2bc720228d","61fd91aae15db0e669cef471","2","0","59","82","","",""
"1521","key"," "," ","16.666666666666668","500","250","psychophysics","38","391282","0.0-38.0","60fe7594611a2f2bc720228d","61fd91aae15db0e669cef471","","","","","","",""
"7364","key"," "," ","16.74259681093394","500","250","psychophysics","39","398648","0.0-39.0","60fe7594611a2f2bc720228d","61fd91aae15db0e669cef471","2","0","54","72","","",""
"2781","key"," "," ","16.674698795180724","500","250","psychophysics","40","401432","0.0-40.0","60fe7594611a2f2bc720228d","61fd91aae15db0e669cef471","","","","","","",""
"4925","key"," "," ","16.667796610169493","500","250","psychophysics","41","406359","0.0-41.0","60fe7594611a2f2bc720228d","61fd91aae15db0e669cef471","2","0","42","50","","",""
"3561","key"," "," ","16.669811320754718","500","250","psychophysics","42","409923","0.0-42.0","60fe7594611a2f2bc720228d","61fd91aae15db0e669cef471","","","","","","",""
"5561","key"," "," ","16.663663663663662","500","250","psychophysics","43","415486","0.0-43.0","60fe7594611a2f2bc720228d","61fd91aae15db0e669cef471","2","0","35","36","","",""
"2420","key"," "," ","16.66896551724138","500","250","psychophysics","44","417908","0.0-44.0","60fe7594611a2f2bc720228d","61fd91aae15db0e669cef471","","","","","","",""
"4228","key"," "," ","16.66269841269841","500","250","psychophysics","45","422139","0.0-45.0","60fe7594611a2f2bc720228d","61fd91aae15db0e669cef471","2","0","29","34","","",""
"1025","key"," "," ","16.672131147540984","500","250","psychophysics","46","423171","0.0-46.0","60fe7594611a2f2bc720228d","61fd91aae15db0e669cef471","","","","","","",""
"2247","key"," "," ","16.65671641791045","500","250","psychophysics","47","425422","0.0-47.0","60fe7594611a2f2bc720228d","61fd91aae15db0e669cef471","2","0","32","23","","",""
"1869","key"," "," ","16.669642857142858","500","250","psychophysics","48","427301","0.0-48.0","60fe7594611a2f2bc720228d","61fd91aae15db0e669cef471","","","","","","",""
"6050","key"," "," ","16.665745856353592","500","250","psychophysics","49","433353","0.0-49.0","60fe7594611a2f2bc720228d","61fd91aae15db0e669cef471","2","0","54","55","","",""
"1516","key"," "," ","16.666666666666668","500","250","psychophysics","50","434871","0.0-50.0","60fe7594611a2f2bc720228d","61fd91aae15db0e669cef471","","","","","","",""
"3963","key"," "," ","16.662447257383967","500","250","psychophysics","51","438838","0.0-51.0","60fe7594611a2f2bc720228d","61fd91aae15db0e669cef471","2","0","57","38","","",""
"1477","key"," "," ","16.662921348314608","500","250","psychophysics","52","440325","0.0-52.0","60fe7594611a2f2bc720228d","61fd91aae15db0e669cef471","","","","","","",""
"5960","key"," "," ","16.668539325842698","500","250","psychophysics","53","446288","0.0-53.0","60fe7594611a2f2bc720228d","61fd91aae15db0e669cef471","2","0","40","52","","",""
"1003","key"," "," ","16.65","500","250","psychophysics","54","447292","0.0-54.0","60fe7594611a2f2bc720228d","61fd91aae15db0e669cef471","","","","","","",""
"6361","key"," "," ","16.67105263157895","500","250","psychophysics","55","453656","0.0-55.0","60fe7594611a2f2bc720228d","61fd91aae15db0e669cef471","2","0","45","61","","",""
"922","key"," "," ","16.636363636363637","500","250","psychophysics","56","454581","0.0-56.0","60fe7594611a2f2bc720228d","61fd91aae15db0e669cef471","","","","","","",""
"4752","key"," "," ","16.66549295774648","500","250","psychophysics","57","459336","0.0-57.0","60fe7594611a2f2bc720228d","61fd91aae15db0e669cef471","2","0","47","45","","",""
"2211","key"," "," ","16.666666666666668","500","250","psychophysics","58","461551","0.0-58.0","60fe7594611a2f2bc720228d","61fd91aae15db0e669cef471","","","","","","",""
"5946","key"," "," ","16.668539325842698","500","250","psychophysics","59","467499","0.0-59.0","60fe7594611a2f2bc720228d","61fd91aae15db0e669cef471","2","0","59","61","","",""
"1041","key"," "," ","16.661290322580644","500","250","psychophysics","60","468544","0.0-60.0","60fe7594611a2f2bc720228d","61fd91aae15db0e669cef471","","","","","","",""
"5005","key"," "," ","16.665551839464882","500","250","psychophysics","61","473553","0.0-61.0","60fe7594611a2f2bc720228d","61fd91aae15db0e669cef471","2","0","48","50","","",""
"1181","key"," "," ","16.65714285714286","500","250","psychophysics","62","474736","0.0-62.0","60fe7594611a2f2bc720228d","61fd91aae15db0e669cef471","","","","","","",""
"6487","key"," "," ","16.663239074550127","500","250","psychophysics","63","481226","0.0-63.0","60fe7594611a2f2bc720228d","61fd91aae15db0e669cef471","2","0","60","55","","",""
"1684","key"," "," ","16.66","500","250","psychophysics","64","482913","0.0-64.0","60fe7594611a2f2bc720228d","61fd91aae15db0e669cef471","","","","","","",""
"2252","key"," "," ","16.671641791044777","500","250","psychophysics","65","485166","0.0-65.0","60fe7594611a2f2bc720228d","61fd91aae15db0e669cef471","","","","","","",""
"1746","key"," "," ","16.66346153846154","500","250","psychophysics","66","486917","0.0-66.0","60fe7594611a2f2bc720228d","61fd91aae15db0e669cef471","","","","","","",""
"4699","key"," "," ","16.669039145907472","500","250","psychophysics","67","491619","0.0-67.0","60fe7594611a2f2bc720228d","61fd91aae15db0e669cef471","3","5","58","29","","",""
"5216","key"," "," ","16.666666666666668","500","250","psychophysics","68","496838","0.0-68.0","60fe7594611a2f2bc720228d","61fd91aae15db0e669cef471","3","0","54","52","","",""
"3386","key"," "," ","16.665024630541872","500","250","psychophysics","69","500226","0.0-69.0","60fe7594611a2f2bc720228d","61fd91aae15db0e669cef471","3","5","41","21","","",""
"11425","key"," "," ","16.666666666666668","500","250","psychophysics","70","511655","0.0-70.0","60fe7594611a2f2bc720228d","61fd91aae15db0e669cef471","3","0","35","36","","",""
"4981","key"," "," ","16.664429530201343","500","250","psychophysics","71","516638","0.0-71.0","60fe7594611a2f2bc720228d","61fd91aae15db0e669cef471","3","5","54","39","","",""
"5348","key"," "," ","16.665625","500","250","psychophysics","72","521989","0.0-72.0","60fe7594611a2f2bc720228d","61fd91aae15db0e669cef471","3","0","21","25","","",""
"4751","key"," "," ","16.66315789473684","500","250","psychophysics","73","526743","0.0-73.0","60fe7594611a2f2bc720228d","61fd91aae15db0e669cef471","3","5","26","26","","",""
"6753","key"," "," ","16.665841584158414","500","250","psychophysics","74","533498","0.0-74.0","60fe7594611a2f2bc720228d","61fd91aae15db0e669cef471","3","0","44","53","","",""
"5879","key"," "," ","16.664772727272727","500","250","psychophysics","75","539381","0.0-75.0","60fe7594611a2f2bc720228d","61fd91aae15db0e669cef471","3","5","45","43","","",""
"6227","key"," "," ","16.664879356568363","500","250","psychophysics","76","545612","0.0-76.0","60fe7594611a2f2bc720228d","61fd91aae15db0e669cef471","3","0","38","49","","",""
"5267","key"," "," ","16.66984126984127","500","250","psychophysics","77","550883","0.0-77.0","60fe7594611a2f2bc720228d","61fd91aae15db0e669cef471","3","5","52","45","","",""
"8082","key"," "," ","16.665289256198346","500","250","psychophysics","78","558968","0.0-78.0","60fe7594611a2f2bc720228d","61fd91aae15db0e669cef471","3","0","53","62","","",""
"4871","key"," "," ","16.670103092783506","500","250","psychophysics","79","563841","0.0-79.0","60fe7594611a2f2bc720228d","61fd91aae15db0e669cef471","3","5","48","47","","",""
"2876","key"," "," ","16.656976744186046","500","250","psychophysics","80","566721","0.0-80.0","60fe7594611a2f2bc720228d","61fd91aae15db0e669cef471","3","0","22","29","","",""
"5225","key"," "," ","16.66773162939297","500","250","psychophysics","81","571948","0.0-81.0","60fe7594611a2f2bc720228d","61fd91aae15db0e669cef471","3","5","49","43","","",""
"6573","key"," "," ","16.66412213740458","500","250","psychophysics","82","578524","0.0-82.0","60fe7594611a2f2bc720228d","61fd91aae15db0e669cef471","3","0","51","63","","",""
"4152","key"," "," ","16.662650602409638","500","250","psychophysics","83","582680","0.0-83.0","60fe7594611a2f2bc720228d","61fd91aae15db0e669cef471","3","5","50","41","","",""
"3869","key"," "," ","16.67099567099567","500","250","psychophysics","84","586552","0.0-84.0","60fe7594611a2f2bc720228d","61fd91aae15db0e669cef471","3","0","31","36","","",""
"3900","key"," "," ","16.665236051502145","500","250","psychophysics","85","590455","0.0-85.0","60fe7594611a2f2bc720228d","61fd91aae15db0e669cef471","3","5","33","32","","",""
"8087","key"," "," ","16.6659793814433","500","250","psychophysics","86","598545","0.0-86.0","60fe7594611a2f2bc720228d","61fd91aae15db0e669cef471","3","0","57","74","","",""
"2259","key"," "," ","16.66417910447761","500","250","psychophysics","87","600807","0.0-87.0","60fe7594611a2f2bc720228d","61fd91aae15db0e669cef471","","","","","","",""
"39756","","","v","","","","html-keyboard-response","88","640566","0.0-88.0","60fe7594611a2f2bc720228d","61fd91aae15db0e669cef471","","","","","<p> In this part of the experiment, we are going present digits 1, 2, 3, 4, 6, 7, 8, and 9.  Notice that 5 is missing.  Your job is to say whether the presented digit is less than or greater than 5.  For example, 3 is less than 5 and 7 is greater than 5.  If the digit is less than 5, press the v key; if it is greater than 5, press the n key. We are going to do 200 of these in total, but only 50 righ now. They go real fast.</p>  <br><br>  Ready? (press v or n)","",""
"3194","key","n","n","16.664921465968586","500","250","psychophysics","89","643766","0.0-89.0","60fe7594611a2f2bc720228d","61fd91aae15db0e669cef471","4","","","","","1","9"
"null","","","null","","","","html-keyboard-response","90","644268","0.0-90.0","60fe7594611a2f2bc720228d","61fd91aae15db0e669cef471","","","","","<p style=""color:darkgreen;font-size:24px;"">Correct :)</p>","",""
"2801","key","n","n","16.664670658682635","500","250","psychophysics","91","647072","0.0-91.0","60fe7594611a2f2bc720228d","61fd91aae15db0e669cef471","4","","","","","1","6"
"null","","","null","","","","html-keyboard-response","92","647573","0.0-92.0","60fe7594611a2f2bc720228d","61fd91aae15db0e669cef471","","","","","<p style=""color:darkgreen;font-size:24px;"">Correct :)</p>","",""
"2419","key","n","n","16.662068965517243","500","250","psychophysics","93","649996","0.0-93.0","60fe7594611a2f2bc720228d","61fd91aae15db0e669cef471","4","","","","","1","7"
"null","","","null","","","","html-keyboard-response","94","650498","0.0-94.0","60fe7594611a2f2bc720228d","61fd91aae15db0e669cef471","","","","","<p style=""color:darkgreen;font-size:24px;"">Correct :)</p>","",""
"2505","key","n","n","16.664429530201343","500","250","psychophysics","95","653006","0.0-95.0","60fe7594611a2f2bc720228d","61fd91aae15db0e669cef471","4","","","","","1","6"
"null","","","null","","","","html-keyboard-response","96","653508","0.0-96.0","60fe7594611a2f2bc720228d","61fd91aae15db0e669cef471","","","","","<p style=""color:darkgreen;font-size:24px;"">Correct :)</p>","",""
"2434","key","v","v","16.662068965517243","500","250","psychophysics","97","655945","0.0-97.0","60fe7594611a2f2bc720228d","61fd91aae15db0e669cef471","4","","","","","1","2"
"null","","","null","","","","html-keyboard-response","98","656447","0.0-98.0","60fe7594611a2f2bc720228d","61fd91aae15db0e669cef471","","","","","<p style=""color:darkgreen;font-size:24px;"">Correct :)</p>","",""
"2628","key","n","n","16.656050955414013","500","250","psychophysics","99","659079","0.0-99.0","60fe7594611a2f2bc720228d","61fd91aae15db0e669cef471","4","","","","","1","8"
"null","","","null","","","","html-keyboard-response","100","659581","0.0-100.0","60fe7594611a2f2bc720228d","61fd91aae15db0e669cef471","","","","","<p style=""color:darkgreen;font-size:24px;"">Correct :)</p>","",""
"2549","key","v","v","16.664473684210527","500","250","psychophysics","101","662134","0.0-101.0","60fe7594611a2f2bc720228d","61fd91aae15db0e669cef471","4","","","","","1","4"
"null","","","null","","","","html-keyboard-response","102","662637","0.0-102.0","60fe7594611a2f2bc720228d","61fd91aae15db0e669cef471","","","","","<p style=""color:darkgreen;font-size:24px;"">Correct :)</p>","",""
"2560","key","n","n","16.666666666666668","500","250","psychophysics","103","665199","0.0-103.0","60fe7594611a2f2bc720228d","61fd91aae15db0e669cef471","4","","","","","1","6"
"null","","","null","","","","html-keyboard-response","104","665700","0.0-104.0","60fe7594611a2f2bc720228d","61fd91aae15db0e669cef471","","","","","<p style=""color:darkgreen;font-size:24px;"">Correct :)</p>","",""
"2538","key","v","v","16.66887417218543","500","250","psychophysics","105","668241","0.0-105.0","60fe7594611a2f2bc720228d","61fd91aae15db0e669cef471","4","","","","","1","3"
"null","","","null","","","","html-keyboard-response","106","668743","0.0-106.0","60fe7594611a2f2bc720228d","61fd91aae15db0e669cef471","","","","","<p style=""color:darkgreen;font-size:24px;"">Correct :)</p>","",""
"2459","key","v","v","16.664383561643834","500","250","psychophysics","107","671207","0.0-107.0","60fe7594611a2f2bc720228d","61fd91aae15db0e669cef471","4","","","","","1","3"
"null","","","null","","","","html-keyboard-response","108","671708","0.0-108.0","60fe7594611a2f2bc720228d","61fd91aae15db0e669cef471","","","","","<p style=""color:darkgreen;font-size:24px;"">Correct :)</p>","",""
"2450","key","v","v","16.65753424657534","500","250","psychophysics","109","674162","0.0-109.0","60fe7594611a2f2bc720228d","61fd91aae15db0e669cef471","4","","","","","1","3"
"null","","","null","","","","html-keyboard-response","110","674664","0.0-110.0","60fe7594611a2f2bc720228d","61fd91aae15db0e669cef471","","","","","<p style=""color:darkgreen;font-size:24px;"">Correct :)</p>","",""
"2552","key","n","n","16.664473684210527","500","250","psychophysics","111","677219","0.0-111.0","60fe7594611a2f2bc720228d","61fd91aae15db0e669cef471","4","","","","","1","9"
"null","","","null","","","","html-keyboard-response","112","677720","0.0-112.0","60fe7594611a2f2bc720228d","61fd91aae15db0e669cef471","","","","","<p style=""color:darkgreen;font-size:24px;"">Correct :)</p>","",""
"2717","key","v","v","16.660493827160494","500","250","psychophysics","113","680440","0.0-113.0","60fe7594611a2f2bc720228d","61fd91aae15db0e669cef471","4","","","","","1","3"
"null","","","null","","","","html-keyboard-response","114","680942","0.0-114.0","60fe7594611a2f2bc720228d","61fd91aae15db0e669cef471","","","","","<p style=""color:darkgreen;font-size:24px;"">Correct :)</p>","",""
"2588","key","n","n","16.662337662337663","500","250","psychophysics","115","683533","0.0-115.0","60fe7594611a2f2bc720228d","61fd91aae15db0e669cef471","4","","","","","1","7"
"null","","","null","","","","html-keyboard-response","116","684035","0.0-116.0","60fe7594611a2f2bc720228d","61fd91aae15db0e669cef471","","","","","<p style=""color:darkgreen;font-size:24px;"">Correct :)</p>","",""
"2452","key","n","n","16.671232876712327","500","250","psychophysics","117","686491","0.0-117.0","60fe7594611a2f2bc720228d","61fd91aae15db0e669cef471","4","","","","","1","8"
"null","","","null","","","","html-keyboard-response","118","686993","0.0-118.0","60fe7594611a2f2bc720228d","61fd91aae15db0e669cef471","","","","","<p style=""color:darkgreen;font-size:24px;"">Correct :)</p>","",""
"2418","key","v","v","16.666666666666668","500","250","psychophysics","119","689414","0.0-119.0","60fe7594611a2f2bc720228d","61fd91aae15db0e669cef471","4","","","","","1","1"
"null","","","null","","","","html-keyboard-response","120","689916","0.0-120.0","60fe7594611a2f2bc720228d","61fd91aae15db0e669cef471","","","","","<p style=""color:darkgreen;font-size:24px;"">Correct :)</p>","",""
"2436","key","n","n","16.662068965517243","500","250","psychophysics","121","692355","0.0-121.0","60fe7594611a2f2bc720228d","61fd91aae15db0e669cef471","4","","","","","1","9"
"null","","","null","","","","html-keyboard-response","122","692857","0.0-122.0","60fe7594611a2f2bc720228d","61fd91aae15db0e669cef471","","","","","<p style=""color:darkgreen;font-size:24px;"">Correct :)</p>","",""
"2991","key","n","n","16.664804469273744","500","250","psychophysics","123","695855","0.0-123.0","60fe7594611a2f2bc720228d","61fd91aae15db0e669cef471","4","","","","","1","6"
"null","","","null","","","","html-keyboard-response","124","696357","0.0-124.0","60fe7594611a2f2bc720228d","61fd91aae15db0e669cef471","","","","","<p style=""color:darkgreen;font-size:24px;"">Correct :)</p>","",""
"2501","key","n","n","16.66","500","250","psychophysics","125","698863","0.0-125.0","60fe7594611a2f2bc720228d","61fd91aae15db0e669cef471","4","","","","","1","6"
"null","","","null","","","","html-keyboard-response","126","699366","0.0-126.0","60fe7594611a2f2bc720228d","61fd91aae15db0e669cef471","","","","","<p style=""color:darkgreen;font-size:24px;"">Correct :)</p>","",""
"2465","key","v","v","16.653061224489797","500","250","psychophysics","127","701833","0.0-127.0","60fe7594611a2f2bc720228d","61fd91aae15db0e669cef471","4","","","","","1","1"
"null","","","null","","","","html-keyboard-response","128","702334","0.0-128.0","60fe7594611a2f2bc720228d","61fd91aae15db0e669cef471","","","","","<p style=""color:darkgreen;font-size:24px;"">Correct :)</p>","",""
"3572","key","v","v","16.666666666666668","500","250","psychophysics","129","705909","0.0-129.0","60fe7594611a2f2bc720228d","61fd91aae15db0e669cef471","4","","","","","1","4"
"null","","","null","","","","html-keyboard-response","130","706411","0.0-130.0","60fe7594611a2f2bc720228d","61fd91aae15db0e669cef471","","","","","<p style=""color:darkgreen;font-size:24px;"">Correct :)</p>","",""
"2445","key","n","n","16.655172413793103","500","250","psychophysics","131","708860","0.0-131.0","60fe7594611a2f2bc720228d","61fd91aae15db0e669cef471","4","","","","","1","9"
"null","","","null","","","","html-keyboard-response","132","709362","0.0-132.0","60fe7594611a2f2bc720228d","61fd91aae15db0e669cef471","","","","","<p style=""color:darkgreen;font-size:24px;"">Correct :)</p>","",""
"2511","key","n","n","16.664429530201343","500","250","psychophysics","133","711876","0.0-133.0","60fe7594611a2f2bc720228d","61fd91aae15db0e669cef471","4","","","","","1","7"
"null","","","null","","","","html-keyboard-response","134","712378","0.0-134.0","60fe7594611a2f2bc720228d","61fd91aae15db0e669cef471","","","","","<p style=""color:darkgreen;font-size:24px;"">Correct :)</p>","",""
"2576","key","n","n","16.66013071895425","500","250","psychophysics","135","714957","0.0-135.0","60fe7594611a2f2bc720228d","61fd91aae15db0e669cef471","4","","","","","1","7"
"null","","","null","","","","html-keyboard-response","136","715458","0.0-136.0","60fe7594611a2f2bc720228d","61fd91aae15db0e669cef471","","","","","<p style=""color:darkgreen;font-size:24px;"">Correct :)</p>","",""
"2595","key","v","v","16.66883116883117","500","250","psychophysics","137","718057","0.0-137.0","60fe7594611a2f2bc720228d","61fd91aae15db0e669cef471","4","","","","","1","2"
"null","","","null","","","","html-keyboard-response","138","718559","0.0-138.0","60fe7594611a2f2bc720228d","61fd91aae15db0e669cef471","","","","","<p style=""color:darkgreen;font-size:24px;"">Correct :)</p>","",""
"2461","key","n","n","16.671232876712327","500","250","psychophysics","139","721023","0.0-139.0","60fe7594611a2f2bc720228d","61fd91aae15db0e669cef471","4","","","","","1","8"
"null","","","null","","","","html-keyboard-response","140","721525","0.0-140.0","60fe7594611a2f2bc720228d","61fd91aae15db0e669cef471","","","","","<p style=""color:darkgreen;font-size:24px;"">Correct :)</p>","",""
"2453","key","v","v","16.664383561643834","500","250","psychophysics","141","723980","0.0-141.0","60fe7594611a2f2bc720228d","61fd91aae15db0e669cef471","4","","","","","1","3"
"null","","","null","","","","html-keyboard-response","142","724483","0.0-142.0","60fe7594611a2f2bc720228d","61fd91aae15db0e669cef471","","","","","<p style=""color:darkgreen;font-size:24px;"">Correct :)</p>","",""
"2531","key","v","v","16.66887417218543","500","250","psychophysics","143","727018","0.0-143.0","60fe7594611a2f2bc720228d","61fd91aae15db0e669cef471","4","","","","","1","3"
"null","","","null","","","","html-keyboard-response","144","727519","0.0-144.0","60fe7594611a2f2bc720228d","61fd91aae15db0e669cef471","","","","","<p style=""color:darkgreen;font-size:24px;"">Correct :)</p>","",""
"2553","key","n","n","16.657894736842106","500","250","psychophysics","145","730077","0.0-145.0","60fe7594611a2f2bc720228d","61fd91aae15db0e669cef471","4","","","","","1","9"
"null","","","null","","","","html-keyboard-response","146","730578","0.0-146.0","60fe7594611a2f2bc720228d","61fd91aae15db0e669cef471","","","","","<p style=""color:darkgreen;font-size:24px;"">Correct :)</p>","",""
"2508","key","n","n","16.65771812080537","500","250","psychophysics","147","733089","0.0-147.0","60fe7594611a2f2bc720228d","61fd91aae15db0e669cef471","4","","","","","1","7"
"null","","","null","","","","html-keyboard-response","148","733591","0.0-148.0","60fe7594611a2f2bc720228d","61fd91aae15db0e669cef471","","","","","<p style=""color:darkgreen;font-size:24px;"">Correct :)</p>","",""
"2549","key","v","v","16.67105263157895","500","250","psychophysics","149","736142","0.0-149.0","60fe7594611a2f2bc720228d","61fd91aae15db0e669cef471","4","","","","","1","4"
"null","","","null","","","","html-keyboard-response","150","736643","0.0-150.0","60fe7594611a2f2bc720228d","61fd91aae15db0e669cef471","","","","","<p style=""color:darkgreen;font-size:24px;"">Correct :)</p>","",""
"2427","key","n","n","16.65277777777778","500","250","psychophysics","151","739073","0.0-151.0","60fe7594611a2f2bc720228d","61fd91aae15db0e669cef471","4","","","","","1","6"
"null","","","null","","","","html-keyboard-response","152","739575","0.0-152.0","60fe7594611a2f2bc720228d","61fd91aae15db0e669cef471","","","","","<p style=""color:darkgreen;font-size:24px;"">Correct :)</p>","",""
"2486","key","n","n","16.66216216216216","500","250","psychophysics","153","742065","0.0-153.0","60fe7594611a2f2bc720228d","61fd91aae15db0e669cef471","4","","","","","1","9"
"null","","","null","","","","html-keyboard-response","154","742568","0.0-154.0","60fe7594611a2f2bc720228d","61fd91aae15db0e669cef471","","","","","<p style=""color:darkgreen;font-size:24px;"">Correct :)</p>","",""
"2574","key","n","n","16.655844155844157","500","250","psychophysics","155","745146","0.0-155.0","60fe7594611a2f2bc720228d","61fd91aae15db0e669cef471","4","","","","","1","6"
"null","","","null","","","","html-keyboard-response","156","745649","0.0-156.0","60fe7594611a2f2bc720228d","61fd91aae15db0e669cef471","","","","","<p style=""color:darkgreen;font-size:24px;"">Correct :)</p>","",""
"2577","key","v","v","16.666666666666668","500","250","psychophysics","157","748228","0.0-157.0","60fe7594611a2f2bc720228d","61fd91aae15db0e669cef471","4","","","","","1","2"
"null","","","null","","","","html-keyboard-response","158","748731","0.0-158.0","60fe7594611a2f2bc720228d","61fd91aae15db0e669cef471","","","","","<p style=""color:darkgreen;font-size:24px;"">Correct :)</p>","",""
"2388","key","n","n","16.654929577464788","500","250","psychophysics","159","751121","0.0-159.0","60fe7594611a2f2bc720228d","61fd91aae15db0e669cef471","4","","","","","1","8"
"null","","","null","","","","html-keyboard-response","160","751623","0.0-160.0","60fe7594611a2f2bc720228d","61fd91aae15db0e669cef471","","","","","<p style=""color:darkgreen;font-size:24px;"">Correct :)</p>","",""
"2415","key","v","v","16.67361111111111","500","250","psychophysics","161","754041","0.0-161.0","60fe7594611a2f2bc720228d","61fd91aae15db0e669cef471","4","","","","","1","1"
"null","","","null","","","","html-keyboard-response","162","754543","0.0-162.0","60fe7594611a2f2bc720228d","61fd91aae15db0e669cef471","","","","","<p style=""color:darkgreen;font-size:24px;"">Correct :)</p>","",""
"2419","key","n","n","16.65972222222222","500","250","psychophysics","163","756967","0.0-163.0","60fe7594611a2f2bc720228d","61fd91aae15db0e669cef471","4","","","","","1","6"
"null","","","null","","","","html-keyboard-response","164","757469","0.0-164.0","60fe7594611a2f2bc720228d","61fd91aae15db0e669cef471","","","","","<p style=""color:darkgreen;font-size:24px;"">Correct :)</p>","",""
"2453","key","n","n","16.65753424657534","500","250","psychophysics","165","759927","0.0-165.0","60fe7594611a2f2bc720228d","61fd91aae15db0e669cef471","4","","","","","1","9"
"null","","","null","","","","html-keyboard-response","166","760430","0.0-166.0","60fe7594611a2f2bc720228d","61fd91aae15db0e669cef471","","","","","<p style=""color:darkgreen;font-size:24px;"">Correct :)</p>","",""
"2481","key","v","v","16.66216216216216","500","250","psychophysics","167","762913","0.0-167.0","60fe7594611a2f2bc720228d","61fd91aae15db0e669cef471","4","","","","","1","2"
"null","","","null","","","","html-keyboard-response","168","763416","0.0-168.0","60fe7594611a2f2bc720228d","61fd91aae15db0e669cef471","","","","","<p style=""color:darkgreen;font-size:24px;"">Correct :)</p>","",""
"2391","key","n","n","16.661971830985916","500","250","psychophysics","169","765809","0.0-169.0","60fe7594611a2f2bc720228d","61fd91aae15db0e669cef471","4","","","","","1","9"
"null","","","null","","","","html-keyboard-response","170","766311","0.0-170.0","60fe7594611a2f2bc720228d","61fd91aae15db0e669cef471","","","","","<p style=""color:darkgreen;font-size:24px;"">Correct :)</p>","",""
"2425","key","n","n","16.666666666666668","500","250","psychophysics","171","768739","0.0-171.0","60fe7594611a2f2bc720228d","61fd91aae15db0e669cef471","4","","","","","1","6"
"null","","","null","","","","html-keyboard-response","172","769241","0.0-172.0","60fe7594611a2f2bc720228d","61fd91aae15db0e669cef471","","","","","<p style=""color:darkgreen;font-size:24px;"">Correct :)</p>","",""
"2424","key","n","n","16.662068965517243","500","250","psychophysics","173","771672","0.0-173.0","60fe7594611a2f2bc720228d","61fd91aae15db0e669cef471","4","","","","","1","6"
"null","","","null","","","","html-keyboard-response","174","772175","0.0-174.0","60fe7594611a2f2bc720228d","61fd91aae15db0e669cef471","","","","","<p style=""color:darkgreen;font-size:24px;"">Correct :)</p>","",""
"2535","key","v","v","16.664473684210527","500","250","psychophysics","175","774714","0.0-175.0","60fe7594611a2f2bc720228d","61fd91aae15db0e669cef471","4","","","","","1","4"
"null","","","null","","","","html-keyboard-response","176","775216","0.0-176.0","60fe7594611a2f2bc720228d","61fd91aae15db0e669cef471","","","","","<p style=""color:darkgreen;font-size:24px;"">Correct :)</p>","",""
"2519","key","n","n","16.66","500","250","psychophysics","177","777738","0.0-177.0","60fe7594611a2f2bc720228d","61fd91aae15db0e669cef471","4","","","","","1","7"
"null","","","null","","","","html-keyboard-response","178","778239","0.0-178.0","60fe7594611a2f2bc720228d","61fd91aae15db0e669cef471","","","","","<p style=""color:darkgreen;font-size:24px;"">Correct :)</p>","",""
"2428","key","v","v","16.675862068965518","500","250","psychophysics","179","780670","0.0-179.0","60fe7594611a2f2bc720228d","61fd91aae15db0e669cef471","4","","","","","1","1"
"null","","","null","","","","html-keyboard-response","180","781172","0.0-180.0","60fe7594611a2f2bc720228d","61fd91aae15db0e669cef471","","","","","<p style=""color:darkgreen;font-size:24px;"">Correct :)</p>","",""
"2513","key","n","n","16.673333333333332","500","250","psychophysics","181","783688","0.0-181.0","60fe7594611a2f2bc720228d","61fd91aae15db0e669cef471","4","","","","","1","6"
"null","","","null","","","","html-keyboard-response","182","784189","0.0-182.0","60fe7594611a2f2bc720228d","61fd91aae15db0e669cef471","","","","","<p style=""color:darkgreen;font-size:24px;"">Correct :)</p>","",""
"2473","key","n","n","16.66891891891892","500","250","psychophysics","183","786665","0.0-183.0","60fe7594611a2f2bc720228d","61fd91aae15db0e669cef471","4","","","","","1","9"
"null","","","null","","","","html-keyboard-response","184","787167","0.0-184.0","60fe7594611a2f2bc720228d","61fd91aae15db0e669cef471","","","","","<p style=""color:darkgreen;font-size:24px;"">Correct :)</p>","",""
"2479","key","n","n","16.66216216216216","500","250","psychophysics","185","789651","0.0-185.0","60fe7594611a2f2bc720228d","61fd91aae15db0e669cef471","4","","","","","1","6"
"null","","","null","","","","html-keyboard-response","186","790152","0.0-186.0","60fe7594611a2f2bc720228d","61fd91aae15db0e669cef471","","","","","<p style=""color:darkgreen;font-size:24px;"">Correct :)</p>","",""
"2382","key","n","n","16.661971830985916","500","250","psychophysics","187","792539","0.0-187.0","60fe7594611a2f2bc720228d","61fd91aae15db0e669cef471","4","","","","","1","6"
"null","","","null","","","","html-keyboard-response","188","793041","0.0-188.0","60fe7594611a2f2bc720228d","61fd91aae15db0e669cef471","","","","","<p style=""color:darkgreen;font-size:24px;"">Correct :)</p>","",""
"25780","","","v","","","","html-keyboard-response","189","818823","0.0-189.0","60fe7594611a2f2bc720228d","61fd91aae15db0e669cef471","","","","","<p> Ok, now we are going present the same digits as before.  Your job is to say whether the digit is even or odd  If the digit is odd, press to v key; if it is even, press the n key. We are going to do 50 of these.  </p>  <br><br>  Ready? (press v or n)","",""
"2785","key","v","v","16.66867469879518","500","250","psychophysics","190","821613","0.0-190.0","60fe7594611a2f2bc720228d","61fd91aae15db0e669cef471","5","","","","","0","4"
"null","","","null","","","","html-keyboard-response","191","822114","0.0-191.0","60fe7594611a2f2bc720228d","61fd91aae15db0e669cef471","","","","","<p style=""color:red;font-size:24px;"">Error :(</p>","",""
"2433","key","n","n","16.662068965517243","500","250","psychophysics","192","824550","0.0-192.0","60fe7594611a2f2bc720228d","61fd91aae15db0e669cef471","5","","","","","0","8"
"null","","","null","","","","html-keyboard-response","193","825051","0.0-193.0","60fe7594611a2f2bc720228d","61fd91aae15db0e669cef471","","","","","<p style=""color:darkgreen;font-size:24px;"">Correct :)</p>","",""
"2458","key","n","n","16.65753424657534","500","250","psychophysics","194","827512","0.0-194.0","60fe7594611a2f2bc720228d","61fd91aae15db0e669cef471","5","","","","","0","8"
"null","","","null","","","","html-keyboard-response","195","828014","0.0-195.0","60fe7594611a2f2bc720228d","61fd91aae15db0e669cef471","","","","","<p style=""color:darkgreen;font-size:24px;"">Correct :)</p>","",""
"2450","key","n","n","16.664383561643834","500","250","psychophysics","196","830468","0.0-196.0","60fe7594611a2f2bc720228d","61fd91aae15db0e669cef471","5","","","","","0","8"
"null","","","null","","","","html-keyboard-response","197","830970","0.0-197.0","60fe7594611a2f2bc720228d","61fd91aae15db0e669cef471","","","","","<p style=""color:darkgreen;font-size:24px;"">Correct :)</p>","",""
"2379","key","v","v","16.661971830985916","500","250","psychophysics","198","833351","0.0-198.0","60fe7594611a2f2bc720228d","61fd91aae15db0e669cef471","5","","","","","0","7"
"null","","","null","","","","html-keyboard-response","199","833854","0.0-199.0","60fe7594611a2f2bc720228d","61fd91aae15db0e669cef471","","","","","<p style=""color:darkgreen;font-size:24px;"">Correct :)</p>","",""
"2443","key","v","v","16.671232876712327","500","250","psychophysics","200","836300","0.0-200.0","60fe7594611a2f2bc720228d","61fd91aae15db0e669cef471","5","","","","","0","1"
"null","","","null","","","","html-keyboard-response","201","836802","0.0-201.0","60fe7594611a2f2bc720228d","61fd91aae15db0e669cef471","","","","","<p style=""color:darkgreen;font-size:24px;"">Correct :)</p>","",""
"2597","key","v","v","16.664516129032258","500","250","psychophysics","202","839402","0.0-202.0","60fe7594611a2f2bc720228d","61fd91aae15db0e669cef471","5","","","","","0","7"
"null","","","null","","","","html-keyboard-response","203","839905","0.0-203.0","60fe7594611a2f2bc720228d","61fd91aae15db0e669cef471","","","","","<p style=""color:darkgreen;font-size:24px;"">Correct :)</p>","",""
"2704","key","v","v","16.67080745341615","500","250","psychophysics","204","842612","0.0-204.0","60fe7594611a2f2bc720228d","61fd91aae15db0e669cef471","5","","","","","0","9"
"null","","","null","","","","html-keyboard-response","205","843113","0.0-205.0","60fe7594611a2f2bc720228d","61fd91aae15db0e669cef471","","","","","<p style=""color:darkgreen;font-size:24px;"">Correct :)</p>","",""
"2461","key","n","n","16.664383561643834","500","250","psychophysics","206","845578","0.0-206.0","60fe7594611a2f2bc720228d","61fd91aae15db0e669cef471","5","","","","","0","2"
"null","","","null","","","","html-keyboard-response","207","846080","0.0-207.0","60fe7594611a2f2bc720228d","61fd91aae15db0e669cef471","","","","","<p style=""color:darkgreen;font-size:24px;"">Correct :)</p>","",""
"2715","key","v","v","16.660493827160494","500","250","psychophysics","208","848798","0.0-208.0","60fe7594611a2f2bc720228d","61fd91aae15db0e669cef471","5","","","","","0","9"
"null","","","null","","","","html-keyboard-response","209","849300","0.0-209.0","60fe7594611a2f2bc720228d","61fd91aae15db0e669cef471","","","","","<p style=""color:darkgreen;font-size:24px;"">Correct :)</p>","",""
"2552","key","v","v","16.67105263157895","500","250","psychophysics","210","851855","0.0-210.0","60fe7594611a2f2bc720228d","61fd91aae15db0e669cef471","5","","","","","0","7"
"null","","","null","","","","html-keyboard-response","211","852357","0.0-211.0","60fe7594611a2f2bc720228d","61fd91aae15db0e669cef471","","","","","<p style=""color:darkgreen;font-size:24px;"">Correct :)</p>","",""
"2633","key","v","v","16.668789808917197","500","250","psychophysics","212","854994","0.0-212.0","60fe7594611a2f2bc720228d","61fd91aae15db0e669cef471","5","","","","","0","9"
"null","","","null","","","","html-keyboard-response","213","855497","0.0-213.0","60fe7594611a2f2bc720228d","61fd91aae15db0e669cef471","","","","","<p style=""color:darkgreen;font-size:24px;"">Correct :)</p>","",""
"2737","key","v","v","16.66871165644172","500","250","psychophysics","214","858238","0.0-214.0","60fe7594611a2f2bc720228d","61fd91aae15db0e669cef471","5","","","","","0","9"
"null","","","null","","","","html-keyboard-response","215","858740","0.0-215.0","60fe7594611a2f2bc720228d","61fd91aae15db0e669cef471","","","","","<p style=""color:darkgreen;font-size:24px;"">Correct :)</p>","",""
"2572","key","n","n","16.66883116883117","500","250","psychophysics","216","861315","0.0-216.0","60fe7594611a2f2bc720228d","61fd91aae15db0e669cef471","5","","","","","0","6"
"null","","","null","","","","html-keyboard-response","217","861818","0.0-217.0","60fe7594611a2f2bc720228d","61fd91aae15db0e669cef471","","","","","<p style=""color:darkgreen;font-size:24px;"">Correct :)</p>","",""
"2485","key","v","v","16.66216216216216","500","250","psychophysics","218","864306","0.0-218.0","60fe7594611a2f2bc720228d","61fd91aae15db0e669cef471","5","","","","","0","1"
"null","","","null","","","","html-keyboard-response","219","864807","0.0-219.0","60fe7594611a2f2bc720228d","61fd91aae15db0e669cef471","","","","","<p style=""color:darkgreen;font-size:24px;"">Correct :)</p>","",""
"2442","key","n","n","16.664383561643834","500","250","psychophysics","220","867253","0.0-220.0","60fe7594611a2f2bc720228d","61fd91aae15db0e669cef471","5","","","","","0","2"
"null","","","null","","","","html-keyboard-response","221","867755","0.0-221.0","60fe7594611a2f2bc720228d","61fd91aae15db0e669cef471","","","","","<p style=""color:darkgreen;font-size:24px;"">Correct :)</p>","",""
"2444","key","v","v","16.664383561643834","500","250","psychophysics","222","870204","0.0-222.0","60fe7594611a2f2bc720228d","61fd91aae15db0e669cef471","5","","","","","0","1"
"null","","","null","","","","html-keyboard-response","223","870706","0.0-223.0","60fe7594611a2f2bc720228d","61fd91aae15db0e669cef471","","","","","<p style=""color:darkgreen;font-size:24px;"">Correct :)</p>","",""
"2565","key","n","n","16.666666666666668","500","250","psychophysics","224","873274","0.0-224.0","60fe7594611a2f2bc720228d","61fd91aae15db0e669cef471","5","","","","","0","7"
"null","","","null","","","","html-keyboard-response","225","873776","0.0-225.0","60fe7594611a2f2bc720228d","61fd91aae15db0e669cef471","","","","","<p style=""color:red;font-size:24px;"">Error :(</p>","",""
"2458","key","v","v","16.666666666666668","500","250","psychophysics","226","876238","0.0-226.0","60fe7594611a2f2bc720228d","61fd91aae15db0e669cef471","5","","","","","0","2"
"null","","","null","","","","html-keyboard-response","227","876739","0.0-227.0","60fe7594611a2f2bc720228d","61fd91aae15db0e669cef471","","","","","<p style=""color:red;font-size:24px;"">Error :(</p>","",""
"2894","key","v","v","16.670520231213874","500","250","psychophysics","228","879638","0.0-228.0","60fe7594611a2f2bc720228d","61fd91aae15db0e669cef471","5","","","","","0","7"
"null","","","null","","","","html-keyboard-response","229","880140","0.0-229.0","60fe7594611a2f2bc720228d","61fd91aae15db0e669cef471","","","","","<p style=""color:darkgreen;font-size:24px;"">Correct :)</p>","",""
"2525","key","v","v","16.66887417218543","500","250","psychophysics","230","882670","0.0-230.0","60fe7594611a2f2bc720228d","61fd91aae15db0e669cef471","5","","","","","0","1"
"null","","","null","","","","html-keyboard-response","231","883171","0.0-231.0","60fe7594611a2f2bc720228d","61fd91aae15db0e669cef471","","","","","<p style=""color:darkgreen;font-size:24px;"">Correct :)</p>","",""
"2633","key","n","n","16.662420382165607","500","250","psychophysics","232","885807","0.0-232.0","60fe7594611a2f2bc720228d","61fd91aae15db0e669cef471","5","","","","","0","6"
"null","","","null","","","","html-keyboard-response","233","886308","0.0-233.0","60fe7594611a2f2bc720228d","61fd91aae15db0e669cef471","","","","","<p style=""color:darkgreen;font-size:24px;"">Correct :)</p>","",""
"2596","key","n","n","16.664516129032258","500","250","psychophysics","234","888906","0.0-234.0","60fe7594611a2f2bc720228d","61fd91aae15db0e669cef471","5","","","","","0","8"
"null","","","null","","","","html-keyboard-response","235","889408","0.0-235.0","60fe7594611a2f2bc720228d","61fd91aae15db0e669cef471","","","","","<p style=""color:darkgreen;font-size:24px;"">Correct :)</p>","",""
"2668","key","v","v","16.666666666666668","500","250","psychophysics","236","892079","0.0-236.0","60fe7594611a2f2bc720228d","61fd91aae15db0e669cef471","5","","","","","0","3"
"null","","","null","","","","html-keyboard-response","237","892581","0.0-237.0","60fe7594611a2f2bc720228d","61fd91aae15db0e669cef471","","","","","<p style=""color:darkgreen;font-size:24px;"">Correct :)</p>","",""
"4464","key","n","n","16.662921348314608","500","250","psychophysics","238","897049","0.0-238.0","60fe7594611a2f2bc720228d","61fd91aae15db0e669cef471","5","","","","","0","2"
"null","","","null","","","","html-keyboard-response","239","897551","0.0-239.0","60fe7594611a2f2bc720228d","61fd91aae15db0e669cef471","","","","","<p style=""color:darkgreen;font-size:24px;"">Correct :)</p>","",""
"2608","key","n","n","16.664516129032258","500","250","psychophysics","240","900164","0.0-240.0","60fe7594611a2f2bc720228d","61fd91aae15db0e669cef471","5","","","","","0","8"
"null","","","null","","","","html-keyboard-response","241","900665","0.0-241.0","60fe7594611a2f2bc720228d","61fd91aae15db0e669cef471","","","","","<p style=""color:darkgreen;font-size:24px;"">Correct :)</p>","",""
"2510","key","v","v","16.664429530201343","500","250","psychophysics","242","903177","0.0-242.0","60fe7594611a2f2bc720228d","61fd91aae15db0e669cef471","5","","","","","0","3"
"null","","","null","","","","html-keyboard-response","243","903678","0.0-243.0","60fe7594611a2f2bc720228d","61fd91aae15db0e669cef471","","","","","<p style=""color:darkgreen;font-size:24px;"">Correct :)</p>","",""
"2465","key","n","n","16.664383561643834","500","250","psychophysics","244","906146","0.0-244.0","60fe7594611a2f2bc720228d","61fd91aae15db0e669cef471","5","","","","","0","8"
"null","","","null","","","","html-keyboard-response","245","906648","0.0-245.0","60fe7594611a2f2bc720228d","61fd91aae15db0e669cef471","","","","","<p style=""color:darkgreen;font-size:24px;"">Correct :)</p>","",""
"2521","key","v","v","16.673333333333332","500","250","psychophysics","246","909172","0.0-246.0","60fe7594611a2f2bc720228d","61fd91aae15db0e669cef471","5","","","","","0","9"
"null","","","null","","","","html-keyboard-response","247","909674","0.0-247.0","60fe7594611a2f2bc720228d","61fd91aae15db0e669cef471","","","","","<p style=""color:darkgreen;font-size:24px;"">Correct :)</p>","",""
"2515","key","n","n","16.666666666666668","500","250","psychophysics","248","912193","0.0-248.0","60fe7594611a2f2bc720228d","61fd91aae15db0e669cef471","5","","","","","0","6"
"null","","","null","","","","html-keyboard-response","249","912695","0.0-249.0","60fe7594611a2f2bc720228d","61fd91aae15db0e669cef471","","","","","<p style=""color:darkgreen;font-size:24px;"">Correct :)</p>","",""
"2529","key","v","v","16.66","500","250","psychophysics","250","915228","0.0-250.0","60fe7594611a2f2bc720228d","61fd91aae15db0e669cef471","5","","","","","0","9"
"null","","","null","","","","html-keyboard-response","251","915729","0.0-251.0","60fe7594611a2f2bc720228d","61fd91aae15db0e669cef471","","","","","<p style=""color:darkgreen;font-size:24px;"">Correct :)</p>","",""
"956","key","n","n","16.642857142857142","500","250","psychophysics","252","916688","0.0-252.0","60fe7594611a2f2bc720228d","61fd91aae15db0e669cef471","5","","","","","0","2"
"null","","","null","","","","html-keyboard-response","253","917190","0.0-253.0","60fe7594611a2f2bc720228d","61fd91aae15db0e669cef471","","","","","<p style=""color:darkgreen;font-size:24px;"">Correct :)</p>","",""
"2581","key","v","v","16.655844155844157","500","250","psychophysics","254","919775","0.0-254.0","60fe7594611a2f2bc720228d","61fd91aae15db0e669cef471","5","","","","","0","9"
"null","","","null","","","","html-keyboard-response","255","920277","0.0-255.0","60fe7594611a2f2bc720228d","61fd91aae15db0e669cef471","","","","","<p style=""color:darkgreen;font-size:24px;"">Correct :)</p>","",""
"2640","key","n","n","16.670886075949365","500","250","psychophysics","256","922920","0.0-256.0","60fe7594611a2f2bc720228d","61fd91aae15db0e669cef471","5","","","","","0","8"
"null","","","null","","","","html-keyboard-response","257","923421","0.0-257.0","60fe7594611a2f2bc720228d","61fd91aae15db0e669cef471","","","","","<p style=""color:darkgreen;font-size:24px;"">Correct :)</p>","",""
"2826","key","n","n","16.662721893491124","500","250","psychophysics","258","926249","0.0-258.0","60fe7594611a2f2bc720228d","61fd91aae15db0e669cef471","5","","","","","0","6"
"null","","","null","","","","html-keyboard-response","259","926751","0.0-259.0","60fe7594611a2f2bc720228d","61fd91aae15db0e669cef471","","","","","<p style=""color:darkgreen;font-size:24px;"">Correct :)</p>","",""
"2903","key","n","n","16.664739884393065","500","250","psychophysics","260","929656","0.0-260.0","60fe7594611a2f2bc720228d","61fd91aae15db0e669cef471","5","","","","","0","4"
"null","","","null","","","","html-keyboard-response","261","930158","0.0-261.0","60fe7594611a2f2bc720228d","61fd91aae15db0e669cef471","","","","","<p style=""color:darkgreen;font-size:24px;"">Correct :)</p>","",""
"1636","key","n","n","16.670103092783506","500","250","psychophysics","262","931796","0.0-262.0","60fe7594611a2f2bc720228d","61fd91aae15db0e669cef471","5","","","","","0","2"
"null","","","null","","","","html-keyboard-response","263","932298","0.0-263.0","60fe7594611a2f2bc720228d","61fd91aae15db0e669cef471","","","","","<p style=""color:darkgreen;font-size:24px;"">Correct :)</p>","",""
"2629","key","n","n","16.666666666666668","500","250","psychophysics","264","934930","0.0-264.0","60fe7594611a2f2bc720228d","61fd91aae15db0e669cef471","5","","","","","0","4"
"null","","","null","","","","html-keyboard-response","265","935433","0.0-265.0","60fe7594611a2f2bc720228d","61fd91aae15db0e669cef471","","","","","<p style=""color:darkgreen;font-size:24px;"">Correct :)</p>","",""
"2617","key","n","n","16.66025641025641","500","250","psychophysics","266","938055","0.0-266.0","60fe7594611a2f2bc720228d","61fd91aae15db0e669cef471","5","","","","","0","4"
"null","","","null","","","","html-keyboard-response","267","938557","0.0-267.0","60fe7594611a2f2bc720228d","61fd91aae15db0e669cef471","","","","","<p style=""color:darkgreen;font-size:24px;"">Correct :)</p>","",""
"2868","key","n","n","16.666666666666668","500","250","psychophysics","268","941427","0.0-268.0","60fe7594611a2f2bc720228d","61fd91aae15db0e669cef471","5","","","","","0","6"
"null","","","null","","","","html-keyboard-response","269","941929","0.0-269.0","60fe7594611a2f2bc720228d","61fd91aae15db0e669cef471","","","","","<p style=""color:darkgreen;font-size:24px;"">Correct :)</p>","",""
"2599","key","n","n","16.662337662337663","500","250","psychophysics","270","944531","0.0-270.0","60fe7594611a2f2bc720228d","61fd91aae15db0e669cef471","5","","","","","0","6"
"null","","","null","","","","html-keyboard-response","271","945032","0.0-271.0","60fe7594611a2f2bc720228d","61fd91aae15db0e669cef471","","","","","<p style=""color:darkgreen;font-size:24px;"">Correct :)</p>","",""
"2474","key","n","n","16.65986394557823","500","250","psychophysics","272","947508","0.0-272.0","60fe7594611a2f2bc720228d","61fd91aae15db0e669cef471","5","","","","","0","6"
"null","","","null","","","","html-keyboard-response","273","948009","0.0-273.0","60fe7594611a2f2bc720228d","61fd91aae15db0e669cef471","","","","","<p style=""color:darkgreen;font-size:24px;"">Correct :)</p>","",""
"2513","key","v","v","16.666666666666668","500","250","psychophysics","274","950527","0.0-274.0","60fe7594611a2f2bc720228d","61fd91aae15db0e669cef471","5","","","","","0","1"
"null","","","null","","","","html-keyboard-response","275","951029","0.0-275.0","60fe7594611a2f2bc720228d","61fd91aae15db0e669cef471","","","","","<p style=""color:darkgreen;font-size:24px;"">Correct :)</p>","",""
"2600","key","n","n","16.65806451612903","500","250","psychophysics","276","953634","0.0-276.0","60fe7594611a2f2bc720228d","61fd91aae15db0e669cef471","5","","","","","0","4"
"null","","","null","","","","html-keyboard-response","277","954136","0.0-277.0","60fe7594611a2f2bc720228d","61fd91aae15db0e669cef471","","","","","<p style=""color:darkgreen;font-size:24px;"">Correct :)</p>","",""
"2498","key","n","n","16.664429530201343","500","250","psychophysics","278","956636","0.0-278.0","60fe7594611a2f2bc720228d","61fd91aae15db0e669cef471","5","","","","","0","8"
"null","","","null","","","","html-keyboard-response","279","957138","0.0-279.0","60fe7594611a2f2bc720228d","61fd91aae15db0e669cef471","","","","","<p style=""color:darkgreen;font-size:24px;"">Correct :)</p>","",""
"2599","key","v","v","16.65806451612903","500","250","psychophysics","280","959740","0.0-280.0","60fe7594611a2f2bc720228d","61fd91aae15db0e669cef471","5","","","","","0","3"
"null","","","null","","","","html-keyboard-response","281","960241","0.0-281.0","60fe7594611a2f2bc720228d","61fd91aae15db0e669cef471","","","","","<p style=""color:darkgreen;font-size:24px;"">Correct :)</p>","",""
"2514","key","n","n","16.666666666666668","500","250","psychophysics","282","962760","0.0-282.0","60fe7594611a2f2bc720228d","61fd91aae15db0e669cef471","5","","","","","0","2"
"null","","","null","","","","html-keyboard-response","283","963262","0.0-283.0","60fe7594611a2f2bc720228d","61fd91aae15db0e669cef471","","","","","<p style=""color:darkgreen;font-size:24px;"">Correct :)</p>","",""
"2478","key","v","v","16.6734693877551","500","250","psychophysics","284","965744","0.0-284.0","60fe7594611a2f2bc720228d","61fd91aae15db0e669cef471","5","","","","","0","2"
"null","","","null","","","","html-keyboard-response","285","966246","0.0-285.0","60fe7594611a2f2bc720228d","61fd91aae15db0e669cef471","","","","","<p style=""color:red;font-size:24px;"">Error :(</p>","",""
"2495","key","v","v","16.675675675675677","500","250","psychophysics","286","968743","0.0-286.0","60fe7594611a2f2bc720228d","61fd91aae15db0e669cef471","5","","","","","0","1"
"null","","","null","","","","html-keyboard-response","287","969245","0.0-287.0","60fe7594611a2f2bc720228d","61fd91aae15db0e669cef471","","","","","<p style=""color:darkgreen;font-size:24px;"">Correct :)</p>","",""
"2420","key","v","v","16.67361111111111","500","250","psychophysics","288","971668","0.0-288.0","60fe7594611a2f2bc720228d","61fd91aae15db0e669cef471","5","","","","","0","7"
"null","","","null","","","","html-keyboard-response","289","972170","0.0-289.0","60fe7594611a2f2bc720228d","61fd91aae15db0e669cef471","","","","","<p style=""color:darkgreen;font-size:24px;"">Correct :)</p>","",""
"44150","","","n","","","","html-keyboard-response","290","1016322","0.0-290.0","60fe7594611a2f2bc720228d","61fd91aae15db0e669cef471","","","","","<p> Here, the tasks are going to switch.  For some trials, your job is to decide if the digit is less than or greater than 5.  For others, it is to decide if the digit is even or odd.  You will be told which type of trial the current one is.  But, pay attention, the type of trial changes too.  We are going to do 50 of these.  </p>  <br><br>  Ready? (press v or n)","",""
"2882","key","v","v","16.674418604651162","500","250","psychophysics","291","1019207","0.0-291.0","60fe7594611a2f2bc720228d","61fd91aae15db0e669cef471","6","","","","","1","3"
"null","","","null","","","","html-keyboard-response","292","1019709","0.0-292.0","60fe7594611a2f2bc720228d","61fd91aae15db0e669cef471","","","","","<p style=""color:darkgreen;font-size:24px;"">Correct :)</p>","",""
"2610","key","v","v","16.666666666666668","500","250","psychophysics","293","1022321","0.0-293.0","60fe7594611a2f2bc720228d","61fd91aae15db0e669cef471","6","","","","","0","3"
"null","","","null","","","","html-keyboard-response","294","1022823","0.0-294.0","60fe7594611a2f2bc720228d","61fd91aae15db0e669cef471","","","","","<p style=""color:darkgreen;font-size:24px;"">Correct :)</p>","",""
"2428","key","v","v","16.66896551724138","500","250","psychophysics","295","1025255","0.0-295.0","60fe7594611a2f2bc720228d","61fd91aae15db0e669cef471","6","","","","","0","3"
"null","","","null","","","","html-keyboard-response","296","1025757","0.0-296.0","60fe7594611a2f2bc720228d","61fd91aae15db0e669cef471","","","","","<p style=""color:darkgreen;font-size:24px;"">Correct :)</p>","",""
"2485","key","n","n","16.66216216216216","500","250","psychophysics","297","1028245","0.0-297.0","60fe7594611a2f2bc720228d","61fd91aae15db0e669cef471","6","","","","","1","7"
"null","","","null","","","","html-keyboard-response","298","1028747","0.0-298.0","60fe7594611a2f2bc720228d","61fd91aae15db0e669cef471","","","","","<p style=""color:darkgreen;font-size:24px;"">Correct :)</p>","",""
"2448","key","v","v","16.662068965517243","500","250","psychophysics","299","1031197","0.0-299.0","60fe7594611a2f2bc720228d","61fd91aae15db0e669cef471","6","","","","","0","1"
"null","","","null","","","","html-keyboard-response","300","1031700","0.0-300.0","60fe7594611a2f2bc720228d","61fd91aae15db0e669cef471","","","","","<p style=""color:darkgreen;font-size:24px;"">Correct :)</p>","",""
"2498","key","n","n","16.65771812080537","500","250","psychophysics","301","1034202","0.0-301.0","60fe7594611a2f2bc720228d","61fd91aae15db0e669cef471","6","","","","","1","6"
"null","","","null","","","","html-keyboard-response","302","1034705","0.0-302.0","60fe7594611a2f2bc720228d","61fd91aae15db0e669cef471","","","","","<p style=""color:darkgreen;font-size:24px;"">Correct :)</p>","",""
"2816","key","v","v","16.666666666666668","500","250","psychophysics","303","1037526","0.0-303.0","60fe7594611a2f2bc720228d","61fd91aae15db0e669cef471","6","","","","","0","7"
"null","","","null","","","","html-keyboard-response","304","1038028","0.0-304.0","60fe7594611a2f2bc720228d","61fd91aae15db0e669cef471","","","","","<p style=""color:darkgreen;font-size:24px;"">Correct :)</p>","",""
"2575","key","n","n","16.662337662337663","500","250","psychophysics","305","1040612","0.0-305.0","60fe7594611a2f2bc720228d","61fd91aae15db0e669cef471","6","","","","","0","6"
"null","","","null","","","","html-keyboard-response","306","1041115","0.0-306.0","60fe7594611a2f2bc720228d","61fd91aae15db0e669cef471","","","","","<p style=""color:darkgreen;font-size:24px;"">Correct :)</p>","",""
"2802","key","n","n","16.664670658682635","500","250","psychophysics","307","1043920","0.0-307.0","60fe7594611a2f2bc720228d","61fd91aae15db0e669cef471","6","","","","","1","9"
"null","","","null","","","","html-keyboard-response","308","1044421","0.0-308.0","60fe7594611a2f2bc720228d","61fd91aae15db0e669cef471","","","","","<p style=""color:darkgreen;font-size:24px;"">Correct :)</p>","",""
"2522","key","v","v","16.666666666666668","500","250","psychophysics","309","1046948","0.0-309.0","60fe7594611a2f2bc720228d","61fd91aae15db0e669cef471","6","","","","","1","2"
"null","","","null","","","","html-keyboard-response","310","1047450","0.0-310.0","60fe7594611a2f2bc720228d","61fd91aae15db0e669cef471","","","","","<p style=""color:darkgreen;font-size:24px;"">Correct :)</p>","",""
"3280","key","v","v","16.663265306122447","500","250","psychophysics","311","1050735","0.0-311.0","60fe7594611a2f2bc720228d","61fd91aae15db0e669cef471","6","","","","","1","4"
"null","","","null","","","","html-keyboard-response","312","1051238","0.0-312.0","60fe7594611a2f2bc720228d","61fd91aae15db0e669cef471","","","","","<p style=""color:darkgreen;font-size:24px;"">Correct :)</p>","",""
"2471","key","n","n","16.666666666666668","500","250","psychophysics","313","1053712","0.0-313.0","60fe7594611a2f2bc720228d","61fd91aae15db0e669cef471","6","","","","","1","9"
"null","","","null","","","","html-keyboard-response","314","1054214","0.0-314.0","60fe7594611a2f2bc720228d","61fd91aae15db0e669cef471","","","","","<p style=""color:darkgreen;font-size:24px;"">Correct :)</p>","",""
"2493","key","v","v","16.66216216216216","500","250","psychophysics","315","1056712","0.0-315.0","60fe7594611a2f2bc720228d","61fd91aae15db0e669cef471","6","","","","","1","3"
"null","","","null","","","","html-keyboard-response","316","1057214","0.0-316.0","60fe7594611a2f2bc720228d","61fd91aae15db0e669cef471","","","","","<p style=""color:darkgreen;font-size:24px;"">Correct :)</p>","",""
"2573","key","v","v","16.666666666666668","500","250","psychophysics","317","1059792","0.0-317.0","60fe7594611a2f2bc720228d","61fd91aae15db0e669cef471","6","","","","","0","7"
"null","","","null","","","","html-keyboard-response","318","1060294","0.0-318.0","60fe7594611a2f2bc720228d","61fd91aae15db0e669cef471","","","","","<p style=""color:darkgreen;font-size:24px;"">Correct :)</p>","",""
"2544","key","v","v","16.67105263157895","500","250","psychophysics","319","1062841","0.0-319.0","60fe7594611a2f2bc720228d","61fd91aae15db0e669cef471","6","","","","","0","1"
"null","","","null","","","","html-keyboard-response","320","1063342","0.0-320.0","60fe7594611a2f2bc720228d","61fd91aae15db0e669cef471","","","","","<p style=""color:darkgreen;font-size:24px;"">Correct :)</p>","",""
"2898","key","v","v","16.664739884393065","500","250","psychophysics","321","1066242","0.0-321.0","60fe7594611a2f2bc720228d","61fd91aae15db0e669cef471","6","","","","","1","1"
"null","","","null","","","","html-keyboard-response","322","1066743","0.0-322.0","60fe7594611a2f2bc720228d","61fd91aae15db0e669cef471","","","","","<p style=""color:darkgreen;font-size:24px;"">Correct :)</p>","",""
"2425","key","v","v","16.662068965517243","500","250","psychophysics","323","1069172","0.0-323.0","60fe7594611a2f2bc720228d","61fd91aae15db0e669cef471","6","","","","","0","1"
"null","","","null","","","","html-keyboard-response","324","1069674","0.0-324.0","60fe7594611a2f2bc720228d","61fd91aae15db0e669cef471","","","","","<p style=""color:darkgreen;font-size:24px;"">Correct :)</p>","",""
"2440","key","n","n","16.66896551724138","500","250","psychophysics","325","1072117","0.0-325.0","60fe7594611a2f2bc720228d","61fd91aae15db0e669cef471","6","","","","","1","8"
"null","","","null","","","","html-keyboard-response","326","1072619","0.0-326.0","60fe7594611a2f2bc720228d","61fd91aae15db0e669cef471","","","","","<p style=""color:darkgreen;font-size:24px;"">Correct :)</p>","",""
"2470","key","v","v","16.666666666666668","500","250","psychophysics","327","1075091","0.0-327.0","60fe7594611a2f2bc720228d","61fd91aae15db0e669cef471","6","","","","","1","3"
"null","","","null","","","","html-keyboard-response","328","1075593","0.0-328.0","60fe7594611a2f2bc720228d","61fd91aae15db0e669cef471","","","","","<p style=""color:darkgreen;font-size:24px;"">Correct :)</p>","",""
"2562","key","n","n","16.673202614379086","500","250","psychophysics","329","1078158","0.0-329.0","60fe7594611a2f2bc720228d","61fd91aae15db0e669cef471","6","","","","","1","6"
"null","","","null","","","","html-keyboard-response","330","1078660","0.0-330.0","60fe7594611a2f2bc720228d","61fd91aae15db0e669cef471","","","","","<p style=""color:darkgreen;font-size:24px;"">Correct :)</p>","",""
"2419","key","n","n","16.67361111111111","500","250","psychophysics","331","1081082","0.0-331.0","60fe7594611a2f2bc720228d","61fd91aae15db0e669cef471","6","","","","","0","7"
"null","","","null","","","","html-keyboard-response","332","1081584","0.0-332.0","60fe7594611a2f2bc720228d","61fd91aae15db0e669cef471","","","","","<p style=""color:red;font-size:24px;"">Error :(</p>","",""
"3119","key","v","v","16.661290322580644","500","250","psychophysics","333","1084706","0.0-333.0","60fe7594611a2f2bc720228d","61fd91aae15db0e669cef471","6","","","","","0","3"
"null","","","null","","","","html-keyboard-response","334","1085208","0.0-334.0","60fe7594611a2f2bc720228d","61fd91aae15db0e669cef471","","","","","<p style=""color:darkgreen;font-size:24px;"">Correct :)</p>","",""
"2863","key","v","v","16.666666666666668","500","250","psychophysics","335","1088076","0.0-335.0","60fe7594611a2f2bc720228d","61fd91aae15db0e669cef471","6","","","","","1","2"
"null","","","null","","","","html-keyboard-response","336","1088578","0.0-336.0","60fe7594611a2f2bc720228d","61fd91aae15db0e669cef471","","","","","<p style=""color:darkgreen;font-size:24px;"">Correct :)</p>","",""
"2576","key","n","n","16.66883116883117","500","250","psychophysics","337","1091157","0.0-337.0","60fe7594611a2f2bc720228d","61fd91aae15db0e669cef471","6","","","","","0","6"
"null","","","null","","","","html-keyboard-response","338","1091659","0.0-338.0","60fe7594611a2f2bc720228d","61fd91aae15db0e669cef471","","","","","<p style=""color:darkgreen;font-size:24px;"">Correct :)</p>","",""
"2944","key","v","v","16.65909090909091","500","250","psychophysics","339","1094606","0.0-339.0","60fe7594611a2f2bc720228d","61fd91aae15db0e669cef471","6","","","","","1","1"
"null","","","null","","","","html-keyboard-response","340","1095107","0.0-340.0","60fe7594611a2f2bc720228d","61fd91aae15db0e669cef471","","","","","<p style=""color:darkgreen;font-size:24px;"">Correct :)</p>","",""
"2712","key","n","n","16.660493827160494","500","250","psychophysics","341","1097821","0.0-341.0","60fe7594611a2f2bc720228d","61fd91aae15db0e669cef471","6","","","","","1","7"
"null","","","null","","","","html-keyboard-response","342","1098323","0.0-342.0","60fe7594611a2f2bc720228d","61fd91aae15db0e669cef471","","","","","<p style=""color:darkgreen;font-size:24px;"">Correct :)</p>","",""
"3127","key","v","v","16.663101604278076","500","250","psychophysics","343","1101455","0.0-343.0","60fe7594611a2f2bc720228d","61fd91aae15db0e669cef471","6","","","","","1","2"
"null","","","null","","","","html-keyboard-response","344","1101957","0.0-344.0","60fe7594611a2f2bc720228d","61fd91aae15db0e669cef471","","","","","<p style=""color:darkgreen;font-size:24px;"">Correct :)</p>","",""
"2565","key","n","n","16.673202614379086","500","250","psychophysics","345","1104527","0.0-345.0","60fe7594611a2f2bc720228d","61fd91aae15db0e669cef471","6","","","","","0","8"
"null","","","null","","","","html-keyboard-response","346","1105028","0.0-346.0","60fe7594611a2f2bc720228d","61fd91aae15db0e669cef471","","","","","<p style=""color:darkgreen;font-size:24px;"">Correct :)</p>","",""
"2589","key","n","n","16.670967741935485","500","250","psychophysics","347","1107619","0.0-347.0","60fe7594611a2f2bc720228d","61fd91aae15db0e669cef471","6","","","","","0","2"
"null","","","null","","","","html-keyboard-response","348","1108121","0.0-348.0","60fe7594611a2f2bc720228d","61fd91aae15db0e669cef471","","","","","<p style=""color:darkgreen;font-size:24px;"">Correct :)</p>","",""
"2698","key","v","v","16.664596273291924","500","250","psychophysics","349","1110822","0.0-349.0","60fe7594611a2f2bc720228d","61fd91aae15db0e669cef471","6","","","","","1","4"
"null","","","null","","","","html-keyboard-response","350","1111324","0.0-350.0","60fe7594611a2f2bc720228d","61fd91aae15db0e669cef471","","","","","<p style=""color:darkgreen;font-size:24px;"">Correct :)</p>","",""
"2655","key","n","n","16.664556962025316","500","250","psychophysics","351","1113982","0.0-351.0","60fe7594611a2f2bc720228d","61fd91aae15db0e669cef471","6","","","","","0","4"
"null","","","null","","","","html-keyboard-response","352","1114484","0.0-352.0","60fe7594611a2f2bc720228d","61fd91aae15db0e669cef471","","","","","<p style=""color:darkgreen;font-size:24px;"">Correct :)</p>","",""
"2928","key","n","n","16.660919540229884","500","250","psychophysics","353","1117414","0.0-353.0","60fe7594611a2f2bc720228d","61fd91aae15db0e669cef471","6","","","","","1","6"
"null","","","null","","","","html-keyboard-response","354","1117917","0.0-354.0","60fe7594611a2f2bc720228d","61fd91aae15db0e669cef471","","","","","<p style=""color:darkgreen;font-size:24px;"">Correct :)</p>","",""
"2657","key","v","v","16.670886075949365","500","250","psychophysics","355","1120577","0.0-355.0","60fe7594611a2f2bc720228d","61fd91aae15db0e669cef471","6","","","","","0","3"
"null","","","null","","","","html-keyboard-response","356","1121078","0.0-356.0","60fe7594611a2f2bc720228d","61fd91aae15db0e669cef471","","","","","<p style=""color:darkgreen;font-size:24px;"">Correct :)</p>","",""
"2514","key","n","n","16.666666666666668","500","250","psychophysics","357","1123595","0.0-357.0","60fe7594611a2f2bc720228d","61fd91aae15db0e669cef471","6","","","","","1","7"
"null","","","null","","","","html-keyboard-response","358","1124097","0.0-358.0","60fe7594611a2f2bc720228d","61fd91aae15db0e669cef471","","","","","<p style=""color:darkgreen;font-size:24px;"">Correct :)</p>","",""
"2653","key","v","v","16.666666666666668","500","250","psychophysics","359","1126757","0.0-359.0","60fe7594611a2f2bc720228d","61fd91aae15db0e669cef471","6","","","","","1","4"
"null","","","null","","","","html-keyboard-response","360","1127261","0.0-360.0","60fe7594611a2f2bc720228d","61fd91aae15db0e669cef471","","","","","<p style=""color:darkgreen;font-size:24px;"">Correct :)</p>","",""
"2470","key","n","n","16.675675675675677","500","250","psychophysics","361","1129737","0.0-361.0","60fe7594611a2f2bc720228d","61fd91aae15db0e669cef471","6","","","","","1","7"
"null","","","null","","","","html-keyboard-response","362","1130238","0.0-362.0","60fe7594611a2f2bc720228d","61fd91aae15db0e669cef471","","","","","<p style=""color:darkgreen;font-size:24px;"">Correct :)</p>","",""
"2418","key","n","n","16.666666666666668","500","250","psychophysics","363","1132658","0.0-363.0","60fe7594611a2f2bc720228d","61fd91aae15db0e669cef471","6","","","","","1","7"
"null","","","null","","","","html-keyboard-response","364","1133160","0.0-364.0","60fe7594611a2f2bc720228d","61fd91aae15db0e669cef471","","","","","<p style=""color:darkgreen;font-size:24px;"">Correct :)</p>","",""
"2745","key","v","v","16.664634146341463","500","250","psychophysics","365","1135908","0.0-365.0","60fe7594611a2f2bc720228d","61fd91aae15db0e669cef471","6","","","","","0","9"
"null","","","null","","","","html-keyboard-response","366","1136410","0.0-366.0","60fe7594611a2f2bc720228d","61fd91aae15db0e669cef471","","","","","<p style=""color:darkgreen;font-size:24px;"">Correct :)</p>","",""
"2502","key","n","n","16.664429530201343","500","250","psychophysics","367","1138915","0.0-367.0","60fe7594611a2f2bc720228d","61fd91aae15db0e669cef471","6","","","","","0","2"
"null","","","null","","","","html-keyboard-response","368","1139416","0.0-368.0","60fe7594611a2f2bc720228d","61fd91aae15db0e669cef471","","","","","<p style=""color:darkgreen;font-size:24px;"">Correct :)</p>","",""
"2439","key","n","n","16.66896551724138","500","250","psychophysics","369","1141859","0.0-369.0","60fe7594611a2f2bc720228d","61fd91aae15db0e669cef471","6","","","","","0","8"
"null","","","null","","","","html-keyboard-response","370","1142361","0.0-370.0","60fe7594611a2f2bc720228d","61fd91aae15db0e669cef471","","","","","<p style=""color:darkgreen;font-size:24px;"">Correct :)</p>","",""
"2445","key","n","n","16.664383561643834","500","250","psychophysics","371","1144813","0.0-371.0","60fe7594611a2f2bc720228d","61fd91aae15db0e669cef471","6","","","","","1","7"
"null","","","null","","","","html-keyboard-response","372","1145313","0.0-372.0","60fe7594611a2f2bc720228d","61fd91aae15db0e669cef471","","","","","<p style=""color:darkgreen;font-size:24px;"">Correct :)</p>","",""
"2717","key","v","v","16.666666666666668","500","250","psychophysics","373","1148033","0.0-373.0","60fe7594611a2f2bc720228d","61fd91aae15db0e669cef471","6","","","","","1","3"
"null","","","null","","","","html-keyboard-response","374","1148535","0.0-374.0","60fe7594611a2f2bc720228d","61fd91aae15db0e669cef471","","","","","<p style=""color:darkgreen;font-size:24px;"">Correct :)</p>","",""
"2465","key","n","n","16.666666666666668","500","250","psychophysics","375","1151003","0.0-375.0","60fe7594611a2f2bc720228d","61fd91aae15db0e669cef471","6","","","","","1","7"
"null","","","null","","","","html-keyboard-response","376","1151505","0.0-376.0","60fe7594611a2f2bc720228d","61fd91aae15db0e669cef471","","","","","<p style=""color:darkgreen;font-size:24px;"">Correct :)</p>","",""
"2634","key","n","n","16.668789808917197","500","250","psychophysics","377","1154142","0.0-377.0","60fe7594611a2f2bc720228d","61fd91aae15db0e669cef471","6","","","","","1","7"
"null","","","null","","","","html-keyboard-response","378","1154644","0.0-378.0","60fe7594611a2f2bc720228d","61fd91aae15db0e669cef471","","","","","<p style=""color:darkgreen;font-size:24px;"">Correct :)</p>","",""
"2493","key","v","v","16.671140939597315","500","250","psychophysics","379","1157142","0.0-379.0","60fe7594611a2f2bc720228d","61fd91aae15db0e669cef471","6","","","","","0","3"
"null","","","null","","","","html-keyboard-response","380","1157644","0.0-380.0","60fe7594611a2f2bc720228d","61fd91aae15db0e669cef471","","","","","<p style=""color:darkgreen;font-size:24px;"">Correct :)</p>","",""
"2488","key","v","v","16.65771812080537","500","250","psychophysics","381","1160136","0.0-381.0","60fe7594611a2f2bc720228d","61fd91aae15db0e669cef471","6","","","","","0","3"
"null","","","null","","","","html-keyboard-response","382","1160638","0.0-382.0","60fe7594611a2f2bc720228d","61fd91aae15db0e669cef471","","","","","<p style=""color:darkgreen;font-size:24px;"">Correct :)</p>","",""
"2748","key","v","v","16.766871165644172","500","250","psychophysics","383","1163389","0.0-383.0","60fe7594611a2f2bc720228d","61fd91aae15db0e669cef471","6","","","","","0","2"
"null","","","null","","","","html-keyboard-response","384","1163891","0.0-384.0","60fe7594611a2f2bc720228d","61fd91aae15db0e669cef471","","","","","<p style=""color:red;font-size:24px;"">Error :(</p>","",""
"2571","key","v","v","16.666666666666668","500","250","psychophysics","385","1166464","0.0-385.0","60fe7594611a2f2bc720228d","61fd91aae15db0e669cef471","6","","","","","0","9"
"null","","","null","","","","html-keyboard-response","386","1166966","0.0-386.0","60fe7594611a2f2bc720228d","61fd91aae15db0e669cef471","","","","","<p style=""color:darkgreen;font-size:24px;"">Correct :)</p>","",""
"2410","key","n","n","16.67132867132867","500","250","psychophysics","387","1169380","0.0-387.0","60fe7594611a2f2bc720228d","61fd91aae15db0e669cef471","6","","","","","0","4"
"null","","","null","","","","html-keyboard-response","388","1169882","0.0-388.0","60fe7594611a2f2bc720228d","61fd91aae15db0e669cef471","","","","","<p style=""color:darkgreen;font-size:24px;"">Correct :)</p>","",""
"2823","key","v","v","16.672619047619047","500","250","psychophysics","389","1172708","0.0-389.0","60fe7594611a2f2bc720228d","61fd91aae15db0e669cef471","6","","","","","0","9"
"null","","","null","","","","html-keyboard-response","390","1173210","0.0-390.0","60fe7594611a2f2bc720228d","61fd91aae15db0e669cef471","","","","","<p style=""color:darkgreen;font-size:24px;"">Correct :)</p>","",""
"27839","","","v","","","","html-keyboard-response","391","1201050","0.0-391.0","60fe7594611a2f2bc720228d","61fd91aae15db0e669cef471","","","","","<p> Last set of trials.  Here, the tasks are going to switch once again.  We are going to do 50 of these.  And then you are done with the experiment.  </p>  <br><br>  Ready? (press v or n)","",""
"2642","key","v","v","16.656050955414013","500","250","psychophysics","392","1203696","0.0-392.0","60fe7594611a2f2bc720228d","61fd91aae15db0e669cef471","7","","","","","1","3"
"null","","","null","","","","html-keyboard-response","393","1204198","0.0-393.0","60fe7594611a2f2bc720228d","61fd91aae15db0e669cef471","","","","","<p style=""color:darkgreen;font-size:24px;"">Correct :)</p>","",""
"2570","key","v","v","16.662337662337663","500","250","psychophysics","394","1206772","0.0-394.0","60fe7594611a2f2bc720228d","61fd91aae15db0e669cef471","7","","","","","0","7"
"null","","","null","","","","html-keyboard-response","395","1207273","0.0-395.0","60fe7594611a2f2bc720228d","61fd91aae15db0e669cef471","","","","","<p style=""color:darkgreen;font-size:24px;"">Correct :)</p>","",""
"2492","key","v","v","16.66891891891892","500","250","psychophysics","396","1209767","0.0-396.0","60fe7594611a2f2bc720228d","61fd91aae15db0e669cef471","7","","","","","1","7"
"null","","","null","","","","html-keyboard-response","397","1210269","0.0-397.0","60fe7594611a2f2bc720228d","61fd91aae15db0e669cef471","","","","","<p style=""color:red;font-size:24px;"">Error :(</p>","",""
"2885","key","n","n","16.66860465116279","500","250","psychophysics","398","1213158","0.0-398.0","60fe7594611a2f2bc720228d","61fd91aae15db0e669cef471","7","","","","","1","6"
"null","","","null","","","","html-keyboard-response","399","1213660","0.0-399.0","60fe7594611a2f2bc720228d","61fd91aae15db0e669cef471","","","","","<p style=""color:darkgreen;font-size:24px;"">Correct :)</p>","",""
"2485","key","n","n","16.66891891891892","500","250","psychophysics","400","1216148","0.0-400.0","60fe7594611a2f2bc720228d","61fd91aae15db0e669cef471","7","","","","","0","2"
"null","","","null","","","","html-keyboard-response","401","1216652","0.0-401.0","60fe7594611a2f2bc720228d","61fd91aae15db0e669cef471","","","","","<p style=""color:darkgreen;font-size:24px;"">Correct :)</p>","",""
"2629","key","n","n","16.66025641025641","500","250","psychophysics","402","1219284","0.0-402.0","60fe7594611a2f2bc720228d","61fd91aae15db0e669cef471","7","","","","","1","7"
"null","","","null","","","","html-keyboard-response","403","1219786","0.0-403.0","60fe7594611a2f2bc720228d","61fd91aae15db0e669cef471","","","","","<p style=""color:darkgreen;font-size:24px;"">Correct :)</p>","",""
"2503","key","n","n","16.664429530201343","500","250","psychophysics","404","1222291","0.0-404.0","60fe7594611a2f2bc720228d","61fd91aae15db0e669cef471","7","","","","","0","2"
"null","","","null","","","","html-keyboard-response","405","1222794","0.0-405.0","60fe7594611a2f2bc720228d","61fd91aae15db0e669cef471","","","","","<p style=""color:darkgreen;font-size:24px;"">Correct :)</p>","",""
"2667","key","v","v","16.660377358490567","500","250","psychophysics","406","1225465","0.0-406.0","60fe7594611a2f2bc720228d","61fd91aae15db0e669cef471","7","","","","","0","7"
"null","","","null","","","","html-keyboard-response","407","1225967","0.0-407.0","60fe7594611a2f2bc720228d","61fd91aae15db0e669cef471","","","","","<p style=""color:darkgreen;font-size:24px;"">Correct :)</p>","",""
"2643","key","n","n","16.656050955414013","500","250","psychophysics","408","1228613","0.0-408.0","60fe7594611a2f2bc720228d","61fd91aae15db0e669cef471","7","","","","","1","6"
"null","","","null","","","","html-keyboard-response","409","1229115","0.0-409.0","60fe7594611a2f2bc720228d","61fd91aae15db0e669cef471","","","","","<p style=""color:darkgreen;font-size:24px;"">Correct :)</p>","",""
"3142","key","v","v","16.670212765957448","500","250","psychophysics","410","1232261","0.0-410.0","60fe7594611a2f2bc720228d","61fd91aae15db0e669cef471","7","","","","","0","3"
"null","","","null","","","","html-keyboard-response","411","1232763","0.0-411.0","60fe7594611a2f2bc720228d","61fd91aae15db0e669cef471","","","","","<p style=""color:darkgreen;font-size:24px;"">Correct :)</p>","",""
"3090","key","v","v","16.65945945945946","500","250","psychophysics","412","1235857","0.0-412.0","60fe7594611a2f2bc720228d","61fd91aae15db0e669cef471","7","","","","","0","7"
"null","","","null","","","","html-keyboard-response","413","1236360","0.0-413.0","60fe7594611a2f2bc720228d","61fd91aae15db0e669cef471","","","","","<p style=""color:darkgreen;font-size:24px;"">Correct :)</p>","",""
"3049","key","v","v","16.65934065934066","500","250","psychophysics","414","1239413","0.0-414.0","60fe7594611a2f2bc720228d","61fd91aae15db0e669cef471","7","","","","","1","2"
"null","","","null","","","","html-keyboard-response","415","1239916","0.0-415.0","60fe7594611a2f2bc720228d","61fd91aae15db0e669cef471","","","","","<p style=""color:darkgreen;font-size:24px;"">Correct :)</p>","",""
"2594","key","v","v","16.664516129032258","500","250","psychophysics","416","1242512","0.0-416.0","60fe7594611a2f2bc720228d","61fd91aae15db0e669cef471","7","","","","","0","3"
"null","","","null","","","","html-keyboard-response","417","1243014","0.0-417.0","60fe7594611a2f2bc720228d","61fd91aae15db0e669cef471","","","","","<p style=""color:darkgreen;font-size:24px;"">Correct :)</p>","",""
"2423","key","v","v","16.662068965517243","500","250","psychophysics","418","1245441","0.0-418.0","60fe7594611a2f2bc720228d","61fd91aae15db0e669cef471","7","","","","","0","7"
"null","","","null","","","","html-keyboard-response","419","1245942","0.0-419.0","60fe7594611a2f2bc720228d","61fd91aae15db0e669cef471","","","","","<p style=""color:darkgreen;font-size:24px;"">Correct :)</p>","",""
"2395","key","n","n","16.664335664335663","500","250","psychophysics","420","1248339","0.0-420.0","60fe7594611a2f2bc720228d","61fd91aae15db0e669cef471","7","","","","","0","6"
"null","","","null","","","","html-keyboard-response","421","1248841","0.0-421.0","60fe7594611a2f2bc720228d","61fd91aae15db0e669cef471","","","","","<p style=""color:darkgreen;font-size:24px;"">Correct :)</p>","",""
"2498","key","v","v","16.664429530201343","500","250","psychophysics","422","1251343","0.0-422.0","60fe7594611a2f2bc720228d","61fd91aae15db0e669cef471","7","","","","","0","1"
"null","","","null","","","","html-keyboard-response","423","1251847","0.0-423.0","60fe7594611a2f2bc720228d","61fd91aae15db0e669cef471","","","","","<p style=""color:darkgreen;font-size:24px;"">Correct :)</p>","",""
"2427","key","v","v","16.66896551724138","500","250","psychophysics","424","1254280","0.0-424.0","60fe7594611a2f2bc720228d","61fd91aae15db0e669cef471","7","","","","","1","3"
"null","","","null","","","","html-keyboard-response","425","1254782","0.0-425.0","60fe7594611a2f2bc720228d","61fd91aae15db0e669cef471","","","","","<p style=""color:darkgreen;font-size:24px;"">Correct :)</p>","",""
"2429","key","v","v","16.675862068965518","500","250","psychophysics","426","1257214","0.0-426.0","60fe7594611a2f2bc720228d","61fd91aae15db0e669cef471","7","","","","","1","1"
"null","","","null","","","","html-keyboard-response","427","1257716","0.0-427.0","60fe7594611a2f2bc720228d","61fd91aae15db0e669cef471","","","","","<p style=""color:darkgreen;font-size:24px;"">Correct :)</p>","",""
"2464","key","v","v","16.653061224489797","500","250","psychophysics","428","1260186","0.0-428.0","60fe7594611a2f2bc720228d","61fd91aae15db0e669cef471","7","","","","","1","1"
"null","","","null","","","","html-keyboard-response","429","1260688","0.0-429.0","60fe7594611a2f2bc720228d","61fd91aae15db0e669cef471","","","","","<p style=""color:darkgreen;font-size:24px;"">Correct :)</p>","",""
"2461","key","v","v","16.664383561643834","500","250","psychophysics","430","1263151","0.0-430.0","60fe7594611a2f2bc720228d","61fd91aae15db0e669cef471","7","","","","","1","2"
"null","","","null","","","","html-keyboard-response","431","1263654","0.0-431.0","60fe7594611a2f2bc720228d","61fd91aae15db0e669cef471","","","","","<p style=""color:darkgreen;font-size:24px;"">Correct :)</p>","",""
"2471","key","v","v","16.65986394557823","500","250","psychophysics","432","1266127","0.0-432.0","60fe7594611a2f2bc720228d","61fd91aae15db0e669cef471","7","","","","","1","1"
"null","","","null","","","","html-keyboard-response","433","1266629","0.0-433.0","60fe7594611a2f2bc720228d","61fd91aae15db0e669cef471","","","","","<p style=""color:darkgreen;font-size:24px;"">Correct :)</p>","",""
"2652","key","v","v","16.670886075949365","500","250","psychophysics","434","1269286","0.0-434.0","60fe7594611a2f2bc720228d","61fd91aae15db0e669cef471","7","","","","","0","3"
"null","","","null","","","","html-keyboard-response","435","1269788","0.0-435.0","60fe7594611a2f2bc720228d","61fd91aae15db0e669cef471","","","","","<p style=""color:darkgreen;font-size:24px;"">Correct :)</p>","",""
"2473","key","v","v","16.65986394557823","500","250","psychophysics","436","1272265","0.0-436.0","60fe7594611a2f2bc720228d","61fd91aae15db0e669cef471","7","","","","","1","2"
"null","","","null","","","","html-keyboard-response","437","1272768","0.0-437.0","60fe7594611a2f2bc720228d","61fd91aae15db0e669cef471","","","","","<p style=""color:darkgreen;font-size:24px;"">Correct :)</p>","",""
"2434","key","v","v","16.662068965517243","500","250","psychophysics","438","1275205","0.0-438.0","60fe7594611a2f2bc720228d","61fd91aae15db0e669cef471","7","","","","","1","1"
"null","","","null","","","","html-keyboard-response","439","1275706","0.0-439.0","60fe7594611a2f2bc720228d","61fd91aae15db0e669cef471","","","","","<p style=""color:darkgreen;font-size:24px;"">Correct :)</p>","",""
"2483","key","n","n","16.655405405405407","500","250","psychophysics","440","1278191","0.0-440.0","60fe7594611a2f2bc720228d","61fd91aae15db0e669cef471","7","","","","","0","4"
"null","","","null","","","","html-keyboard-response","441","1278693","0.0-441.0","60fe7594611a2f2bc720228d","61fd91aae15db0e669cef471","","","","","<p style=""color:darkgreen;font-size:24px;"">Correct :)</p>","",""
"2645","key","n","n","16.658227848101266","500","250","psychophysics","442","1281343","0.0-442.0","60fe7594611a2f2bc720228d","61fd91aae15db0e669cef471","7","","","","","0","6"
"null","","","null","","","","html-keyboard-response","443","1281845","0.0-443.0","60fe7594611a2f2bc720228d","61fd91aae15db0e669cef471","","","","","<p style=""color:darkgreen;font-size:24px;"">Correct :)</p>","",""
"2792","key","n","n","16.664670658682635","500","250","psychophysics","444","1284642","0.0-444.0","60fe7594611a2f2bc720228d","61fd91aae15db0e669cef471","7","","","","","1","7"
"null","","","null","","","","html-keyboard-response","445","1285143","0.0-445.0","60fe7594611a2f2bc720228d","61fd91aae15db0e669cef471","","","","","<p style=""color:darkgreen;font-size:24px;"">Correct :)</p>","",""
"2405","key","v","v","16.65972222222222","500","250","psychophysics","446","1287555","0.0-446.0","60fe7594611a2f2bc720228d","61fd91aae15db0e669cef471","7","","","","","1","1"
"null","","","null","","","","html-keyboard-response","447","1288057","0.0-447.0","60fe7594611a2f2bc720228d","61fd91aae15db0e669cef471","","","","","<p style=""color:darkgreen;font-size:24px;"">Correct :)</p>","",""
"3023","key","n","n","16.67222222222222","500","250","psychophysics","448","1291082","0.0-448.0","60fe7594611a2f2bc720228d","61fd91aae15db0e669cef471","7","","","","","1","6"
"null","","","null","","","","html-keyboard-response","449","1291584","0.0-449.0","60fe7594611a2f2bc720228d","61fd91aae15db0e669cef471","","","","","<p style=""color:darkgreen;font-size:24px;"">Correct :)</p>","",""
"2471","key","v","v","16.65986394557823","500","250","psychophysics","450","1294059","0.0-450.0","60fe7594611a2f2bc720228d","61fd91aae15db0e669cef471","7","","","","","1","2"
"null","","","null","","","","html-keyboard-response","451","1294561","0.0-451.0","60fe7594611a2f2bc720228d","61fd91aae15db0e669cef471","","","","","<p style=""color:darkgreen;font-size:24px;"">Correct :)</p>","",""
"2611","key","v","v","16.66025641025641","500","250","psychophysics","452","1297176","0.0-452.0","60fe7594611a2f2bc720228d","61fd91aae15db0e669cef471","7","","","","","0","7"
"null","","","null","","","","html-keyboard-response","453","1297679","0.0-453.0","60fe7594611a2f2bc720228d","61fd91aae15db0e669cef471","","","","","<p style=""color:darkgreen;font-size:24px;"">Correct :)</p>","",""
"2536","key","v","v","16.655629139072847","500","250","psychophysics","454","1300217","0.0-454.0","60fe7594611a2f2bc720228d","61fd91aae15db0e669cef471","7","","","","","1","1"
"null","","","null","","","","html-keyboard-response","455","1300719","0.0-455.0","60fe7594611a2f2bc720228d","61fd91aae15db0e669cef471","","","","","<p style=""color:darkgreen;font-size:24px;"">Correct :)</p>","",""
"2471","key","v","v","16.666666666666668","500","250","psychophysics","456","1303192","0.0-456.0","60fe7594611a2f2bc720228d","61fd91aae15db0e669cef471","7","","","","","0","1"
"null","","","null","","","","html-keyboard-response","457","1303694","0.0-457.0","60fe7594611a2f2bc720228d","61fd91aae15db0e669cef471","","","","","<p style=""color:darkgreen;font-size:24px;"">Correct :)</p>","",""
"2569","key","n","n","16.66013071895425","500","250","psychophysics","458","1306266","0.0-458.0","60fe7594611a2f2bc720228d","61fd91aae15db0e669cef471","7","","","","","0","6"
"null","","","null","","","","html-keyboard-response","459","1306767","0.0-459.0","60fe7594611a2f2bc720228d","61fd91aae15db0e669cef471","","","","","<p style=""color:darkgreen;font-size:24px;"">Correct :)</p>","",""
"2704","key","n","n","16.666666666666668","500","250","psychophysics","460","1309478","0.0-460.0","60fe7594611a2f2bc720228d","61fd91aae15db0e669cef471","7","","","","","1","6"
"null","","","null","","","","html-keyboard-response","461","1309979","0.0-461.0","60fe7594611a2f2bc720228d","61fd91aae15db0e669cef471","","","","","<p style=""color:darkgreen;font-size:24px;"">Correct :)</p>","",""
"2434","key","n","n","16.675862068965518","500","250","psychophysics","462","1312417","0.0-462.0","60fe7594611a2f2bc720228d","61fd91aae15db0e669cef471","7","","","","","0","6"
"null","","","null","","","","html-keyboard-response","463","1312920","0.0-463.0","60fe7594611a2f2bc720228d","61fd91aae15db0e669cef471","","","","","<p style=""color:darkgreen;font-size:24px;"">Correct :)</p>","",""
"2636","key","n","n","16.668789808917197","500","250","psychophysics","464","1315559","0.0-464.0","60fe7594611a2f2bc720228d","61fd91aae15db0e669cef471","7","","","","","0","6"
"null","","","null","","","","html-keyboard-response","465","1316061","0.0-465.0","60fe7594611a2f2bc720228d","61fd91aae15db0e669cef471","","","","","<p style=""color:darkgreen;font-size:24px;"">Correct :)</p>","",""
"2460","key","n","n","16.65986394557823","500","250","psychophysics","466","1318523","0.0-466.0","60fe7594611a2f2bc720228d","61fd91aae15db0e669cef471","7","","","","","0","6"
"null","","","null","","","","html-keyboard-response","467","1319026","0.0-467.0","60fe7594611a2f2bc720228d","61fd91aae15db0e669cef471","","","","","<p style=""color:darkgreen;font-size:24px;"">Correct :)</p>","",""
"2602","key","n","n","16.670967741935485","500","250","psychophysics","468","1321629","0.0-468.0","60fe7594611a2f2bc720228d","61fd91aae15db0e669cef471","7","","","","","1","7"
"null","","","null","","","","html-keyboard-response","469","1322131","0.0-469.0","60fe7594611a2f2bc720228d","61fd91aae15db0e669cef471","","","","","<p style=""color:darkgreen;font-size:24px;"">Correct :)</p>","",""
"2486","key","v","v","16.65771812080537","500","250","psychophysics","470","1324622","0.0-470.0","60fe7594611a2f2bc720228d","61fd91aae15db0e669cef471","7","","","","","0","1"
"null","","","null","","","","html-keyboard-response","471","1325124","0.0-471.0","60fe7594611a2f2bc720228d","61fd91aae15db0e669cef471","","","","","<p style=""color:darkgreen;font-size:24px;"">Correct :)</p>","",""
"2583","key","n","n","16.662337662337663","500","250","psychophysics","472","1327711","0.0-472.0","60fe7594611a2f2bc720228d","61fd91aae15db0e669cef471","7","","","","","1","6"
"null","","","null","","","","html-keyboard-response","473","1328214","0.0-473.0","60fe7594611a2f2bc720228d","61fd91aae15db0e669cef471","","","","","<p style=""color:darkgreen;font-size:24px;"">Correct :)</p>","",""
"2478","key","v","v","16.66216216216216","500","250","psychophysics","474","1330694","0.0-474.0","60fe7594611a2f2bc720228d","61fd91aae15db0e669cef471","7","","","","","1","2"
"null","","","null","","","","html-keyboard-response","475","1331196","0.0-475.0","60fe7594611a2f2bc720228d","61fd91aae15db0e669cef471","","","","","<p style=""color:darkgreen;font-size:24px;"">Correct :)</p>","",""
"2618","key","n","n","16.66025641025641","500","250","psychophysics","476","1333817","0.0-476.0","60fe7594611a2f2bc720228d","61fd91aae15db0e669cef471","7","","","","","0","6"
"null","","","null","","","","html-keyboard-response","477","1334319","0.0-477.0","60fe7594611a2f2bc720228d","61fd91aae15db0e669cef471","","","","","<p style=""color:darkgreen;font-size:24px;"">Correct :)</p>","",""
"2581","key","v","v","16.666666666666668","500","250","psychophysics","478","1336902","0.0-478.0","60fe7594611a2f2bc720228d","61fd91aae15db0e669cef471","7","","","","","0","7"
"null","","","null","","","","html-keyboard-response","479","1337404","0.0-479.0","60fe7594611a2f2bc720228d","61fd91aae15db0e669cef471","","","","","<p style=""color:darkgreen;font-size:24px;"">Correct :)</p>","",""
"2500","key","v","v","16.664429530201343","500","250","psychophysics","480","1339910","0.0-480.0","60fe7594611a2f2bc720228d","61fd91aae15db0e669cef471","7","","","","","0","1"
"null","","","null","","","","html-keyboard-response","481","1340412","0.0-481.0","60fe7594611a2f2bc720228d","61fd91aae15db0e669cef471","","","","","<p style=""color:darkgreen;font-size:24px;"">Correct :)</p>","",""
"3247","key","v","v","16.664948453608247","500","250","psychophysics","482","1343663","0.0-482.0","60fe7594611a2f2bc720228d","61fd91aae15db0e669cef471","7","","","","","1","3"
"null","","","null","","","","html-keyboard-response","483","1344165","0.0-483.0","60fe7594611a2f2bc720228d","61fd91aae15db0e669cef471","","","","","<p style=""color:darkgreen;font-size:24px;"">Correct :)</p>","",""
"2769","key","v","v","16.656626506024097","500","250","psychophysics","484","1346945","0.0-484.0","60fe7594611a2f2bc720228d","61fd91aae15db0e669cef471","7","","","","","0","3"
"null","","","null","","","","html-keyboard-response","485","1347446","0.0-485.0","60fe7594611a2f2bc720228d","61fd91aae15db0e669cef471","","","","","<p style=""color:darkgreen;font-size:24px;"">Correct :)</p>","",""
"2433","key","n","n","16.662068965517243","500","250","psychophysics","486","1349882","0.0-486.0","60fe7594611a2f2bc720228d","61fd91aae15db0e669cef471","7","","","","","1","6"
"null","","","null","","","","html-keyboard-response","487","1350383","0.0-487.0","60fe7594611a2f2bc720228d","61fd91aae15db0e669cef471","","","","","<p style=""color:darkgreen;font-size:24px;"">Correct :)</p>","",""
"2442","key","v","v","16.671232876712327","500","250","psychophysics","488","1352827","0.0-488.0","60fe7594611a2f2bc720228d","61fd91aae15db0e669cef471","7","","","","","0","1"
"null","","","null","","","","html-keyboard-response","489","1353329","0.0-489.0","60fe7594611a2f2bc720228d","61fd91aae15db0e669cef471","","","","","<p style=""color:darkgreen;font-size:24px;"">Correct :)</p>","",""
"2416","key","n","n","16.65972222222222","500","250","psychophysics","490","1355750","0.0-490.0","60fe7594611a2f2bc720228d","61fd91aae15db0e669cef471","7","","","","","1","6"
"null","","","null","","","","html-keyboard-response","491","1356252","0.0-491.0","60fe7594611a2f2bc720228d","61fd91aae15db0e669cef471","","","","","<p style=""color:darkgreen;font-size:24px;"">Correct :)</p>","",""
