"rt","response_type","key_press","response","avg_frame_time","center_x","center_y","trial_type","trial_index","time_elapsed","internal_node_id","pid","sid","phase","guide","targ","resp","stimulus","is5","stim"
"9782","key"," "," ","16.768486348122863","500","250","psychophysics","0","9843","0.0-0.0","Jeff","Jeff","","","","","","",""
"5618","key"," "," ","16.71150447761194","500","250","psychophysics","1","15464","0.0-1.0","Jeff","Jeff","","","","","","",""
"4302","key"," "," ","16.711000000000002","500","250","psychophysics","2","19772","0.0-2.0","Jeff","Jeff","","","","","","",""
"5518","key"," "," ","16.711617021276595","500","250","psychophysics","3","25293","0.0-3.0","Jeff","Jeff","","","","","","",""
"1473","key"," "," ","16.71099999999999","500","250","psychophysics","4","26770","0.0-4.0","Jeff","Jeff","","","","","","",""
"1423","key"," "," ","16.71099999999998","500","250","psychophysics","5","28197","0.0-5.0","Jeff","Jeff","","","","","","",""
"2917","key"," "," ","16.711","500","250","psychophysics","6","31121","0.0-6.0","Jeff","Jeff","","","","","","",""
"6241","key"," "," ","16.71144772117963","500","250","psychophysics","7","37367","0.0-7.0","Jeff","Jeff","","","","","","",""
"2847","key"," "," ","16.711","500","250","psychophysics","8","40216","0.0-8.0","Jeff","Jeff","","","","","","",""
"1628","key"," "," ","16.710999999999967","500","250","psychophysics","9","41849","0.0-9.0","Jeff","Jeff","","","","","","",""
"2933","key"," "," ","16.712102857142828","500","250","psychophysics","10","44785","0.0-10.0","Jeff","Jeff","","","","","","",""
"2070","key"," "," ","16.71100000000001","500","250","psychophysics","11","46858","0.0-11.0","Jeff","Jeff","","","","","","",""
"5209","key"," "," ","16.71100000000002","500","250","psychophysics","12","52070","0.0-12.0","Jeff","Jeff","1","0","27","37","","",""
"4192","key"," "," ","16.71160800000001","500","250","psychophysics","13","56265","0.0-13.0","Jeff","Jeff","1","5","27","35","","",""
"11956","key"," "," ","16.734698457222997","500","250","psychophysics","14","68224","0.0-14.0","Jeff","Jeff","1","0","56","80","","",""
"7050","key"," "," ","16.711452606635053","500","250","psychophysics","15","75281","0.0-15.0","Jeff","Jeff","1","5","38","52","","",""
"6021","key"," "," ","16.710999999999988","500","250","psychophysics","16","81305","0.0-16.0","Jeff","Jeff","1","0","38","50","","",""
"5963","key"," "," ","16.71141011235956","500","250","psychophysics","17","87273","0.0-17.0","Jeff","Jeff","1","5","45","56","","",""
"9228","key"," "," ","16.71135144927536","500","250","psychophysics","18","96507","0.0-18.0","Jeff","Jeff","1","0","45","68","","",""
"7024","key"," "," ","16.711","500","250","psychophysics","19","103534","0.0-19.0","Jeff","Jeff","1","5","60","75","","",""
"8824","key"," "," ","16.71136742424242","500","250","psychophysics","20","112365","0.0-20.0","Jeff","Jeff","1","0","43","62","","",""
"5985","key"," "," ","16.71149579831933","500","250","psychophysics","21","118353","0.0-21.0","Jeff","Jeff","1","5","41","60","","",""
"7836","key"," "," ","16.71132264957263","500","250","psychophysics","22","126193","0.0-22.0","Jeff","Jeff","1","0","39","57","","",""
"4760","key"," "," ","16.710999999999995","500","250","psychophysics","23","130957","0.0-23.0","Jeff","Jeff","1","5","29","43","","",""
"5713","key"," "," ","16.711580645161305","500","250","psychophysics","24","136673","0.0-24.0","Jeff","Jeff","1","0","25","42","","",""
"8008","key"," "," ","16.711425887265108","500","250","psychophysics","25","144690","0.0-25.0","Jeff","Jeff","1","5","50","60","","",""
"9731","key"," "," ","16.71130292598966","500","250","psychophysics","26","154424","0.0-26.0","Jeff","Jeff","1","0","58","65","","",""
"6485","key"," "," ","16.710999999999967","500","250","psychophysics","27","160915","0.0-27.0","Jeff","Jeff","1","5","41","48","","",""
"12503","key"," "," ","16.711232931726904","500","250","psychophysics","28","173421","0.0-28.0","Jeff","Jeff","1","0","51","74","","",""
"6785","key"," "," ","16.7113061728395","500","250","psychophysics","29","180211","0.0-29.0","Jeff","Jeff","1","5","49","62","","",""
"6370","key"," "," ","16.71167454068238","500","250","psychophysics","30","186586","0.0-30.0","Jeff","Jeff","1","0","36","50","","",""
"7307","key"," "," ","16.710999999999963","500","250","psychophysics","31","193896","0.0-31.0","Jeff","Jeff","1","5","40","57","","",""
"1794","key"," "," ","16.712355140186727","500","250","psychophysics","32","195696","0.0-32.0","Jeff","Jeff","","","","","","",""
"2908","key"," "," ","16.71099999999998","500","250","psychophysics","33","198607","0.0-33.0","Jeff","Jeff","","","","","","",""
"2383","key"," "," ","16.710999999999995","500","250","psychophysics","34","200994","0.0-34.0","Jeff","Jeff","","","","","","",""
"19462","key"," "," ","16.72569045571795","500","250","psychophysics","35","220460","0.0-35.0","Jeff","Jeff","2","0","60","86","","",""
"1726","key"," "," ","16.710999999999974","500","250","psychophysics","36","222189","0.0-36.0","Jeff","Jeff","","","","","","",""
"15041","key"," "," ","16.71129111111109","500","250","psychophysics","37","237236","0.0-37.0","Jeff","Jeff","2","0","51","63","","",""
"1984","key"," "," ","16.711000000000134","500","250","psychophysics","38","239223","0.0-38.0","Jeff","Jeff","","","","","","",""
"13554","key"," "," ","16.71135555555556","500","250","psychophysics","39","252780","0.0-39.0","Jeff","Jeff","2","0","55","62","","",""
"3038","key"," "," ","16.711950276243","500","250","psychophysics","40","255821","0.0-40.0","Jeff","Jeff","","","","","","",""
"10685","key"," "," ","16.711296238244515","500","250","psychophysics","41","266507","0.0-41.0","Jeff","Jeff","2","0","48","54","","",""
"1393","key"," "," ","16.710999999999725","500","250","psychophysics","42","267904","0.0-42.0","Jeff","Jeff","","","","","","",""
"5400","key"," "," ","16.71099999999994","500","250","psychophysics","43","273307","0.0-43.0","Jeff","Jeff","2","0","41","41","","",""
"2142","key"," "," ","16.71244094488174","500","250","psychophysics","44","275451","0.0-44.0","Jeff","Jeff","","","","","","",""
"9677","key"," "," ","16.711300518134703","500","250","psychophysics","45","285133","0.0-45.0","Jeff","Jeff","2","0","45","47","","",""
"1703","key"," "," ","16.71099999999987","500","250","psychophysics","46","286839","0.0-46.0","Jeff","Jeff","","","","","","",""
"9061","key"," "," ","16.711354898336403","500","250","psychophysics","47","295902","0.0-47.0","Jeff","Jeff","2","0","56","58","","",""
"1677","key"," "," ","16.71100000000035","500","250","psychophysics","48","297582","0.0-48.0","Jeff","Jeff","","","","","","",""
"7305","key"," "," ","16.711369266055062","500","250","psychophysics","49","304890","0.0-49.0","Jeff","Jeff","2","0","28","31","","",""
"1460","key"," "," ","16.711000000000208","500","250","psychophysics","50","306354","0.0-50.0","Jeff","Jeff","","","","","","",""
"9029","key"," "," ","16.711278293135358","500","250","psychophysics","51","315386","0.0-51.0","Jeff","Jeff","2","0","41","41","","",""
"1283","key"," "," ","16.711000000000286","500","250","psychophysics","52","316671","0.0-52.0","Jeff","Jeff","","","","","","",""
"8824","key"," "," ","16.711316888045545","500","250","psychophysics","53","325498","0.0-53.0","Jeff","Jeff","2","0","34","31","","",""
"2848","key"," "," ","16.711000000000315","500","250","psychophysics","54","328348","0.0-54.0","Jeff","Jeff","","","","","","",""
"9975","key"," "," ","16.711357382550403","500","250","psychophysics","55","338324","0.0-55.0","Jeff","Jeff","2","0","22","25","","",""
"1542","key"," "," ","16.71099999999937","500","250","psychophysics","56","339869","0.0-56.0","Jeff","Jeff","","","","","","",""
"7150","key"," "," ","16.71147072599534","500","250","psychophysics","57","347023","0.0-57.0","Jeff","Jeff","2","0","31","28","","",""
"1698","key"," "," ","16.71099999999987","500","250","psychophysics","58","348724","0.0-58.0","Jeff","Jeff","","","","","","",""
"15219","key"," "," ","16.71119340659339","500","250","psychophysics","59","363946","0.0-59.0","Jeff","Jeff","2","0","56","48","","",""
"1122","key"," "," ","16.71366666666687","500","250","psychophysics","60","365071","0.0-60.0","Jeff","Jeff","","","","","","",""
"13316","key"," "," ","16.711232412060305","500","250","psychophysics","61","378390","0.0-61.0","Jeff","Jeff","2","0","48","49","","",""
"1329","key"," "," ","16.711000000000666","500","250","psychophysics","62","379722","0.0-62.0","Jeff","Jeff","","","","","","",""
"9085","key"," "," ","16.711303867403338","500","250","psychophysics","63","388810","0.0-63.0","Jeff","Jeff","2","0","42","41","","",""
"1144","key"," "," ","16.71099999999982","500","250","psychophysics","64","389958","0.0-64.0","Jeff","Jeff","","","","","","",""
"1963","key"," "," ","16.710999999999796","500","250","psychophysics","65","391927","0.0-65.0","Jeff","Jeff","","","","","","",""
"1530","key"," "," ","16.71100000000001","500","250","psychophysics","66","393459","0.0-66.0","Jeff","Jeff","","","","","","",""
"10635","key"," "," ","16.711297637795273","500","250","psychophysics","67","404097","0.0-67.0","Jeff","Jeff","3","5","42","35","","",""
"8551","key"," "," ","16.71137181996086","500","250","psychophysics","68","412654","0.0-68.0","Jeff","Jeff","3","0","23","24","","",""
"11983","key"," "," ","16.711255230125484","500","250","psychophysics","69","424644","0.0-69.0","Jeff","Jeff","3","5","46","34","","",""
"11042","key"," "," ","16.711533333333367","500","250","psychophysics","70","435690","0.0-70.0","Jeff","Jeff","3","0","37","33","","",""
"5312","key"," "," ","16.711000000000144","500","250","psychophysics","71","441004","0.0-71.0","Jeff","Jeff","3","5","21","26","","",""
"16621","key"," "," ","16.71136217303827","500","250","psychophysics","72","457629","0.0-72.0","Jeff","Jeff","3","0","54","63","","",""
"4576","key"," "," ","16.71100000000001","500","250","psychophysics","73","462208","0.0-73.0","Jeff","Jeff","3","5","32","27","","",""
"7701","key"," "," ","16.711400000000012","500","250","psychophysics","74","469913","0.0-74.0","Jeff","Jeff","3","0","23","24","","",""
"6927","key"," "," ","16.711394673123444","500","250","psychophysics","75","476843","0.0-75.0","Jeff","Jeff","3","5","34","27","","",""
"15874","key"," "," ","16.711190526315782","500","250","psychophysics","76","492724","0.0-76.0","Jeff","Jeff","3","0","49","42","","",""
"5324","key"," "," ","16.71143217665626","500","250","psychophysics","77","498051","0.0-77.0","Jeff","Jeff","3","5","30","21","","",""
"5083","key"," "," ","16.711000000000098","500","250","psychophysics","78","503140","0.0-78.0","Jeff","Jeff","3","0","23","23","","",""
"7499","key"," "," ","17.210995402298842","500","250","psychophysics","79","510641","0.0-79.0","Jeff","Jeff","3","5","44","29","","",""
"9814","key"," "," ","16.71115529010233","500","250","psychophysics","80","520458","0.0-80.0","Jeff","Jeff","3","0","49","49","","",""
"7692","key"," "," ","16.711382608695597","500","250","psychophysics","81","528153","0.0-81.0","Jeff","Jeff","3","5","45","33","","",""
"12840","key"," "," ","16.711237288135557","500","250","psychophysics","82","540997","0.0-82.0","Jeff","Jeff","3","0","48","52","","",""
"8462","key"," "," ","16.711511857707556","500","250","psychophysics","83","549464","0.0-83.0","Jeff","Jeff","3","5","31","23","","",""
"5671","key"," "," ","16.711547337278184","500","250","psychophysics","84","555138","0.0-84.0","Jeff","Jeff","3","0","29","38","","",""
"6176","key"," "," ","16.710999999999835","500","250","psychophysics","85","561318","0.0-85.0","Jeff","Jeff","3","5","40","26","","",""
"8126","key"," "," ","16.7113333333333","500","250","psychophysics","86","569447","0.0-86.0","Jeff","Jeff","3","0","33","44","","",""
"1604","key"," "," ","16.711000000000443","500","250","psychophysics","87","571055","0.0-87.0","Jeff","Jeff","","","","","","",""
"3626","","","v","","","","html-keyboard-response","88","574683","0.0-88.0","Jeff","Jeff","","","","","<p> In this part of the experiment, we are going present digits 2, 3, 4, 6, 7, and 8.  Your job is to say whether the digit is less than or greater than 5.  For example, 3 is less than 5 and 7 is greater than 5.  If the digit is less than 5, press to v key; if it is greater than 5, press the n key. We are going to do 200 of these in total, but only 50 righ now. They go real fast.</p>  <br><br>  Ready? (press v or n)","",""
"2916","key","n","n","16.712011428571174","500","250","psychophysics","89","577606","0.0-89.0","Jeff","Jeff","4","","","","","1","6"
"null","","","null","","","","html-keyboard-response","90","578108","0.0-90.0","Jeff","Jeff","","","","","<p style=""color:darkgreen;font-size:24px;"">Correct :)</p>","",""
"2526","key","v","v","16.711000000000222","500","250","psychophysics","91","580638","0.0-91.0","Jeff","Jeff","4","","","","","1","2"
"null","","","null","","","","html-keyboard-response","92","581140","0.0-92.0","Jeff","Jeff","","","","","<p style=""color:darkgreen;font-size:24px;"">Correct :)</p>","",""
"2729","key","v","v","16.710999999999597","500","250","psychophysics","93","583873","0.0-93.0","Jeff","Jeff","4","","","","","1","4"
"null","","","null","","","","html-keyboard-response","94","584378","0.0-94.0","Jeff","Jeff","","","","","<p style=""color:darkgreen;font-size:24px;"">Correct :)</p>","",""
"2825","key","v","v","16.712142011834743","500","250","psychophysics","95","587207","0.0-95.0","Jeff","Jeff","4","","","","","1","2"
"null","","","null","","","","html-keyboard-response","96","587710","0.0-96.0","Jeff","Jeff","","","","","<p style=""color:darkgreen;font-size:24px;"">Correct :)</p>","",""
"2759","key","v","v","16.711000000000368","500","250","psychophysics","97","590472","0.0-97.0","Jeff","Jeff","4","","","","","1","3"
"null","","","null","","","","html-keyboard-response","98","590977","0.0-98.0","Jeff","Jeff","","","","","<p style=""color:darkgreen;font-size:24px;"">Correct :)</p>","",""
"2559","key","n","n","16.711000000000354","500","250","psychophysics","99","593540","0.0-99.0","Jeff","Jeff","4","","","","","1","6"
"null","","","null","","","","html-keyboard-response","100","594046","0.0-100.0","Jeff","Jeff","","","","","<p style=""color:darkgreen;font-size:24px;"">Correct :)</p>","",""
"2801","key","n","n","16.711502994011955","500","250","psychophysics","101","596850","0.0-101.0","Jeff","Jeff","4","","","","","1","7"
"null","","","null","","","","html-keyboard-response","102","597355","0.0-102.0","Jeff","Jeff","","","","","<p style=""color:darkgreen;font-size:24px;"">Correct :)</p>","",""
"2673","key","n","n","16.71100000000006","500","250","psychophysics","103","600031","0.0-103.0","Jeff","Jeff","4","","","","","1","8"
"null","","","null","","","","html-keyboard-response","104","600536","0.0-104.0","Jeff","Jeff","","","","","<p style=""color:darkgreen;font-size:24px;"">Correct :)</p>","",""
"2632","key","n","n","16.71099999999993","500","250","psychophysics","105","603172","0.0-105.0","Jeff","Jeff","4","","","","","1","6"
"null","","","null","","","","html-keyboard-response","106","603673","0.0-106.0","Jeff","Jeff","","","","","<p style=""color:darkgreen;font-size:24px;"">Correct :)</p>","",""
"2611","key","v","v","16.712858974359012","500","250","psychophysics","107","606288","0.0-107.0","Jeff","Jeff","4","","","","","1","4"
"null","","","null","","","","html-keyboard-response","108","606793","0.0-108.0","Jeff","Jeff","","","","","<p style=""color:darkgreen;font-size:24px;"">Correct :)</p>","",""
"2627","key","v","v","16.71099999999993","500","250","psychophysics","109","609425","0.0-109.0","Jeff","Jeff","4","","","","","1","2"
"null","","","null","","","","html-keyboard-response","110","609930","0.0-110.0","Jeff","Jeff","","","","","<p style=""color:darkgreen;font-size:24px;"">Correct :)</p>","",""
"2631","key","v","v","16.71099999999993","500","250","psychophysics","111","612565","0.0-111.0","Jeff","Jeff","4","","","","","1","3"
"null","","","null","","","","html-keyboard-response","112","613070","0.0-112.0","Jeff","Jeff","","","","","<p style=""color:darkgreen;font-size:24px;"">Correct :)</p>","",""
"2498","key","v","v","16.711409395973153","500","250","psychophysics","113","615570","0.0-113.0","Jeff","Jeff","4","","","","","1","3"
"null","","","null","","","","html-keyboard-response","114","616072","0.0-114.0","Jeff","Jeff","","","","","<p style=""color:darkgreen;font-size:24px;"">Correct :)</p>","",""
"2700","key","n","n","16.711000000000123","500","250","psychophysics","115","618775","0.0-115.0","Jeff","Jeff","4","","","","","1","7"
"null","","","null","","","","html-keyboard-response","116","619276","0.0-116.0","Jeff","Jeff","","","","","<p style=""color:darkgreen;font-size:24px;"">Correct :)</p>","",""
"2692","key","v","v","16.710999999999466","500","250","psychophysics","117","621974","0.0-117.0","Jeff","Jeff","4","","","","","1","4"
"null","","","null","","","","html-keyboard-response","118","622475","0.0-118.0","Jeff","Jeff","","","","","<p style=""color:darkgreen;font-size:24px;"">Correct :)</p>","",""
"2589","key","v","v","16.71099999999973","500","250","psychophysics","119","625067","0.0-119.0","Jeff","Jeff","4","","","","","1","2"
"null","","","null","","","","html-keyboard-response","120","625573","0.0-120.0","Jeff","Jeff","","","","","<p style=""color:darkgreen;font-size:24px;"">Correct :)</p>","",""
"2563","key","n","n","16.712259740260272","500","250","psychophysics","121","628139","0.0-121.0","Jeff","Jeff","4","","","","","1","8"
"null","","","null","","","","html-keyboard-response","122","628645","0.0-122.0","Jeff","Jeff","","","","","<p style=""color:darkgreen;font-size:24px;"">Correct :)</p>","",""
"2506","key","v","v","16.711000000000155","500","250","psychophysics","123","631154","0.0-123.0","Jeff","Jeff","4","","","","","1","2"
"null","","","null","","","","html-keyboard-response","124","631656","0.0-124.0","Jeff","Jeff","","","","","<p style=""color:darkgreen;font-size:24px;"">Correct :)</p>","",""
"2568","key","n","n","16.711000000000418","500","250","psychophysics","125","634228","0.0-125.0","Jeff","Jeff","4","","","","","1","6"
"null","","","null","","","","html-keyboard-response","126","634733","0.0-126.0","Jeff","Jeff","","","","","<p style=""color:darkgreen;font-size:24px;"">Correct :)</p>","",""
"2460","key","n","n","16.713006756756915","500","250","psychophysics","127","637197","0.0-127.0","Jeff","Jeff","4","","","","","1","7"
"null","","","null","","","","html-keyboard-response","128","637698","0.0-128.0","Jeff","Jeff","","","","","<p style=""color:darkgreen;font-size:24px;"">Correct :)</p>","",""
"2664","key","n","n","16.710999999999995","500","250","psychophysics","129","640366","0.0-129.0","Jeff","Jeff","4","","","","","1","6"
"null","","","null","","","","html-keyboard-response","130","640867","0.0-130.0","Jeff","Jeff","","","","","<p style=""color:darkgreen;font-size:24px;"">Correct :)</p>","",""
"2569","key","n","n","16.711000000000418","500","250","psychophysics","131","643441","0.0-131.0","Jeff","Jeff","4","","","","","1","7"
"null","","","null","","","","html-keyboard-response","132","643946","0.0-132.0","Jeff","Jeff","","","","","<p style=""color:darkgreen;font-size:24px;"">Correct :)</p>","",""
"2693","key","v","v","16.711975155279664","500","250","psychophysics","133","646643","0.0-133.0","Jeff","Jeff","4","","","","","1","4"
"null","","","null","","","","html-keyboard-response","134","647148","0.0-134.0","Jeff","Jeff","","","","","<p style=""color:darkgreen;font-size:24px;"">Correct :)</p>","",""
"2463","key","n","n","16.71100000000002","500","250","psychophysics","135","649615","0.0-135.0","Jeff","Jeff","4","","","","","1","8"
"null","","","null","","","","html-keyboard-response","136","650120","0.0-136.0","Jeff","Jeff","","","","","<p style=""color:darkgreen;font-size:24px;"">Correct :)</p>","",""
"2494","key","v","v","16.711000000000087","500","250","psychophysics","137","652618","0.0-137.0","Jeff","Jeff","4","","","","","1","2"
"null","","","null","","","","html-keyboard-response","138","653120","0.0-138.0","Jeff","Jeff","","","","","<p style=""color:darkgreen;font-size:24px;"">Correct :)</p>","",""
"2563","key","n","n","16.710999999999594","500","250","psychophysics","139","655686","0.0-139.0","Jeff","Jeff","4","","","","","1","6"
"null","","","null","","","","html-keyboard-response","140","656191","0.0-140.0","Jeff","Jeff","","","","","<p style=""color:darkgreen;font-size:24px;"">Correct :)</p>","",""
"2556","key","n","n","16.710999999999594","500","250","psychophysics","141","658752","0.0-141.0","Jeff","Jeff","4","","","","","1","7"
"null","","","null","","","","html-keyboard-response","142","659254","0.0-142.0","Jeff","Jeff","","","","","<p style=""color:darkgreen;font-size:24px;"">Correct :)</p>","",""
"2608","key","v","v","16.711000000000542","500","250","psychophysics","143","661867","0.0-143.0","Jeff","Jeff","4","","","","","1","4"
"null","","","null","","","","html-keyboard-response","144","662368","0.0-144.0","Jeff","Jeff","","","","","<p style=""color:darkgreen;font-size:24px;"">Correct :)</p>","",""
"2438","key","v","v","16.710999999999878","500","250","psychophysics","145","664810","0.0-145.0","Jeff","Jeff","4","","","","","1","4"
"null","","","null","","","","html-keyboard-response","146","665315","0.0-146.0","Jeff","Jeff","","","","","<p style=""color:darkgreen;font-size:24px;"">Correct :)</p>","",""
"2551","key","n","n","16.71274509803876","500","250","psychophysics","147","667870","0.0-147.0","Jeff","Jeff","4","","","","","1","6"
"null","","","null","","","","html-keyboard-response","148","668371","0.0-148.0","Jeff","Jeff","","","","","<p style=""color:darkgreen;font-size:24px;"">Correct :)</p>","",""
"2399","key","n","n","16.710999999999736","500","250","psychophysics","149","670774","0.0-149.0","Jeff","Jeff","4","","","","","1","6"
"null","","","null","","","","html-keyboard-response","150","671279","0.0-150.0","Jeff","Jeff","","","","","<p style=""color:darkgreen;font-size:24px;"">Correct :)</p>","",""
"2424","key","n","n","16.710999999999807","500","250","psychophysics","151","673707","0.0-151.0","Jeff","Jeff","4","","","","","1","8"
"null","","","null","","","","html-keyboard-response","152","674212","0.0-152.0","Jeff","Jeff","","","","","<p style=""color:darkgreen;font-size:24px;"">Correct :)</p>","",""
"2426","key","n","n","16.711613793103506","500","250","psychophysics","153","676640","0.0-153.0","Jeff","Jeff","4","","","","","1","7"
"null","","","null","","","","html-keyboard-response","154","677141","0.0-154.0","Jeff","Jeff","","","","","<p style=""color:darkgreen;font-size:24px;"">Correct :)</p>","",""
"2494","key","n","n","16.711000000000087","500","250","psychophysics","155","679639","0.0-155.0","Jeff","Jeff","4","","","","","1","6"
"null","","","null","","","","html-keyboard-response","156","680143","0.0-156.0","Jeff","Jeff","","","","","<p style=""color:darkgreen;font-size:24px;"">Correct :)</p>","",""
"2557","key","n","n","16.711000000000354","500","250","psychophysics","157","682704","0.0-157.0","Jeff","Jeff","4","","","","","1","8"
"null","","","null","","","","html-keyboard-response","158","683209","0.0-158.0","Jeff","Jeff","","","","","<p style=""color:darkgreen;font-size:24px;"">Correct :)</p>","",""
"2432","key","n","n","16.710999999999878","500","250","psychophysics","159","685645","0.0-159.0","Jeff","Jeff","4","","","","","1","6"
"null","","","null","","","","html-keyboard-response","160","686148","0.0-160.0","Jeff","Jeff","","","","","<p style=""color:darkgreen;font-size:24px;"">Correct :)</p>","",""
"2403","key","n","n","16.712368055555594","500","250","psychophysics","161","688555","0.0-161.0","Jeff","Jeff","4","","","","","1","8"
"null","","","null","","","","html-keyboard-response","162","689058","0.0-162.0","Jeff","Jeff","","","","","<p style=""color:darkgreen;font-size:24px;"">Correct :)</p>","",""
"2440","key","n","n","16.710999999999878","500","250","psychophysics","163","691502","0.0-163.0","Jeff","Jeff","4","","","","","1","7"
"null","","","null","","","","html-keyboard-response","164","692007","0.0-164.0","Jeff","Jeff","","","","","<p style=""color:darkgreen;font-size:24px;"">Correct :)</p>","",""
"2444","key","n","n","16.711000000000677","500","250","psychophysics","165","694454","0.0-165.0","Jeff","Jeff","4","","","","","1","7"
"null","","","null","","","","html-keyboard-response","166","694959","0.0-166.0","Jeff","Jeff","","","","","<p style=""color:darkgreen;font-size:24px;"">Correct :)</p>","",""
"2544","key","v","v","16.71283552631595","500","250","psychophysics","167","697508","0.0-167.0","Jeff","Jeff","4","","","","","1","2"
"null","","","null","","","","html-keyboard-response","168","698010","0.0-168.0","Jeff","Jeff","","","","","<p style=""color:darkgreen;font-size:24px;"">Correct :)</p>","",""
"2567","key","v","v","16.710999999999594","500","250","psychophysics","169","700580","0.0-169.0","Jeff","Jeff","4","","","","","1","4"
"null","","","null","","","","html-keyboard-response","170","701082","0.0-170.0","Jeff","Jeff","","","","","<p style=""color:darkgreen;font-size:24px;"">Correct :)</p>","",""
"2569","key","n","n","16.710999999999594","500","250","psychophysics","171","703655","0.0-171.0","Jeff","Jeff","4","","","","","1","7"
"null","","","null","","","","html-keyboard-response","172","704158","0.0-172.0","Jeff","Jeff","","","","","<p style=""color:darkgreen;font-size:24px;"">Correct :)</p>","",""
"2560","key","n","n","16.71175163398646","500","250","psychophysics","173","706722","0.0-173.0","Jeff","Jeff","4","","","","","1","6"
"null","","","null","","","","html-keyboard-response","174","707223","0.0-174.0","Jeff","Jeff","","","","","<p style=""color:darkgreen;font-size:24px;"">Correct :)</p>","",""
"2535","key","v","v","16.710999999999522","500","250","psychophysics","175","709761","0.0-175.0","Jeff","Jeff","4","","","","","1","2"
"null","","","null","","","","html-keyboard-response","176","710266","0.0-176.0","Jeff","Jeff","","","","","<p style=""color:darkgreen;font-size:24px;"">Correct :)</p>","",""
"2564","key","v","v","16.71099999999966","500","250","psychophysics","177","712834","0.0-177.0","Jeff","Jeff","4","","","","","1","2"
"null","","","null","","","","html-keyboard-response","178","713339","0.0-178.0","Jeff","Jeff","","","","","<p style=""color:darkgreen;font-size:24px;"">Correct :)</p>","",""
"2419","key","v","v","16.71100000000061","500","250","psychophysics","179","715762","0.0-179.0","Jeff","Jeff","4","","","","","1","2"
"null","","","null","","","","html-keyboard-response","180","716267","0.0-180.0","Jeff","Jeff","","","","","<p style=""color:darkgreen;font-size:24px;"">Correct :)</p>","",""
"2465","key","n","n","16.71195945945943","500","250","psychophysics","181","718735","0.0-181.0","Jeff","Jeff","4","","","","","1","8"
"null","","","null","","","","html-keyboard-response","182","719237","0.0-182.0","Jeff","Jeff","","","","","<p style=""color:darkgreen;font-size:24px;"">Correct :)</p>","",""
"2498","key","n","n","16.711000000000087","500","250","psychophysics","183","721738","0.0-183.0","Jeff","Jeff","4","","","","","1","6"
"null","","","null","","","","html-keyboard-response","184","722240","0.0-184.0","Jeff","Jeff","","","","","<p style=""color:darkgreen;font-size:24px;"">Correct :)</p>","",""
"2515","key","v","v","16.711000000000155","500","250","psychophysics","185","724759","0.0-185.0","Jeff","Jeff","4","","","","","1","3"
"null","","","null","","","","html-keyboard-response","186","725265","0.0-186.0","Jeff","Jeff","","","","","<p style=""color:darkgreen;font-size:24px;"">Correct :)</p>","",""
"2500","key","n","n","16.712906040268443","500","250","psychophysics","187","727768","0.0-187.0","Jeff","Jeff","4","","","","","1","8"
"null","","","null","","","","html-keyboard-response","188","728273","0.0-188.0","Jeff","Jeff","","","","","<p style=""color:darkgreen;font-size:24px;"">Correct :)</p>","",""
"18939","","","v","","","","html-keyboard-response","189","747214","0.0-189.0","Jeff","Jeff","","","","","<p> Ok, now we are going present the same digits as before.  Your job is to say whether the digit is even or odd  If the digit is even, press to v key; if it is odd, press the n key. </p>  <br><br>  Ready? (press v or n)","",""
"3074","key","n","n","16.71303804347838","500","250","psychophysics","190","750292","0.0-190.0","Jeff","Jeff","5","","","","","0","2"
"null","","","null","","","","html-keyboard-response","191","750797","0.0-191.0","Jeff","Jeff","","","","","<p style=""color:darkgreen;font-size:24px;"">Correct :)</p>","",""
"2469","key","n","n","16.71100000000002","500","250","psychophysics","192","753271","0.0-192.0","Jeff","Jeff","5","","","","","0","2"
"null","","","null","","","","html-keyboard-response","193","753773","0.0-193.0","Jeff","Jeff","","","","","<p style=""color:darkgreen;font-size:24px;"">Correct :)</p>","",""
"2648","key","v","v","16.710999999999995","500","250","psychophysics","194","756426","0.0-194.0","Jeff","Jeff","5","","","","","0","3"
"null","","","null","","","","html-keyboard-response","195","756927","0.0-195.0","Jeff","Jeff","","","","","<p style=""color:darkgreen;font-size:24px;"">Correct :)</p>","",""
"2474","key","n","n","16.711527027026907","500","250","psychophysics","196","759405","0.0-196.0","Jeff","Jeff","5","","","","","0","8"
"null","","","null","","","","html-keyboard-response","197","759906","0.0-197.0","Jeff","Jeff","","","","","<p style=""color:darkgreen;font-size:24px;"">Correct :)</p>","",""
"2698","key","n","n","16.710999999999466","500","250","psychophysics","198","762608","0.0-198.0","Jeff","Jeff","5","","","","","0","2"
"null","","","null","","","","html-keyboard-response","199","763113","0.0-199.0","Jeff","Jeff","","","","","<p style=""color:darkgreen;font-size:24px;"">Correct :)</p>","",""
"2597","key","n","n","16.710999999999796","500","250","psychophysics","200","765716","0.0-200.0","Jeff","Jeff","5","","","","","0","7"
"null","","","null","","","","html-keyboard-response","201","766221","0.0-201.0","Jeff","Jeff","","","","","<p style=""color:red;font-size:24px;"">Error :(</p>","",""
"2553","key","v","v","16.71284967320256","500","250","psychophysics","202","768778","0.0-202.0","Jeff","Jeff","5","","","","","0","7"
"null","","","null","","","","html-keyboard-response","203","769283","0.0-203.0","Jeff","Jeff","","","","","<p style=""color:darkgreen;font-size:24px;"">Correct :)</p>","",""
"2655","key","v","v","16.71099999999993","500","250","psychophysics","204","771942","0.0-204.0","Jeff","Jeff","5","","","","","0","7"
"null","","","null","","","","html-keyboard-response","205","772447","0.0-205.0","Jeff","Jeff","","","","","<p style=""color:darkgreen;font-size:24px;"">Correct :)</p>","",""
"2613","key","n","n","16.710999999999796","500","250","psychophysics","206","775064","0.0-206.0","Jeff","Jeff","5","","","","","0","2"
"null","","","null","","","","html-keyboard-response","207","775568","0.0-207.0","Jeff","Jeff","","","","","<p style=""color:darkgreen;font-size:24px;"">Correct :)</p>","",""
"2485","key","n","n","16.71215540540524","500","250","psychophysics","208","778057","0.0-208.0","Jeff","Jeff","5","","","","","0","2"
"null","","","null","","","","html-keyboard-response","209","778562","0.0-209.0","Jeff","Jeff","","","","","<p style=""color:darkgreen;font-size:24px;"">Correct :)</p>","",""
"2633","key","n","n","16.710999999999864","500","250","psychophysics","210","781199","0.0-210.0","Jeff","Jeff","5","","","","","0","8"
"null","","","null","","","","html-keyboard-response","211","781701","0.0-211.0","Jeff","Jeff","","","","","<p style=""color:darkgreen;font-size:24px;"">Correct :)</p>","",""
"2474","key","v","v","16.71100000000002","500","250","psychophysics","212","784179","0.0-212.0","Jeff","Jeff","5","","","","","0","7"
"null","","","null","","","","html-keyboard-response","213","784684","0.0-213.0","Jeff","Jeff","","","","","<p style=""color:darkgreen;font-size:24px;"">Correct :)</p>","",""
"2649","key","v","v","16.710999999999995","500","250","psychophysics","214","787338","0.0-214.0","Jeff","Jeff","5","","","","","0","3"
"null","","","null","","","","html-keyboard-response","215","787843","0.0-215.0","Jeff","Jeff","","","","","<p style=""color:darkgreen;font-size:24px;"">Correct :)</p>","",""
"2568","key","n","n","16.712097402597784","500","250","psychophysics","216","790415","0.0-216.0","Jeff","Jeff","5","","","","","0","6"
"null","","","null","","","","html-keyboard-response","217","790917","0.0-217.0","Jeff","Jeff","","","","","<p style=""color:darkgreen;font-size:24px;"">Correct :)</p>","",""
"3079","key","n","n","16.711000000000123","500","250","psychophysics","218","794000","0.0-218.0","Jeff","Jeff","5","","","","","0","4"
"null","","","null","","","","html-keyboard-response","219","794505","0.0-219.0","Jeff","Jeff","","","","","<p style=""color:darkgreen;font-size:24px;"">Correct :)</p>","",""
"2642","key","v","v","16.71099999999993","500","250","psychophysics","220","797149","0.0-220.0","Jeff","Jeff","5","","","","","0","3"
"null","","","null","","","","html-keyboard-response","221","797651","0.0-221.0","Jeff","Jeff","","","","","<p style=""color:darkgreen;font-size:24px;"">Correct :)</p>","",""
"2545","key","v","v","16.711921052631194","500","250","psychophysics","222","800199","0.0-222.0","Jeff","Jeff","5","","","","","0","7"
"null","","","null","","","","html-keyboard-response","223","800700","0.0-223.0","Jeff","Jeff","","","","","<p style=""color:darkgreen;font-size:24px;"">Correct :)</p>","",""
"2588","key","n","n","16.71100000000048","500","250","psychophysics","224","803290","0.0-224.0","Jeff","Jeff","5","","","","","0","6"
"null","","","null","","","","html-keyboard-response","225","803791","0.0-225.0","Jeff","Jeff","","","","","<p style=""color:darkgreen;font-size:24px;"">Correct :)</p>","",""
"2764","key","n","n","16.711000000000425","500","250","psychophysics","226","806558","0.0-226.0","Jeff","Jeff","5","","","","","0","6"
"null","","","null","","","","html-keyboard-response","227","807058","0.0-227.0","Jeff","Jeff","","","","","<p style=""color:darkgreen;font-size:24px;"">Correct :)</p>","",""
"2963","key","n","n","16.711768361581964","500","250","psychophysics","228","810023","0.0-228.0","Jeff","Jeff","5","","","","","0","8"
"null","","","null","","","","html-keyboard-response","229","810528","0.0-229.0","Jeff","Jeff","","","","","<p style=""color:darkgreen;font-size:24px;"">Correct :)</p>","",""
"2994","key","n","n","16.71099999999984","500","250","psychophysics","230","813524","0.0-230.0","Jeff","Jeff","5","","","","","0","2"
"null","","","null","","","","html-keyboard-response","231","814025","0.0-231.0","Jeff","Jeff","","","","","<p style=""color:darkgreen;font-size:24px;"">Correct :)</p>","",""
"2462","key","v","v","16.71099999999995","500","250","psychophysics","232","816489","0.0-232.0","Jeff","Jeff","5","","","","","0","7"
"null","","","null","","","","html-keyboard-response","233","816994","0.0-233.0","Jeff","Jeff","","","","","<p style=""color:darkgreen;font-size:24px;"">Correct :)</p>","",""
"2590","key","v","v","16.71216129032264","500","250","psychophysics","234","819589","0.0-234.0","Jeff","Jeff","5","","","","","0","7"
"null","","","null","","","","html-keyboard-response","235","820094","0.0-235.0","Jeff","Jeff","","","","","<p style=""color:darkgreen;font-size:24px;"">Correct :)</p>","",""
"2640","key","v","v","16.71099999999993","500","250","psychophysics","236","822738","0.0-236.0","Jeff","Jeff","5","","","","","0","7"
"null","","","null","","","","html-keyboard-response","237","823243","0.0-237.0","Jeff","Jeff","","","","","<p style=""color:darkgreen;font-size:24px;"">Correct :)</p>","",""
"2517","key","n","n","16.71099999999945","500","250","psychophysics","238","825764","0.0-238.0","Jeff","Jeff","5","","","","","0","6"
"null","","","null","","","","html-keyboard-response","239","826269","0.0-239.0","Jeff","Jeff","","","","","<p style=""color:darkgreen;font-size:24px;"">Correct :)</p>","",""
"2397","key","n","n","16.713027972027895","500","250","psychophysics","240","828670","0.0-240.0","Jeff","Jeff","5","","","","","0","6"
"null","","","null","","","","html-keyboard-response","241","829171","0.0-241.0","Jeff","Jeff","","","","","<p style=""color:darkgreen;font-size:24px;"">Correct :)</p>","",""
"2648","key","v","v","16.710999999999995","500","250","psychophysics","242","831822","0.0-242.0","Jeff","Jeff","5","","","","","0","3"
"null","","","null","","","","html-keyboard-response","243","832323","0.0-243.0","Jeff","Jeff","","","","","<p style=""color:darkgreen;font-size:24px;"">Correct :)</p>","",""
"2680","key","n","n","16.71099999999933","500","250","psychophysics","244","835006","0.0-244.0","Jeff","Jeff","5","","","","","0","4"
"null","","","null","","","","html-keyboard-response","245","835508","0.0-245.0","Jeff","Jeff","","","","","<p style=""color:darkgreen;font-size:24px;"">Correct :)</p>","",""
"2715","key","n","n","16.712030674846545","500","250","psychophysics","246","838228","0.0-246.0","Jeff","Jeff","5","","","","","0","2"
"null","","","null","","","","html-keyboard-response","247","838733","0.0-247.0","Jeff","Jeff","","","","","<p style=""color:darkgreen;font-size:24px;"">Correct :)</p>","",""
"2539","key","v","v","16.711000000000286","500","250","psychophysics","248","841274","0.0-248.0","Jeff","Jeff","5","","","","","0","3"
"null","","","null","","","","html-keyboard-response","249","841779","0.0-249.0","Jeff","Jeff","","","","","<p style=""color:darkgreen;font-size:24px;"">Correct :)</p>","",""
"2641","key","n","n","16.71099999999993","500","250","psychophysics","250","844425","0.0-250.0","Jeff","Jeff","5","","","","","0","6"
"null","","","null","","","","html-keyboard-response","251","844928","0.0-251.0","Jeff","Jeff","","","","","<p style=""color:darkgreen;font-size:24px;"">Correct :)</p>","",""
"3128","key","n","n","16.71200534759368","500","250","psychophysics","252","848059","0.0-252.0","Jeff","Jeff","5","","","","","0","2"
"null","","","null","","","","html-keyboard-response","253","848561","0.0-253.0","Jeff","Jeff","","","","","<p style=""color:darkgreen;font-size:24px;"">Correct :)</p>","",""
"2510","key","n","n","16.711000000000222","500","250","psychophysics","254","851078","0.0-254.0","Jeff","Jeff","5","","","","","0","4"
"null","","","null","","","","html-keyboard-response","255","851579","0.0-255.0","Jeff","Jeff","","","","","<p style=""color:darkgreen;font-size:24px;"">Correct :)</p>","",""
"2685","key","v","v","16.711000000000123","500","250","psychophysics","256","854268","0.0-256.0","Jeff","Jeff","5","","","","","0","3"
"null","","","null","","","","html-keyboard-response","257","854770","0.0-257.0","Jeff","Jeff","","","","","<p style=""color:darkgreen;font-size:24px;"">Correct :)</p>","",""
"2514","key","n","n","16.711000000000155","500","250","psychophysics","258","857287","0.0-258.0","Jeff","Jeff","5","","","","","0","8"
"null","","","null","","","","html-keyboard-response","259","857789","0.0-259.0","Jeff","Jeff","","","","","<p style=""color:darkgreen;font-size:24px;"">Correct :)</p>","",""
"2526","key","n","n","16.71213907284804","500","250","psychophysics","260","860318","0.0-260.0","Jeff","Jeff","5","","","","","0","6"
"null","","","null","","","","html-keyboard-response","261","860823","0.0-261.0","Jeff","Jeff","","","","","<p style=""color:darkgreen;font-size:24px;"">Correct :)</p>","",""
"2653","key","v","v","16.710999999999995","500","250","psychophysics","262","863480","0.0-262.0","Jeff","Jeff","5","","","","","0","7"
"null","","","null","","","","html-keyboard-response","263","863985","0.0-263.0","Jeff","Jeff","","","","","<p style=""color:darkgreen;font-size:24px;"">Correct :)</p>","",""
"2683","key","v","v","16.711000000000123","500","250","psychophysics","264","866673","0.0-264.0","Jeff","Jeff","5","","","","","0","7"
"null","","","null","","","","html-keyboard-response","265","867179","0.0-265.0","Jeff","Jeff","","","","","<p style=""color:darkgreen;font-size:24px;"">Correct :)</p>","",""
"2737","key","n","n","16.712165644171684","500","250","psychophysics","266","869920","0.0-266.0","Jeff","Jeff","5","","","","","0","2"
"null","","","null","","","","html-keyboard-response","267","870424","0.0-267.0","Jeff","Jeff","","","","","<p style=""color:darkgreen;font-size:24px;"">Correct :)</p>","",""
"2815","key","n","n","16.71099999999985","500","250","psychophysics","268","873243","0.0-268.0","Jeff","Jeff","5","","","","","0","4"
"null","","","null","","","","html-keyboard-response","269","873748","0.0-269.0","Jeff","Jeff","","","","","<p style=""color:darkgreen;font-size:24px;"">Correct :)</p>","",""
"2669","key","v","v","16.710999999999995","500","250","psychophysics","270","876421","0.0-270.0","Jeff","Jeff","5","","","","","0","7"
"null","","","null","","","","html-keyboard-response","271","876924","0.0-271.0","Jeff","Jeff","","","","","<p style=""color:darkgreen;font-size:24px;"">Correct :)</p>","",""
"2558","key","n","n","16.71216993464014","500","250","psychophysics","272","879486","0.0-272.0","Jeff","Jeff","5","","","","","0","8"
"null","","","null","","","","html-keyboard-response","273","879988","0.0-273.0","Jeff","Jeff","","","","","<p style=""color:darkgreen;font-size:24px;"">Correct :)</p>","",""
"2739","key","n","n","16.710999999999597","500","250","psychophysics","274","882731","0.0-274.0","Jeff","Jeff","5","","","","","0","6"
"null","","","null","","","","html-keyboard-response","275","883232","0.0-275.0","Jeff","Jeff","","","","","<p style=""color:darkgreen;font-size:24px;"">Correct :)</p>","",""
"2475","key","n","n","16.71100000000002","500","250","psychophysics","276","885710","0.0-276.0","Jeff","Jeff","5","","","","","0","2"
"null","","","null","","","","html-keyboard-response","277","886215","0.0-277.0","Jeff","Jeff","","","","","<p style=""color:darkgreen;font-size:24px;"">Correct :)</p>","",""
"3007","key","n","n","16.71199444444436","500","250","psychophysics","278","889226","0.0-278.0","Jeff","Jeff","5","","","","","0","8"
"null","","","null","","","","html-keyboard-response","279","889730","0.0-279.0","Jeff","Jeff","","","","","<p style=""color:darkgreen;font-size:24px;"">Correct :)</p>","",""
"2619","key","v","v","16.710999999999864","500","250","psychophysics","280","892353","0.0-280.0","Jeff","Jeff","5","","","","","0","3"
"null","","","null","","","","html-keyboard-response","281","892856","0.0-281.0","Jeff","Jeff","","","","","<p style=""color:darkgreen;font-size:24px;"">Correct :)</p>","",""
"2742","key","n","n","16.710999999999597","500","250","psychophysics","282","895600","0.0-282.0","Jeff","Jeff","5","","","","","0","2"
"null","","","null","","","","html-keyboard-response","283","896105","0.0-283.0","Jeff","Jeff","","","","","<p style=""color:darkgreen;font-size:24px;"">Correct :)</p>","",""
"2718","key","n","n","16.712055214723584","500","250","psychophysics","284","898827","0.0-284.0","Jeff","Jeff","5","","","","","0","2"
"null","","","null","","","","html-keyboard-response","285","899332","0.0-285.0","Jeff","Jeff","","","","","<p style=""color:darkgreen;font-size:24px;"">Correct :)</p>","",""
"2482","key","n","n","16.710999999999306","500","250","psychophysics","286","901819","0.0-286.0","Jeff","Jeff","5","","","","","0","4"
"null","","","null","","","","html-keyboard-response","287","902324","0.0-287.0","Jeff","Jeff","","","","","<p style=""color:darkgreen;font-size:24px;"">Correct :)</p>","",""
"2583","key","n","n","16.71099999999973","500","250","psychophysics","288","904911","0.0-288.0","Jeff","Jeff","5","","","","","0","4"
"null","","","null","","","","html-keyboard-response","289","905414","0.0-289.0","Jeff","Jeff","","","","","<p style=""color:darkgreen;font-size:24px;"">Correct :)</p>","",""
"18212","","","v","","","","html-keyboard-response","290","923628","0.0-290.0","Jeff","Jeff","","","","","<p> Last part of the experiment. Here, the tasks are going to switch.  For some trials, your job is to decide if the digit is less than or greater than 5.  For others, it is to decide if the digit is even or odd.  You will be told which type of trial the current one is.  But, pay attention, the type of trial changes too.</p>  <br><br>  Ready? (press v or n)","",""
"2867","key","v","v","16.71368604651138","500","250","psychophysics","291","926499","0.0-291.0","Jeff","Jeff","6","","","","","0","3"
"null","","","null","","","","html-keyboard-response","292","927004","0.0-292.0","Jeff","Jeff","","","","","<p style=""color:darkgreen;font-size:24px;"">Correct :)</p>","",""
"2482","key","v","v","16.711000000000087","500","250","psychophysics","293","929490","0.0-293.0","Jeff","Jeff","6","","","","","0","3"
"null","","","null","","","","html-keyboard-response","294","929991","0.0-294.0","Jeff","Jeff","","","","","<p style=""color:darkgreen;font-size:24px;"">Correct :)</p>","",""
"2701","key","n","n","16.710999999999466","500","250","psychophysics","295","932695","0.0-295.0","Jeff","Jeff","6","","","","","1","6"
"null","","","null","","","","html-keyboard-response","296","933199","0.0-296.0","Jeff","Jeff","","","","","<p style=""color:darkgreen;font-size:24px;"">Correct :)</p>","",""
"3529","key","v","v","16.711815165876637","500","250","psychophysics","297","936732","0.0-297.0","Jeff","Jeff","6","","","","","1","2"
"null","","","null","","","","html-keyboard-response","298","937237","0.0-298.0","Jeff","Jeff","","","","","<p style=""color:darkgreen;font-size:24px;"">Correct :)</p>","",""
"2814","key","n","n","16.71099999999985","500","250","psychophysics","299","940055","0.0-299.0","Jeff","Jeff","6","","","","","0","4"
"null","","","null","","","","html-keyboard-response","300","940557","0.0-300.0","Jeff","Jeff","","","","","<p style=""color:darkgreen;font-size:24px;"">Correct :)</p>","",""
"2572","key","v","v","16.71099999999966","500","250","psychophysics","301","943133","0.0-301.0","Jeff","Jeff","6","","","","","1","2"
"null","","","null","","","","html-keyboard-response","302","943638","0.0-302.0","Jeff","Jeff","","","","","<p style=""color:darkgreen;font-size:24px;"">Correct :)</p>","",""
"3150","key","v","v","16.71202127659567","500","250","psychophysics","303","946792","0.0-303.0","Jeff","Jeff","6","","","","","0","3"
"null","","","null","","","","html-keyboard-response","304","947297","0.0-304.0","Jeff","Jeff","","","","","<p style=""color:darkgreen;font-size:24px;"">Correct :)</p>","",""
"2748","key","n","n","16.711000000000308","500","250","psychophysics","305","950048","0.0-305.0","Jeff","Jeff","6","","","","","0","2"
"null","","","null","","","","html-keyboard-response","306","950552","0.0-306.0","Jeff","Jeff","","","","","<p style=""color:darkgreen;font-size:24px;"">Correct :)</p>","",""
"2937","key","n","n","16.71099999999966","500","250","psychophysics","307","953494","0.0-307.0","Jeff","Jeff","6","","","","","1","7"
"null","","","null","","","","html-keyboard-response","308","953999","0.0-308.0","Jeff","Jeff","","","","","<p style=""color:darkgreen;font-size:24px;"">Correct :)</p>","",""
"2704","key","n","n","16.712248447204374","500","250","psychophysics","309","956706","0.0-309.0","Jeff","Jeff","6","","","","","0","8"
"null","","","null","","","","html-keyboard-response","310","957209","0.0-310.0","Jeff","Jeff","","","","","<p style=""color:darkgreen;font-size:24px;"">Correct :)</p>","",""
"2865","key","v","v","16.711000000000034","500","250","psychophysics","311","960077","0.0-311.0","Jeff","Jeff","6","","","","","1","4"
"null","","","null","","","","html-keyboard-response","312","960578","0.0-312.0","Jeff","Jeff","","","","","<p style=""color:darkgreen;font-size:24px;"">Correct :)</p>","",""
"2605","key","n","n","16.710999999999796","500","250","psychophysics","313","963187","0.0-313.0","Jeff","Jeff","6","","","","","0","8"
"null","","","null","","","","html-keyboard-response","314","963692","0.0-314.0","Jeff","Jeff","","","","","<p style=""color:darkgreen;font-size:24px;"">Correct :)</p>","",""
"2800","key","v","v","16.711946107783845","500","250","psychophysics","315","966496","0.0-315.0","Jeff","Jeff","6","","","","","1","4"
"null","","","null","","","","html-keyboard-response","316","966998","0.0-316.0","Jeff","Jeff","","","","","<p style=""color:darkgreen;font-size:24px;"">Correct :)</p>","",""
"2726","key","n","n","16.710999999999597","500","250","psychophysics","317","969729","0.0-317.0","Jeff","Jeff","6","","","","","0","6"
"null","","","null","","","","html-keyboard-response","318","970231","0.0-318.0","Jeff","Jeff","","","","","<p style=""color:darkgreen;font-size:24px;"">Correct :)</p>","",""
"2756","key","v","v","16.71099999999966","500","250","psychophysics","319","972991","0.0-319.0","Jeff","Jeff","6","","","","","0","2"
"null","","","null","","","","html-keyboard-response","320","973496","0.0-320.0","Jeff","Jeff","","","","","<p style=""color:red;font-size:24px;"">Error :(</p>","",""
"2511","key","v","v","16.71230463576133","500","250","psychophysics","321","976013","0.0-321.0","Jeff","Jeff","6","","","","","1","3"
"null","","","null","","","","html-keyboard-response","322","976518","0.0-322.0","Jeff","Jeff","","","","","<p style=""color:darkgreen;font-size:24px;"">Correct :)</p>","",""
"2657","key","n","n","16.710999999999995","500","250","psychophysics","323","979179","0.0-323.0","Jeff","Jeff","6","","","","","0","6"
"null","","","null","","","","html-keyboard-response","324","979682","0.0-324.0","Jeff","Jeff","","","","","<p style=""color:darkgreen;font-size:24px;"">Correct :)</p>","",""
"2646","key","v","v","16.710999999999995","500","250","psychophysics","325","982333","0.0-325.0","Jeff","Jeff","6","","","","","0","6"
"null","","","null","","","","html-keyboard-response","326","982838","0.0-326.0","Jeff","Jeff","","","","","<p style=""color:red;font-size:24px;"">Error :(</p>","",""
"2588","key","v","v","16.71207096774221","500","250","psychophysics","327","985430","0.0-327.0","Jeff","Jeff","6","","","","","1","3"
"null","","","null","","","","html-keyboard-response","328","985935","0.0-328.0","Jeff","Jeff","","","","","<p style=""color:darkgreen;font-size:24px;"">Correct :)</p>","",""
"2643","key","v","v","16.71099999999993","500","250","psychophysics","329","988582","0.0-329.0","Jeff","Jeff","6","","","","","0","3"
"null","","","null","","","","html-keyboard-response","330","989083","0.0-330.0","Jeff","Jeff","","","","","<p style=""color:darkgreen;font-size:24px;"">Correct :)</p>","",""
"2614","key","n","n","16.711000000000542","500","250","psychophysics","331","991701","0.0-331.0","Jeff","Jeff","6","","","","","1","8"
"null","","","null","","","","html-keyboard-response","332","992204","0.0-332.0","Jeff","Jeff","","","","","<p style=""color:darkgreen;font-size:24px;"">Correct :)</p>","",""
"2659","key","v","v","16.71217610062914","500","250","psychophysics","333","994871","0.0-333.0","Jeff","Jeff","6","","","","","0","2"
"null","","","null","","","","html-keyboard-response","334","995374","0.0-334.0","Jeff","Jeff","","","","","<p style=""color:red;font-size:24px;"">Error :(</p>","",""
"3002","key","n","n","16.898764044943714","500","250","psychophysics","335","998389","0.0-335.0","Jeff","Jeff","6","","","","","1","7"
"null","","","null","","","","html-keyboard-response","336","998895","0.0-336.0","Jeff","Jeff","","","","","<p style=""color:darkgreen;font-size:24px;"">Correct :)</p>","",""
"3402","key","v","v","16.711000000000496","500","250","psychophysics","337","1002306","0.0-337.0","Jeff","Jeff","6","","","","","1","4"
"null","","","null","","","","html-keyboard-response","338","1002809","0.0-338.0","Jeff","Jeff","","","","","<p style=""color:darkgreen;font-size:24px;"">Correct :)</p>","",""
"2531","key","n","n","16.71172847682132","500","250","psychophysics","339","1005346","0.0-339.0","Jeff","Jeff","6","","","","","0","6"
"null","","","null","","","","html-keyboard-response","340","1005851","0.0-340.0","Jeff","Jeff","","","","","<p style=""color:darkgreen;font-size:24px;"">Correct :)</p>","",""
"2447","key","v","v","16.71099999999995","500","250","psychophysics","341","1008304","0.0-341.0","Jeff","Jeff","6","","","","","1","3"
"null","","","null","","","","html-keyboard-response","342","1008807","0.0-342.0","Jeff","Jeff","","","","","<p style=""color:darkgreen;font-size:24px;"">Correct :)</p>","",""
"2640","key","v","v","16.711000000000666","500","250","psychophysics","343","1011454","0.0-343.0","Jeff","Jeff","6","","","","","1","3"
"null","","","null","","","","html-keyboard-response","344","1011959","0.0-344.0","Jeff","Jeff","","","","","<p style=""color:darkgreen;font-size:24px;"">Correct :)</p>","",""
"3466","key","n","n","16.712048309178606","500","250","psychophysics","345","1015431","0.0-345.0","Jeff","Jeff","6","","","","","1","2"
"null","","","null","","","","html-keyboard-response","346","1015932","0.0-346.0","Jeff","Jeff","","","","","<p style=""color:red;font-size:24px;"">Error :(</p>","",""
"2963","key","v","v","16.711000000000436","500","250","psychophysics","347","1018902","0.0-347.0","Jeff","Jeff","6","","","","","0","3"
"null","","","null","","","","html-keyboard-response","348","1019406","0.0-348.0","Jeff","Jeff","","","","","<p style=""color:darkgreen;font-size:24px;"">Correct :)</p>","",""
"2768","key","n","n","16.711000000000425","500","250","psychophysics","349","1022179","0.0-349.0","Jeff","Jeff","6","","","","","1","6"
"null","","","null","","","","html-keyboard-response","350","1022681","0.0-350.0","Jeff","Jeff","","","","","<p style=""color:darkgreen;font-size:24px;"">Correct :)</p>","",""
"3017","key","v","v","16.712198895027278","500","250","psychophysics","351","1025703","0.0-351.0","Jeff","Jeff","6","","","","","1","2"
"null","","","null","","","","html-keyboard-response","352","1026205","0.0-352.0","Jeff","Jeff","","","","","<p style=""color:darkgreen;font-size:24px;"">Correct :)</p>","",""
"2625","key","n","n","16.710999999999864","500","250","psychophysics","353","1028834","0.0-353.0","Jeff","Jeff","6","","","","","0","2"
"null","","","null","","","","html-keyboard-response","354","1029339","0.0-354.0","Jeff","Jeff","","","","","<p style=""color:darkgreen;font-size:24px;"">Correct :)</p>","",""
"2477","key","v","v","16.711000000000087","500","250","psychophysics","355","1031821","0.0-355.0","Jeff","Jeff","6","","","","","1","2"
"null","","","null","","","","html-keyboard-response","356","1032326","0.0-356.0","Jeff","Jeff","","","","","<p style=""color:darkgreen;font-size:24px;"">Correct :)</p>","",""
"2523","key","n","n","16.712238410595706","500","250","psychophysics","357","1034853","0.0-357.0","Jeff","Jeff","6","","","","","0","4"
"null","","","null","","","","html-keyboard-response","358","1035358","0.0-358.0","Jeff","Jeff","","","","","<p style=""color:darkgreen;font-size:24px;"">Correct :)</p>","",""
"2645","key","n","n","16.71099999999993","500","250","psychophysics","359","1038007","0.0-359.0","Jeff","Jeff","6","","","","","1","6"
"null","","","null","","","","html-keyboard-response","360","1038509","0.0-360.0","Jeff","Jeff","","","","","<p style=""color:darkgreen;font-size:24px;"">Correct :)</p>","",""
"2724","key","v","v","16.710999999999533","500","250","psychophysics","361","1041236","0.0-361.0","Jeff","Jeff","6","","","","","0","7"
"null","","","null","","","","html-keyboard-response","362","1041738","0.0-362.0","Jeff","Jeff","","","","","<p style=""color:darkgreen;font-size:24px;"">Correct :)</p>","",""
"2764","key","n","n","16.711987951806893","500","250","psychophysics","363","1044508","0.0-363.0","Jeff","Jeff","6","","","","","0","8"
"null","","","null","","","","html-keyboard-response","364","1045013","0.0-364.0","Jeff","Jeff","","","","","<p style=""color:darkgreen;font-size:24px;"">Correct :)</p>","",""
"2500","key","n","n","16.71099999999938","500","250","psychophysics","365","1047517","0.0-365.0","Jeff","Jeff","6","","","","","1","8"
"null","","","null","","","","html-keyboard-response","366","1048018","0.0-366.0","Jeff","Jeff","","","","","<p style=""color:darkgreen;font-size:24px;"">Correct :)</p>","",""
"2754","key","v","v","16.71099999999966","500","250","psychophysics","367","1050776","0.0-367.0","Jeff","Jeff","6","","","","","0","7"
"null","","","null","","","","html-keyboard-response","368","1051278","0.0-368.0","Jeff","Jeff","","","","","<p style=""color:darkgreen;font-size:24px;"">Correct :)</p>","",""
"2720","key","n","n","16.710999999999533","500","250","psychophysics","369","1054002","0.0-369.0","Jeff","Jeff","6","","","","","0","8"
"null","","","null","","","","html-keyboard-response","370","1054506","0.0-370.0","Jeff","Jeff","","","","","<p style=""color:darkgreen;font-size:24px;"">Correct :)</p>","",""
"2805","key","v","v","16.712136904761707","500","250","psychophysics","371","1057315","0.0-371.0","Jeff","Jeff","6","","","","","1","2"
"null","","","null","","","","html-keyboard-response","372","1057816","0.0-372.0","Jeff","Jeff","","","","","<p style=""color:darkgreen;font-size:24px;"">Correct :)</p>","",""
"3204","key","v","v","16.71099999999933","500","250","psychophysics","373","1061024","0.0-373.0","Jeff","Jeff","6","","","","","1","3"
"null","","","null","","","","html-keyboard-response","374","1061528","0.0-374.0","Jeff","Jeff","","","","","<p style=""color:darkgreen;font-size:24px;"">Correct :)</p>","",""
"3014","key","v","v","16.71099999999931","500","250","psychophysics","375","1064547","0.0-375.0","Jeff","Jeff","6","","","","","1","4"
"null","","","null","","","","html-keyboard-response","376","1065052","0.0-376.0","Jeff","Jeff","","","","","<p style=""color:darkgreen;font-size:24px;"">Correct :)</p>","",""
"2667","key","v","v","16.71100000000006","500","250","psychophysics","377","1067722","0.0-377.0","Jeff","Jeff","6","","","","","0","2"
"null","","","null","","","","html-keyboard-response","378","1068227","0.0-378.0","Jeff","Jeff","","","","","<p style=""color:red;font-size:24px;"">Error :(</p>","",""
"2652","key","n","n","16.711000000000727","500","250","psychophysics","379","1070884","0.0-379.0","Jeff","Jeff","6","","","","","0","8"
"null","","","null","","","","html-keyboard-response","380","1071389","0.0-380.0","Jeff","Jeff","","","","","<p style=""color:darkgreen;font-size:24px;"">Correct :)</p>","",""
"2616","key","n","n","16.711000000000606","500","250","psychophysics","381","1074010","0.0-381.0","Jeff","Jeff","6","","","","","0","6"
"null","","","null","","","","html-keyboard-response","382","1074513","0.0-382.0","Jeff","Jeff","","","","","<p style=""color:darkgreen;font-size:24px;"">Correct :)</p>","",""
"2833","key","n","n","16.712247058823156","500","250","psychophysics","383","1077351","0.0-383.0","Jeff","Jeff","6","","","","","0","6"
"null","","","null","","","","html-keyboard-response","384","1077852","0.0-384.0","Jeff","Jeff","","","","","<p style=""color:darkgreen;font-size:24px;"">Correct :)</p>","",""
"2834","key","n","n","16.711000000000656","500","250","psychophysics","385","1080690","0.0-385.0","Jeff","Jeff","6","","","","","1","7"
"null","","","null","","","","html-keyboard-response","386","1081195","0.0-386.0","Jeff","Jeff","","","","","<p style=""color:darkgreen;font-size:24px;"">Correct :)</p>","",""
"3083","key","v","v","16.710999999999547","500","250","psychophysics","387","1084282","0.0-387.0","Jeff","Jeff","6","","","","","0","3"
"null","","","null","","","","html-keyboard-response","388","1084785","0.0-388.0","Jeff","Jeff","","","","","<p style=""color:darkgreen;font-size:24px;"">Correct :)</p>","",""
"3304","key","n","n","16.71192929292841","500","250","psychophysics","389","1088092","0.0-389.0","Jeff","Jeff","6","","","","","0","6"
"null","","","null","","","","html-keyboard-response","390","1088598","0.0-390.0","Jeff","Jeff","","","","","<p style=""color:darkgreen;font-size:24px;"">Correct :)</p>","",""
"2978","key","v","v","16.710999999999782","500","250","psychophysics","391","1091579","0.0-391.0","Jeff","Jeff","6","","","","","1","3"
"null","","","null","","","","html-keyboard-response","392","1092081","0.0-392.0","Jeff","Jeff","","","","","<p style=""color:darkgreen;font-size:24px;"">Correct :)</p>","",""
"2750","key","n","n","16.711000000000308","500","250","psychophysics","393","1094835","0.0-393.0","Jeff","Jeff","6","","","","","1","8"
"null","","","null","","","","html-keyboard-response","394","1095340","0.0-394.0","Jeff","Jeff","","","","","<p style=""color:darkgreen;font-size:24px;"">Correct :)</p>","",""
"2750","key","v","v","16.711000000000308","500","250","psychophysics","395","1098093","0.0-395.0","Jeff","Jeff","6","","","","","0","3"
"null","","","null","","","","html-keyboard-response","396","1098598","0.0-396.0","Jeff","Jeff","","","","","<p style=""color:darkgreen;font-size:24px;"">Correct :)</p>","",""
"2601","key","n","n","16.71100000000048","500","250","psychophysics","397","1101203","0.0-397.0","Jeff","Jeff","6","","","","","0","6"
"null","","","null","","","","html-keyboard-response","398","1101708","0.0-398.0","Jeff","Jeff","","","","","<p style=""color:darkgreen;font-size:24px;"">Correct :)</p>","",""
"2663","key","n","n","16.710999999999263","500","250","psychophysics","399","1104375","0.0-399.0","Jeff","Jeff","6","","","","","0","6"
"null","","","null","","","","html-keyboard-response","400","1104880","0.0-400.0","Jeff","Jeff","","","","","<p style=""color:darkgreen;font-size:24px;"">Correct :)</p>","",""
"2451","key","v","v","16.71224657534175","500","250","psychophysics","401","1107334","0.0-401.0","Jeff","Jeff","6","","","","","1","2"
"null","","","null","","","","html-keyboard-response","402","1107840","0.0-402.0","Jeff","Jeff","","","","","<p style=""color:darkgreen;font-size:24px;"">Correct :)</p>","",""
"2529","key","v","v","16.711000000000222","500","250","psychophysics","403","1110373","0.0-403.0","Jeff","Jeff","6","","","","","1","2"
"null","","","null","","","","html-keyboard-response","404","1110878","0.0-404.0","Jeff","Jeff","","","","","<p style=""color:darkgreen;font-size:24px;"">Correct :)</p>","",""
"2913","key","n","n","16.710999999998936","500","250","psychophysics","405","1113796","0.0-405.0","Jeff","Jeff","6","","","","","0","6"
"null","","","null","","","","html-keyboard-response","406","1114301","0.0-406.0","Jeff","Jeff","","","","","<p style=""color:darkgreen;font-size:24px;"">Correct :)</p>","",""
"2872","key","n","n","16.711947674419037","500","250","psychophysics","407","1117177","0.0-407.0","Jeff","Jeff","6","","","","","1","8"
"null","","","null","","","","html-keyboard-response","408","1117681","0.0-408.0","Jeff","Jeff","","","","","<p style=""color:darkgreen;font-size:24px;"">Correct :)</p>","",""
"2485","key","v","v","16.710999999998524","500","250","psychophysics","409","1120171","0.0-409.0","Jeff","Jeff","6","","","","","1","3"
"null","","","null","","","","html-keyboard-response","410","1120676","0.0-410.0","Jeff","Jeff","","","","","<p style=""color:darkgreen;font-size:24px;"">Correct :)</p>","",""
"2519","key","n","n","16.71099999999938","500","250","psychophysics","411","1123198","0.0-411.0","Jeff","Jeff","6","","","","","0","8"
"null","","","null","","","","html-keyboard-response","412","1123700","0.0-412.0","Jeff","Jeff","","","","","<p style=""color:darkgreen;font-size:24px;"">Correct :)</p>","",""
"2650","key","v","v","16.712196202531658","500","250","psychophysics","413","1126355","0.0-413.0","Jeff","Jeff","6","","","","","1","2"
"null","","","null","","","","html-keyboard-response","414","1126860","0.0-414.0","Jeff","Jeff","","","","","<p style=""color:darkgreen;font-size:24px;"">Correct :)</p>","",""
"2799","key","v","v","16.71099999999979","500","250","psychophysics","415","1129663","0.0-415.0","Jeff","Jeff","6","","","","","1","4"
"null","","","null","","","","html-keyboard-response","416","1130168","0.0-416.0","Jeff","Jeff","","","","","<p style=""color:darkgreen;font-size:24px;"">Correct :)</p>","",""
"3378","key","v","v","16.71099999999987","500","250","psychophysics","417","1133549","0.0-417.0","Jeff","Jeff","6","","","","","0","3"
"null","","","null","","","","html-keyboard-response","418","1134054","0.0-418.0","Jeff","Jeff","","","","","<p style=""color:darkgreen;font-size:24px;"">Correct :)</p>","",""
"2942","key","n","n","16.71217613636426","500","250","psychophysics","419","1137000","0.0-419.0","Jeff","Jeff","6","","","","","1","7"
"null","","","null","","","","html-keyboard-response","420","1137501","0.0-420.0","Jeff","Jeff","","","","","<p style=""color:darkgreen;font-size:24px;"">Correct :)</p>","",""
"2902","key","n","n","16.71099999999954","500","250","psychophysics","421","1140407","0.0-421.0","Jeff","Jeff","6","","","","","1","7"
"null","","","null","","","","html-keyboard-response","422","1140913","0.0-422.0","Jeff","Jeff","","","","","<p style=""color:darkgreen;font-size:24px;"">Correct :)</p>","",""
"2798","key","n","n","16.71099999999979","500","250","psychophysics","423","1143715","0.0-423.0","Jeff","Jeff","6","","","","","0","7"
"null","","","null","","","","html-keyboard-response","424","1144220","0.0-424.0","Jeff","Jeff","","","","","<p style=""color:red;font-size:24px;"">Error :(</p>","",""
"2916","key","v","v","16.711971098266414","500","250","psychophysics","425","1147140","0.0-425.0","Jeff","Jeff","6","","","","","1","4"
"null","","","null","","","","html-keyboard-response","426","1147645","0.0-426.0","Jeff","Jeff","","","","","<p style=""color:darkgreen;font-size:24px;"">Correct :)</p>","",""
"3028","key","v","v","16.71100000000001","500","250","psychophysics","427","1150678","0.0-427.0","Jeff","Jeff","6","","","","","1","3"
"null","","","null","","","","html-keyboard-response","428","1151179","0.0-428.0","Jeff","Jeff","","","","","<p style=""color:darkgreen;font-size:24px;"">Correct :)</p>","",""
"2833","key","v","v","16.710999999999913","500","250","psychophysics","429","1154016","0.0-429.0","Jeff","Jeff","6","","","","","1","3"
"null","","","null","","","","html-keyboard-response","430","1154516","0.0-430.0","Jeff","Jeff","","","","","<p style=""color:darkgreen;font-size:24px;"">Correct :)</p>","",""
"2646","key","n","n","16.711632911392925","500","250","psychophysics","431","1157166","0.0-431.0","Jeff","Jeff","6","","","","","0","4"
"null","","","null","","","","html-keyboard-response","432","1157667","0.0-432.0","Jeff","Jeff","","","","","<p style=""color:darkgreen;font-size:24px;"">Correct :)</p>","",""
"3014","key","v","v","16.711000000000595","500","250","psychophysics","433","1160685","0.0-433.0","Jeff","Jeff","6","","","","","0","7"
"null","","","null","","","","html-keyboard-response","434","1161188","0.0-434.0","Jeff","Jeff","","","","","<p style=""color:darkgreen;font-size:24px;"">Correct :)</p>","",""
"2938","key","v","v","16.71099999999966","500","250","psychophysics","435","1164130","0.0-435.0","Jeff","Jeff","6","","","","","0","7"
"null","","","null","","","","html-keyboard-response","436","1164635","0.0-436.0","Jeff","Jeff","","","","","<p style=""color:darkgreen;font-size:24px;"">Correct :)</p>","",""
"2694","key","n","n","16.712621118012898","500","250","psychophysics","437","1167332","0.0-437.0","Jeff","Jeff","6","","","","","0","8"
"null","","","null","","","","html-keyboard-response","438","1167837","0.0-438.0","Jeff","Jeff","","","","","<p style=""color:darkgreen;font-size:24px;"">Correct :)</p>","",""
"2662","key","v","v","16.711000000000727","500","250","psychophysics","439","1170503","0.0-439.0","Jeff","Jeff","6","","","","","0","7"
"null","","","null","","","","html-keyboard-response","440","1171008","0.0-440.0","Jeff","Jeff","","","","","<p style=""color:darkgreen;font-size:24px;"">Correct :)</p>","",""
"3187","key","n","n","16.711000000001103","500","250","psychophysics","441","1174202","0.0-441.0","Jeff","Jeff","6","","","","","1","6"
"null","","","null","","","","html-keyboard-response","442","1174704","0.0-442.0","Jeff","Jeff","","","","","<p style=""color:darkgreen;font-size:24px;"">Correct :)</p>","",""
"2767","key","v","v","16.71213939393955","500","250","psychophysics","443","1177474","0.0-443.0","Jeff","Jeff","6","","","","","1","3"
"null","","","null","","","","html-keyboard-response","444","1177980","0.0-444.0","Jeff","Jeff","","","","","<p style=""color:darkgreen;font-size:24px;"">Correct :)</p>","",""
"2890","key","n","n","16.71100000000015","500","250","psychophysics","445","1180873","0.0-445.0","Jeff","Jeff","6","","","","","0","4"
"null","","","null","","","","html-keyboard-response","446","1181378","0.0-446.0","Jeff","Jeff","","","","","<p style=""color:darkgreen;font-size:24px;"">Correct :)</p>","",""
"2967","key","n","n","16.710999999999782","500","250","psychophysics","447","1184349","0.0-447.0","Jeff","Jeff","6","","","","","0","2"
"null","","","null","","","","html-keyboard-response","448","1184854","0.0-448.0","Jeff","Jeff","","","","","<p style=""color:darkgreen;font-size:24px;"">Correct :)</p>","",""
"2837","key","n","n","16.7120823529412","500","250","psychophysics","449","1187695","0.0-449.0","Jeff","Jeff","6","","","","","0","4"
"null","","","null","","","","html-keyboard-response","450","1188200","0.0-450.0","Jeff","Jeff","","","","","<p style=""color:darkgreen;font-size:24px;"">Correct :)</p>","",""
"2717","key","n","n","16.710999999999533","500","250","psychophysics","451","1190920","0.0-451.0","Jeff","Jeff","6","","","","","1","6"
"null","","","null","","","","html-keyboard-response","452","1191422","0.0-452.0","Jeff","Jeff","","","","","<p style=""color:darkgreen;font-size:24px;"">Correct :)</p>","",""
"2752","key","v","v","16.71099999999966","500","250","psychophysics","453","1194179","0.0-453.0","Jeff","Jeff","6","","","","","1","4"
"null","","","null","","","","html-keyboard-response","454","1194684","0.0-454.0","Jeff","Jeff","","","","","<p style=""color:darkgreen;font-size:24px;"">Correct :)</p>","",""
"2700","key","n","n","16.712080246912613","500","250","psychophysics","455","1197389","0.0-455.0","Jeff","Jeff","6","","","","","1","7"
"null","","","null","","","","html-keyboard-response","456","1197894","0.0-456.0","Jeff","Jeff","","","","","<p style=""color:darkgreen;font-size:24px;"">Correct :)</p>","",""
"3276","key","v","v","16.710999999999554","500","250","psychophysics","457","1201174","0.0-457.0","Jeff","Jeff","6","","","","","1","4"
"null","","","null","","","","html-keyboard-response","458","1201677","0.0-458.0","Jeff","Jeff","","","","","<p style=""color:darkgreen;font-size:24px;"">Correct :)</p>","",""
"2726","key","n","n","16.710999999999533","500","250","psychophysics","459","1204406","0.0-459.0","Jeff","Jeff","6","","","","","1","8"
"null","","","null","","","","html-keyboard-response","460","1204910","0.0-460.0","Jeff","Jeff","","","","","<p style=""color:darkgreen;font-size:24px;"">Correct :)</p>","",""
"2755","key","n","n","16.711436363635585","500","250","psychophysics","461","1207669","0.0-461.0","Jeff","Jeff","6","","","","","0","8"
"null","","","null","","","","html-keyboard-response","462","1208175","0.0-462.0","Jeff","Jeff","","","","","<p style=""color:darkgreen;font-size:24px;"">Correct :)</p>","",""
"2885","key","v","v","16.71100000000015","500","250","psychophysics","463","1211065","0.0-463.0","Jeff","Jeff","6","","","","","1","3"
"null","","","null","","","","html-keyboard-response","464","1211570","0.0-464.0","Jeff","Jeff","","","","","<p style=""color:darkgreen;font-size:24px;"">Correct :)</p>","",""
"2598","key","n","n","16.71100000000048","500","250","psychophysics","465","1214172","0.0-465.0","Jeff","Jeff","6","","","","","1","7"
"null","","","null","","","","html-keyboard-response","466","1214673","0.0-466.0","Jeff","Jeff","","","","","<p style=""color:darkgreen;font-size:24px;"">Correct :)</p>","",""
"2872","key","n","n","16.71265697674447","500","250","psychophysics","467","1217549","0.0-467.0","Jeff","Jeff","6","","","","","0","6"
"null","","","null","","","","html-keyboard-response","468","1218052","0.0-468.0","Jeff","Jeff","","","","","<p style=""color:darkgreen;font-size:24px;"">Correct :)</p>","",""
"2619","key","v","v","16.710999999999796","500","250","psychophysics","469","1220674","0.0-469.0","Jeff","Jeff","6","","","","","0","3"
"null","","","null","","","","html-keyboard-response","470","1221179","0.0-470.0","Jeff","Jeff","","","","","<p style=""color:darkgreen;font-size:24px;"">Correct :)</p>","",""
"2678","key","v","v","16.71100000000006","500","250","psychophysics","471","1223861","0.0-471.0","Jeff","Jeff","6","","","","","1","3"
"null","","","null","","","","html-keyboard-response","472","1224366","0.0-472.0","Jeff","Jeff","","","","","<p style=""color:darkgreen;font-size:24px;"">Correct :)</p>","",""
"3150","key","v","v","16.711962962962893","500","250","psychophysics","473","1227520","0.0-473.0","Jeff","Jeff","6","","","","","1","2"
"null","","","null","","","","html-keyboard-response","474","1228022","0.0-474.0","Jeff","Jeff","","","","","<p style=""color:darkgreen;font-size:24px;"">Correct :)</p>","",""
"2566","key","n","n","16.71099999999966","500","250","psychophysics","475","1230592","0.0-475.0","Jeff","Jeff","6","","","","","1","7"
"null","","","null","","","","html-keyboard-response","476","1231097","0.0-476.0","Jeff","Jeff","","","","","<p style=""color:darkgreen;font-size:24px;"">Correct :)</p>","",""
"2771","key","n","n","16.710999999999025","500","250","psychophysics","477","1233872","0.0-477.0","Jeff","Jeff","6","","","","","0","6"
"null","","","null","","","","html-keyboard-response","478","1234375","0.0-478.0","Jeff","Jeff","","","","","<p style=""color:darkgreen;font-size:24px;"">Correct :)</p>","",""
"3049","key","v","v","16.711934426229426","500","250","psychophysics","479","1237427","0.0-479.0","Jeff","Jeff","6","","","","","1","2"
"null","","","null","","","","html-keyboard-response","480","1237932","0.0-480.0","Jeff","Jeff","","","","","<p style=""color:darkgreen;font-size:24px;"">Correct :)</p>","",""
"2906","key","n","n","16.71099999999954","500","250","psychophysics","481","1240842","0.0-481.0","Jeff","Jeff","6","","","","","1","6"
"null","","","null","","","","html-keyboard-response","482","1241347","0.0-482.0","Jeff","Jeff","","","","","<p style=""color:darkgreen;font-size:24px;"">Correct :)</p>","",""
"2848","key","v","v","16.711000000000034","500","250","psychophysics","483","1244200","0.0-483.0","Jeff","Jeff","6","","","","","0","7"
"null","","","null","","","","html-keyboard-response","484","1244705","0.0-484.0","Jeff","Jeff","","","","","<p style=""color:darkgreen;font-size:24px;"">Correct :)</p>","",""
"2654","key","n","n","16.71217610062914","500","250","psychophysics","485","1247362","0.0-485.0","Jeff","Jeff","6","","","","","1","8"
"null","","","null","","","","html-keyboard-response","486","1247867","0.0-486.0","Jeff","Jeff","","","","","<p style=""color:darkgreen;font-size:24px;"">Correct :)</p>","",""
"2611","key","n","n","16.711000000001288","500","250","psychophysics","487","1250482","0.0-487.0","Jeff","Jeff","6","","","","","1","8"
"null","","","null","","","","html-keyboard-response","488","1250986","0.0-488.0","Jeff","Jeff","","","","","<p style=""color:darkgreen;font-size:24px;"">Correct :)</p>","",""
"2599","key","n","n","16.710999999999796","500","250","psychophysics","489","1253591","0.0-489.0","Jeff","Jeff","6","","","","","0","8"
"null","","","null","","","","html-keyboard-response","490","1254096","0.0-490.0","Jeff","Jeff","","","","","<p style=""color:darkgreen;font-size:24px;"">Correct :)</p>","",""
