"rt","response_type","key_press","response","avg_frame_time","center_x","center_y","trial_type","trial_index","time_elapsed","internal_node_id","pid","sid","phase","guide","targ","resp","stimulus","is5","stim"
"3667","key"," "," ","16.67505909090909","500","250","psychophysics","0","3689","0.0-0.0","60fcf16942369a2fb0c093e3","61fd87f6d6e5b79f58a14a41","","","","","","",""
"1823","key"," "," ","16.674238532110092","500","250","psychophysics","1","5522","0.0-1.0","60fcf16942369a2fb0c093e3","61fd87f6d6e5b79f58a14a41","","","","","","",""
"35871","key"," "," ","16.690130758492323","500","250","psychophysics","2","41395","0.0-2.0","60fcf16942369a2fb0c093e3","61fd87f6d6e5b79f58a14a41","","","","","","",""
"2748","key"," "," ","16.67509756097557","500","250","psychophysics","3","44148","0.0-3.0","60fcf16942369a2fb0c093e3","61fd87f6d6e5b79f58a14a41","","","","","","",""
"2385","key"," "," ","16.67614084507044","500","250","psychophysics","4","46540","0.0-4.0","60fcf16942369a2fb0c093e3","61fd87f6d6e5b79f58a14a41","","","","","","",""
"4728","key"," "," ","16.674561837455823","500","250","psychophysics","5","51277","0.0-5.0","60fcf16942369a2fb0c093e3","61fd87f6d6e5b79f58a14a41","","","","","","",""
"4112","key"," "," ","16.67458130081301","500","250","psychophysics","6","55397","0.0-6.0","60fcf16942369a2fb0c093e3","61fd87f6d6e5b79f58a14a41","","","","","","",""
"12842","key"," "," ","16.674568831168827","500","250","psychophysics","7","68249","0.0-7.0","60fcf16942369a2fb0c093e3","61fd87f6d6e5b79f58a14a41","","","","","","",""
"5063","key"," "," ","16.674541254125455","500","250","psychophysics","8","73317","0.0-8.0","60fcf16942369a2fb0c093e3","61fd87f6d6e5b79f58a14a41","","","","","","",""
"2950","key"," "," ","16.673687500000018","500","250","psychophysics","9","76272","0.0-9.0","60fcf16942369a2fb0c093e3","61fd87f6d6e5b79f58a14a41","","","","","","",""
"5203","key"," "," ","16.675448717948736","500","250","psychophysics","10","81484","0.0-10.0","60fcf16942369a2fb0c093e3","61fd87f6d6e5b79f58a14a41","","","","","","",""
"1826","key"," "," ","16.673633027522865","500","250","psychophysics","11","83316","0.0-11.0","60fcf16942369a2fb0c093e3","61fd87f6d6e5b79f58a14a41","","","","","","",""
"8015","key"," "," ","16.673722916666673","500","250","psychophysics","12","91336","0.0-12.0","60fcf16942369a2fb0c093e3","61fd87f6d6e5b79f58a14a41","1","0","52","43","","",""
"4233","key"," "," ","16.675584980237137","500","250","psychophysics","13","95574","0.0-13.0","60fcf16942369a2fb0c093e3","61fd87f6d6e5b79f58a14a41","1","5","51","26","","",""
"4985","key"," "," ","16.67378859060404","500","250","psychophysics","14","100564","0.0-14.0","60fcf16942369a2fb0c093e3","61fd87f6d6e5b79f58a14a41","1","0","30","36","","",""
"4715","key"," "," ","16.675202127659546","500","250","psychophysics","15","105283","0.0-15.0","60fcf16942369a2fb0c093e3","61fd87f6d6e5b79f58a14a41","1","5","46","29","","",""
"5497","key"," "," ","16.67488753799392","500","250","psychophysics","16","110784","0.0-16.0","60fcf16942369a2fb0c093e3","61fd87f6d6e5b79f58a14a41","1","0","50","64","","",""
"10989","key"," "," ","16.674424012158045","500","250","psychophysics","17","121778","0.0-17.0","60fcf16942369a2fb0c093e3","61fd87f6d6e5b79f58a14a41","1","5","59","39","","",""
"32725","key"," "," ","16.674505096839965","500","250","psychophysics","18","154511","0.0-18.0","60fcf16942369a2fb0c093e3","61fd87f6d6e5b79f58a14a41","1","0","44","274","","",""
"11009","key"," "," ","16.674872727272724","500","250","psychophysics","19","165528","0.0-19.0","60fcf16942369a2fb0c093e3","61fd87f6d6e5b79f58a14a41","1","5","57","83","","",""
"11209","key"," "," ","16.674711309523836","500","250","psychophysics","20","176742","0.0-20.0","60fcf16942369a2fb0c093e3","61fd87f6d6e5b79f58a14a41","1","0","53","234","","",""
"7453","key"," "," ","16.67406726457397","500","250","psychophysics","21","184199","0.0-21.0","60fcf16942369a2fb0c093e3","61fd87f6d6e5b79f58a14a41","1","5","36","63","","",""
"11940","key"," "," ","16.674699300699306","500","250","psychophysics","22","196145","0.0-22.0","60fcf16942369a2fb0c093e3","61fd87f6d6e5b79f58a14a41","1","0","34","227","","",""
"5644","key"," "," ","16.674426035502975","500","250","psychophysics","23","201796","0.0-23.0","60fcf16942369a2fb0c093e3","61fd87f6d6e5b79f58a14a41","1","5","28","80","","",""
"10058","key"," "," ","16.67448092868988","500","250","psychophysics","24","211860","0.0-24.0","60fcf16942369a2fb0c093e3","61fd87f6d6e5b79f58a14a41","1","0","43","264","","",""
"4971","key"," "," ","16.674973063973077","500","250","psychophysics","25","216836","0.0-25.0","60fcf16942369a2fb0c093e3","61fd87f6d6e5b79f58a14a41","1","5","27","80","","",""
"9180","key"," "," ","16.67467454545454","500","250","psychophysics","26","226023","0.0-26.0","60fcf16942369a2fb0c093e3","61fd87f6d6e5b79f58a14a41","1","0","36","213","","",""
"6084","key"," "," ","16.674497252747233","500","250","psychophysics","27","232111","0.0-27.0","60fcf16942369a2fb0c093e3","61fd87f6d6e5b79f58a14a41","1","5","22","66","","",""
"11607","key"," "," ","16.67469683908047","500","250","psychophysics","28","243725","0.0-28.0","60fcf16942369a2fb0c093e3","61fd87f6d6e5b79f58a14a41","1","0","58","275","","",""
"5851","key"," "," ","16.67443142857145","500","250","psychophysics","29","249581","0.0-29.0","60fcf16942369a2fb0c093e3","61fd87f6d6e5b79f58a14a41","1","5","27","79","","",""
"8708","key"," "," ","16.674473180076596","500","250","psychophysics","30","258293","0.0-30.0","60fcf16942369a2fb0c093e3","61fd87f6d6e5b79f58a14a41","1","0","26","180","","",""
"5357","key"," "," ","16.674753124999917","500","250","psychophysics","31","263655","0.0-31.0","60fcf16942369a2fb0c093e3","61fd87f6d6e5b79f58a14a41","1","5","38","81","","",""
"2826","key"," "," ","16.674644970414285","500","250","psychophysics","32","266487","0.0-32.0","60fcf16942369a2fb0c093e3","61fd87f6d6e5b79f58a14a41","","","","","","",""
"4055","key"," "," ","16.675421487603266","500","250","psychophysics","33","270546","0.0-33.0","60fcf16942369a2fb0c093e3","61fd87f6d6e5b79f58a14a41","","","","","","",""
"1698","key"," "," ","16.675833333333312","500","250","psychophysics","34","272250","0.0-34.0","60fcf16942369a2fb0c093e3","61fd87f6d6e5b79f58a14a41","","","","","","",""
"9590","key"," "," ","16.67383623693381","500","250","psychophysics","35","281845","0.0-35.0","60fcf16942369a2fb0c093e3","61fd87f6d6e5b79f58a14a41","2","0","35","214","","",""
"6382","key"," "," ","16.67450523560215","500","250","psychophysics","36","288234","0.0-36.0","60fcf16942369a2fb0c093e3","61fd87f6d6e5b79f58a14a41","","","","","","",""
"6769","key"," "," ","16.674350617283864","500","250","psychophysics","37","295008","0.0-37.0","60fcf16942369a2fb0c093e3","61fd87f6d6e5b79f58a14a41","2","0","38","69","","",""
"2444","key"," "," ","16.67469178082155","500","250","psychophysics","38","297461","0.0-38.0","60fcf16942369a2fb0c093e3","61fd87f6d6e5b79f58a14a41","","","","","","",""
"4252","key"," "," ","16.674498039215585","500","250","psychophysics","39","301718","0.0-39.0","60fcf16942369a2fb0c093e3","61fd87f6d6e5b79f58a14a41","2","0","32","60","","",""
"1649","key"," "," ","16.675173469387918","500","250","psychophysics","40","303369","0.0-40.0","60fcf16942369a2fb0c093e3","61fd87f6d6e5b79f58a14a41","","","","","","",""
"3032","key"," "," ","16.673364640884063","500","250","psychophysics","41","306405","0.0-41.0","60fcf16942369a2fb0c093e3","61fd87f6d6e5b79f58a14a41","2","0","31","42","","",""
"1508","key"," "," ","16.674311111111376","500","250","psychophysics","42","307917","0.0-42.0","60fcf16942369a2fb0c093e3","61fd87f6d6e5b79f58a14a41","","","","","","",""
"3981","key"," "," ","16.674655462184994","500","250","psychophysics","43","311902","0.0-43.0","60fcf16942369a2fb0c093e3","61fd87f6d6e5b79f58a14a41","2","0","53","70","","",""
"1196","key"," "," ","16.674450704225332","500","250","psychophysics","44","313103","0.0-44.0","60fcf16942369a2fb0c093e3","61fd87f6d6e5b79f58a14a41","","","","","","",""
"2521","key"," "," ","16.674406666666812","500","250","psychophysics","45","315629","0.0-45.0","60fcf16942369a2fb0c093e3","61fd87f6d6e5b79f58a14a41","2","0","34","39","","",""
"1350","key"," "," ","16.67445000000007","500","250","psychophysics","46","316983","0.0-46.0","60fcf16942369a2fb0c093e3","61fd87f6d6e5b79f58a14a41","","","","","","",""
"4507","key"," "," ","16.675181481481477","500","250","psychophysics","47","321496","0.0-47.0","60fcf16942369a2fb0c093e3","61fd87f6d6e5b79f58a14a41","2","0","38","54","","",""
"1072","key"," "," ","16.677126984126748","500","250","psychophysics","48","322572","0.0-48.0","60fcf16942369a2fb0c093e3","61fd87f6d6e5b79f58a14a41","","","","","","",""
"3900","key"," "," ","16.675803418803323","500","250","psychophysics","49","326479","0.0-49.0","60fcf16942369a2fb0c093e3","61fd87f6d6e5b79f58a14a41","2","0","41","57","","",""
"1065","key"," "," ","16.674301587301123","500","250","psychophysics","50","327548","0.0-50.0","60fcf16942369a2fb0c093e3","61fd87f6d6e5b79f58a14a41","","","","","","",""
"5306","key"," "," ","16.674343848580417","500","250","psychophysics","51","332858","0.0-51.0","60fcf16942369a2fb0c093e3","61fd87f6d6e5b79f58a14a41","2","0","60","74","","",""
"1144","key"," "," ","16.67792647058805","500","250","psychophysics","52","334008","0.0-52.0","60fcf16942369a2fb0c093e3","61fd87f6d6e5b79f58a14a41","","","","","","",""
"2754","key"," "," ","16.674515151515052","500","250","psychophysics","53","336769","0.0-53.0","60fcf16942369a2fb0c093e3","61fd87f6d6e5b79f58a14a41","2","0","30","34","","",""
"1012","key"," "," ","16.677433333332495","500","250","psychophysics","54","337785","0.0-54.0","60fcf16942369a2fb0c093e3","61fd87f6d6e5b79f58a14a41","","","","","","",""
"2556","key"," "," ","16.673618421052723","500","250","psychophysics","55","340345","0.0-55.0","60fcf16942369a2fb0c093e3","61fd87f6d6e5b79f58a14a41","2","0","38","45","","",""
"1083","key"," "," ","16.675369230768858","500","250","psychophysics","56","341434","0.0-56.0","60fcf16942369a2fb0c093e3","61fd87f6d6e5b79f58a14a41","","","","","","",""
"2913","key"," "," ","16.67436206896539","500","250","psychophysics","57","344351","0.0-57.0","60fcf16942369a2fb0c093e3","61fd87f6d6e5b79f58a14a41","2","0","36","37","","",""
"1082","key"," "," ","16.67401562499981","500","250","psychophysics","58","345438","0.0-58.0","60fcf16942369a2fb0c093e3","61fd87f6d6e5b79f58a14a41","","","","","","",""
"3047","key"," "," ","16.674758241758145","500","250","psychophysics","59","348486","0.0-59.0","60fcf16942369a2fb0c093e3","61fd87f6d6e5b79f58a14a41","2","0","42","47","","",""
"2062","key"," "," ","16.673065040650023","500","250","psychophysics","60","350553","0.0-60.0","60fcf16942369a2fb0c093e3","61fd87f6d6e5b79f58a14a41","","","","","","",""
"2118","key"," "," ","16.67364285714298","500","250","psychophysics","61","352675","0.0-61.0","60fcf16942369a2fb0c093e3","61fd87f6d6e5b79f58a14a41","2","0","24","29","","",""
"1038","key"," "," ","16.676557377049484","500","250","psychophysics","62","353715","0.0-62.0","60fcf16942369a2fb0c093e3","61fd87f6d6e5b79f58a14a41","","","","","","",""
"3139","key"," "," ","16.676287234042825","500","250","psychophysics","63","356857","0.0-63.0","60fcf16942369a2fb0c093e3","61fd87f6d6e5b79f58a14a41","2","0","55","71","","",""
"1140","key"," "," ","16.67456716417905","500","250","psychophysics","64","358001","0.0-64.0","60fcf16942369a2fb0c093e3","61fd87f6d6e5b79f58a14a41","","","","","","",""
"1182","key"," "," ","16.67740845070368","500","250","psychophysics","65","359191","0.0-65.0","60fcf16942369a2fb0c093e3","61fd87f6d6e5b79f58a14a41","","","","","","",""
"2004","key"," "," ","16.67387394957976","500","250","psychophysics","66","361199","0.0-66.0","60fcf16942369a2fb0c093e3","61fd87f6d6e5b79f58a14a41","","","","","","",""
"3369","key"," "," ","16.675064676616746","500","250","psychophysics","67","364572","0.0-67.0","60fcf16942369a2fb0c093e3","61fd87f6d6e5b79f58a14a41","3","5","36","32","","",""
"5083","key"," "," ","16.67468750000013","500","250","psychophysics","68","369659","0.0-68.0","60fcf16942369a2fb0c093e3","61fd87f6d6e5b79f58a14a41","3","0","55","65","","",""
"3510","key"," "," ","16.6739476190478","500","250","psychophysics","69","373175","0.0-69.0","60fcf16942369a2fb0c093e3","61fd87f6d6e5b79f58a14a41","3","5","22","26","","",""
"5733","key"," "," ","16.674833819241965","500","250","psychophysics","70","378910","0.0-70.0","60fcf16942369a2fb0c093e3","61fd87f6d6e5b79f58a14a41","3","0","30","47","","",""
"4036","key"," "," ","16.674603305785187","500","250","psychophysics","71","382951","0.0-71.0","60fcf16942369a2fb0c093e3","61fd87f6d6e5b79f58a14a41","3","5","52","44","","",""
"4185","key"," "," ","16.675147999999812","500","250","psychophysics","72","387141","0.0-72.0","60fcf16942369a2fb0c093e3","61fd87f6d6e5b79f58a14a41","3","0","36","51","","",""
"4141","key"," "," ","16.674566801619502","500","250","psychophysics","73","391286","0.0-73.0","60fcf16942369a2fb0c093e3","61fd87f6d6e5b79f58a14a41","3","5","42","40","","",""
"1976","key"," "," ","16.67395762711866","500","250","psychophysics","74","393268","0.0-74.0","60fcf16942369a2fb0c093e3","61fd87f6d6e5b79f58a14a41","3","0","24","32","","",""
"3327","key"," "," ","16.674879396985105","500","250","psychophysics","75","396598","0.0-75.0","60fcf16942369a2fb0c093e3","61fd87f6d6e5b79f58a14a41","3","5","37","37","","",""
"1975","key"," "," ","16.674440677965876","500","250","psychophysics","76","398578","0.0-76.0","60fcf16942369a2fb0c093e3","61fd87f6d6e5b79f58a14a41","3","0","23","28","","",""
"3210","key"," "," ","16.674671875000058","500","250","psychophysics","77","401793","0.0-77.0","60fcf16942369a2fb0c093e3","61fd87f6d6e5b79f58a14a41","3","5","43","39","","",""
"3303","key"," "," ","16.675192893401196","500","250","psychophysics","78","405101","0.0-78.0","60fcf16942369a2fb0c093e3","61fd87f6d6e5b79f58a14a41","3","0","23","35","","",""
"2833","key"," "," ","16.673727810650806","500","250","psychophysics","79","407938","0.0-79.0","60fcf16942369a2fb0c093e3","61fd87f6d6e5b79f58a14a41","3","5","21","27","","",""
"5359","key"," "," ","16.67577881619934","500","250","psychophysics","80","413299","0.0-80.0","60fcf16942369a2fb0c093e3","61fd87f6d6e5b79f58a14a41","3","0","46","64","","",""
"2822","key"," "," ","16.673773809523567","500","250","psychophysics","81","416126","0.0-81.0","60fcf16942369a2fb0c093e3","61fd87f6d6e5b79f58a14a41","3","5","40","41","","",""
"4143","key"," "," ","16.673701612903145","500","250","psychophysics","82","420271","0.0-82.0","60fcf16942369a2fb0c093e3","61fd87f6d6e5b79f58a14a41","3","0","49","73","","",""
"4176","key"," "," ","16.674514056224773","500","250","psychophysics","83","424452","0.0-83.0","60fcf16942369a2fb0c093e3","61fd87f6d6e5b79f58a14a41","3","5","45","47","","",""
"4265","key"," "," ","16.675050781249865","500","250","psychophysics","84","428724","0.0-84.0","60fcf16942369a2fb0c093e3","61fd87f6d6e5b79f58a14a41","3","0","42","53","","",""
"1682","key"," "," ","16.673640000000013","500","250","psychophysics","85","430410","0.0-85.0","60fcf16942369a2fb0c093e3","61fd87f6d6e5b79f58a14a41","3","5","22","24","","",""
"1889","key"," "," ","16.674348214285732","500","250","psychophysics","86","432305","0.0-86.0","60fcf16942369a2fb0c093e3","61fd87f6d6e5b79f58a14a41","3","0","23","33","","",""
"1610","key"," "," ","16.676739583333376","500","250","psychophysics","87","433922","0.0-87.0","60fcf16942369a2fb0c093e3","61fd87f6d6e5b79f58a14a41","","","","","","",""
"28286","","","v","","","","html-keyboard-response","88","462211","0.0-88.0","60fcf16942369a2fb0c093e3","61fd87f6d6e5b79f58a14a41","","","","","<p> In this part of the experiment, we are going present digits 1, 2, 3, 4, 6, 7, 8, and 9.  Notice that 5 is missing.  Your job is to say whether the presented digit is less than or greater than 5.  For example, 3 is less than 5 and 7 is greater than 5.  If the digit is less than 5, press the v key; if it is greater than 5, press the n key. We are going to do 200 of these in total, but only 50 righ now. They go real fast.</p>  <br><br>  Ready? (press v or n)","",""
"3323","key","n","n","16.655679999999993","500","250","psychophysics","89","465542","0.0-89.0","60fcf16942369a2fb0c093e3","61fd87f6d6e5b79f58a14a41","4","","","","","1","6"
"null","","","null","","","","html-keyboard-response","90","466045","0.0-90.0","60fcf16942369a2fb0c093e3","61fd87f6d6e5b79f58a14a41","","","","","<p style=""color:darkgreen;font-size:24px;"">Correct :)</p>","",""
"2458","key","v","v","16.6740608108108","500","250","psychophysics","91","468507","0.0-91.0","60fcf16942369a2fb0c093e3","61fd87f6d6e5b79f58a14a41","4","","","","","1","1"
"null","","","null","","","","html-keyboard-response","92","469017","0.0-92.0","60fcf16942369a2fb0c093e3","61fd87f6d6e5b79f58a14a41","","","","","<p style=""color:darkgreen;font-size:24px;"">Correct :)</p>","",""
"2450","key","n","n","16.673258503401243","500","250","psychophysics","93","471472","0.0-93.0","60fcf16942369a2fb0c093e3","61fd87f6d6e5b79f58a14a41","4","","","","","1","7"
"null","","","null","","","","html-keyboard-response","94","471976","0.0-94.0","60fcf16942369a2fb0c093e3","61fd87f6d6e5b79f58a14a41","","","","","<p style=""color:darkgreen;font-size:24px;"">Correct :)</p>","",""
"2366","key","v","v","16.67371830985919","500","250","psychophysics","95","474348","0.0-95.0","60fcf16942369a2fb0c093e3","61fd87f6d6e5b79f58a14a41","4","","","","","1","1"
"null","","","null","","","","html-keyboard-response","96","474850","0.0-96.0","60fcf16942369a2fb0c093e3","61fd87f6d6e5b79f58a14a41","","","","","<p style=""color:darkgreen;font-size:24px;"">Correct :)</p>","",""
"2643","key","v","v","16.672716981132073","500","250","psychophysics","97","477498","0.0-97.0","60fcf16942369a2fb0c093e3","61fd87f6d6e5b79f58a14a41","4","","","","","1","2"
"null","","","null","","","","html-keyboard-response","98","478000","0.0-98.0","60fcf16942369a2fb0c093e3","61fd87f6d6e5b79f58a14a41","","","","","<p style=""color:darkgreen;font-size:24px;"">Correct :)</p>","",""
"2434","key","v","v","16.672787671232967","500","250","psychophysics","99","480439","0.0-99.0","60fcf16942369a2fb0c093e3","61fd87f6d6e5b79f58a14a41","4","","","","","1","2"
"null","","","null","","","","html-keyboard-response","100","480941","0.0-100.0","60fcf16942369a2fb0c093e3","61fd87f6d6e5b79f58a14a41","","","","","<p style=""color:darkgreen;font-size:24px;"">Correct :)</p>","",""
"2435","key","v","v","16.67315646258522","500","250","psychophysics","101","483381","0.0-101.0","60fcf16942369a2fb0c093e3","61fd87f6d6e5b79f58a14a41","4","","","","","1","1"
"null","","","null","","","","html-keyboard-response","102","483883","0.0-102.0","60fcf16942369a2fb0c093e3","61fd87f6d6e5b79f58a14a41","","","","","<p style=""color:darkgreen;font-size:24px;"">Correct :)</p>","",""
"2438","key","n","n","16.67277397260298","500","250","psychophysics","103","486326","0.0-103.0","60fcf16942369a2fb0c093e3","61fd87f6d6e5b79f58a14a41","4","","","","","1","9"
"null","","","null","","","","html-keyboard-response","104","486830","0.0-104.0","60fcf16942369a2fb0c093e3","61fd87f6d6e5b79f58a14a41","","","","","<p style=""color:darkgreen;font-size:24px;"">Correct :)</p>","",""
"2937","key","n","n","16.674118644067896","500","250","psychophysics","105","489772","0.0-105.0","60fcf16942369a2fb0c093e3","61fd87f6d6e5b79f58a14a41","4","","","","","1","8"
"null","","","null","","","","html-keyboard-response","106","490275","0.0-106.0","60fcf16942369a2fb0c093e3","61fd87f6d6e5b79f58a14a41","","","","","<p style=""color:darkgreen;font-size:24px;"">Correct :)</p>","",""
"2432","key","v","v","16.67197260273978","500","250","psychophysics","107","492713","0.0-107.0","60fcf16942369a2fb0c093e3","61fd87f6d6e5b79f58a14a41","4","","","","","1","1"
"null","","","null","","","","html-keyboard-response","108","493215","0.0-108.0","60fcf16942369a2fb0c093e3","61fd87f6d6e5b79f58a14a41","","","","","<p style=""color:darkgreen;font-size:24px;"">Correct :)</p>","",""
"2511","key","v","v","16.6720596026492","500","250","psychophysics","109","495731","0.0-109.0","60fcf16942369a2fb0c093e3","61fd87f6d6e5b79f58a14a41","4","","","","","1","4"
"null","","","null","","","","html-keyboard-response","110","496233","0.0-110.0","60fcf16942369a2fb0c093e3","61fd87f6d6e5b79f58a14a41","","","","","<p style=""color:darkgreen;font-size:24px;"">Correct :)</p>","",""
"2430","key","v","v","16.674027397260247","500","250","psychophysics","111","498668","0.0-111.0","60fcf16942369a2fb0c093e3","61fd87f6d6e5b79f58a14a41","4","","","","","1","1"
"null","","","null","","","","html-keyboard-response","112","499176","0.0-112.0","60fcf16942369a2fb0c093e3","61fd87f6d6e5b79f58a14a41","","","","","<p style=""color:darkgreen;font-size:24px;"">Correct :)</p>","",""
"2572","key","v","v","16.673500000000267","500","250","psychophysics","113","501753","0.0-113.0","60fcf16942369a2fb0c093e3","61fd87f6d6e5b79f58a14a41","4","","","","","1","3"
"null","","","null","","","","html-keyboard-response","114","502254","0.0-114.0","60fcf16942369a2fb0c093e3","61fd87f6d6e5b79f58a14a41","","","","","<p style=""color:darkgreen;font-size:24px;"">Correct :)</p>","",""
"2428","key","n","n","16.6734178082193","500","250","psychophysics","115","504686","0.0-115.0","60fcf16942369a2fb0c093e3","61fd87f6d6e5b79f58a14a41","4","","","","","1","6"
"null","","","null","","","","html-keyboard-response","116","505188","0.0-116.0","60fcf16942369a2fb0c093e3","61fd87f6d6e5b79f58a14a41","","","","","<p style=""color:darkgreen;font-size:24px;"">Correct :)</p>","",""
"2472","key","v","v","16.672865771811967","500","250","psychophysics","117","507665","0.0-117.0","60fcf16942369a2fb0c093e3","61fd87f6d6e5b79f58a14a41","4","","","","","1","4"
"null","","","null","","","","html-keyboard-response","118","508167","0.0-118.0","60fcf16942369a2fb0c093e3","61fd87f6d6e5b79f58a14a41","","","","","<p style=""color:darkgreen;font-size:24px;"">Correct :)</p>","",""
"2551","key","v","v","16.672986928104603","500","250","psychophysics","119","510723","0.0-119.0","60fcf16942369a2fb0c093e3","61fd87f6d6e5b79f58a14a41","4","","","","","1","2"
"null","","","null","","","","html-keyboard-response","120","511225","0.0-120.0","60fcf16942369a2fb0c093e3","61fd87f6d6e5b79f58a14a41","","","","","<p style=""color:darkgreen;font-size:24px;"">Correct :)</p>","",""
"2584","key","n","n","16.673707792207722","500","250","psychophysics","121","513812","0.0-121.0","60fcf16942369a2fb0c093e3","61fd87f6d6e5b79f58a14a41","4","","","","","1","6"
"null","","","null","","","","html-keyboard-response","122","514314","0.0-122.0","60fcf16942369a2fb0c093e3","61fd87f6d6e5b79f58a14a41","","","","","<p style=""color:darkgreen;font-size:24px;"">Correct :)</p>","",""
"2595","key","n","n","16.672487179487153","500","250","psychophysics","123","516914","0.0-123.0","60fcf16942369a2fb0c093e3","61fd87f6d6e5b79f58a14a41","4","","","","","1","6"
"null","","","null","","","","html-keyboard-response","124","517416","0.0-124.0","60fcf16942369a2fb0c093e3","61fd87f6d6e5b79f58a14a41","","","","","<p style=""color:darkgreen;font-size:24px;"">Correct :)</p>","",""
"2453","key","n","n","16.673306122449144","500","250","psychophysics","125","519874","0.0-125.0","60fcf16942369a2fb0c093e3","61fd87f6d6e5b79f58a14a41","4","","","","","1","6"
"null","","","null","","","","html-keyboard-response","126","520377","0.0-126.0","60fcf16942369a2fb0c093e3","61fd87f6d6e5b79f58a14a41","","","","","<p style=""color:darkgreen;font-size:24px;"">Correct :)</p>","",""
"2437","key","n","n","16.671884353741447","500","250","psychophysics","127","522819","0.0-127.0","60fcf16942369a2fb0c093e3","61fd87f6d6e5b79f58a14a41","4","","","","","1","6"
"null","","","null","","","","html-keyboard-response","128","523321","0.0-128.0","60fcf16942369a2fb0c093e3","61fd87f6d6e5b79f58a14a41","","","","","<p style=""color:darkgreen;font-size:24px;"">Correct :)</p>","",""
"2374","key","n","n","16.674188811188706","500","250","psychophysics","129","525701","0.0-129.0","60fcf16942369a2fb0c093e3","61fd87f6d6e5b79f58a14a41","4","","","","","1","6"
"null","","","null","","","","html-keyboard-response","130","526203","0.0-130.0","60fcf16942369a2fb0c093e3","61fd87f6d6e5b79f58a14a41","","","","","<p style=""color:darkgreen;font-size:24px;"">Correct :)</p>","",""
"2507","key","v","v","16.673313333333937","500","250","psychophysics","131","528715","0.0-131.0","60fcf16942369a2fb0c093e3","61fd87f6d6e5b79f58a14a41","4","","","","","1","3"
"null","","","null","","","","html-keyboard-response","132","529218","0.0-132.0","60fcf16942369a2fb0c093e3","61fd87f6d6e5b79f58a14a41","","","","","<p style=""color:darkgreen;font-size:24px;"">Correct :)</p>","",""
"2497","key","v","v","16.670873333332906","500","250","psychophysics","133","531719","0.0-133.0","60fcf16942369a2fb0c093e3","61fd87f6d6e5b79f58a14a41","4","","","","","1","2"
"null","","","null","","","","html-keyboard-response","134","532220","0.0-134.0","60fcf16942369a2fb0c093e3","61fd87f6d6e5b79f58a14a41","","","","","<p style=""color:darkgreen;font-size:24px;"">Correct :)</p>","",""
"2542","key","v","v","16.673769736841724","500","250","psychophysics","135","534768","0.0-135.0","60fcf16942369a2fb0c093e3","61fd87f6d6e5b79f58a14a41","4","","","","","1","1"
"null","","","null","","","","html-keyboard-response","136","535270","0.0-136.0","60fcf16942369a2fb0c093e3","61fd87f6d6e5b79f58a14a41","","","","","<p style=""color:darkgreen;font-size:24px;"">Correct :)</p>","",""
"3018","key","n","n","16.674216666666325","500","250","psychophysics","137","538290","0.0-137.0","60fcf16942369a2fb0c093e3","61fd87f6d6e5b79f58a14a41","4","","","","","1","6"
"null","","","null","","","","html-keyboard-response","138","538793","0.0-138.0","60fcf16942369a2fb0c093e3","61fd87f6d6e5b79f58a14a41","","","","","<p style=""color:darkgreen;font-size:24px;"">Correct :)</p>","",""
"2495","key","v","v","16.6745133333335","500","250","psychophysics","139","541293","0.0-139.0","60fcf16942369a2fb0c093e3","61fd87f6d6e5b79f58a14a41","4","","","","","1","2"
"null","","","null","","","","html-keyboard-response","140","541794","0.0-140.0","60fcf16942369a2fb0c093e3","61fd87f6d6e5b79f58a14a41","","","","","<p style=""color:darkgreen;font-size:24px;"">Correct :)</p>","",""
"2588","key","v","v","16.6734258064512","500","250","psychophysics","141","544388","0.0-141.0","60fcf16942369a2fb0c093e3","61fd87f6d6e5b79f58a14a41","4","","","","","1","4"
"null","","","null","","","","html-keyboard-response","142","544893","0.0-142.0","60fcf16942369a2fb0c093e3","61fd87f6d6e5b79f58a14a41","","","","","<p style=""color:darkgreen;font-size:24px;"">Correct :)</p>","",""
"2613","key","n","n","16.6712229299362","500","250","psychophysics","143","547510","0.0-143.0","60fcf16942369a2fb0c093e3","61fd87f6d6e5b79f58a14a41","4","","","","","1","8"
"null","","","null","","","","html-keyboard-response","144","548012","0.0-144.0","60fcf16942369a2fb0c093e3","61fd87f6d6e5b79f58a14a41","","","","","<p style=""color:darkgreen;font-size:24px;"">Correct :)</p>","",""
"2580","key","n","n","16.672735483870813","500","250","psychophysics","145","550597","0.0-145.0","60fcf16942369a2fb0c093e3","61fd87f6d6e5b79f58a14a41","4","","","","","1","7"
"null","","","null","","","","html-keyboard-response","146","551099","0.0-146.0","60fcf16942369a2fb0c093e3","61fd87f6d6e5b79f58a14a41","","","","","<p style=""color:darkgreen;font-size:24px;"">Correct :)</p>","",""
"2501","key","v","v","16.673320000000142","500","250","psychophysics","147","553602","0.0-147.0","60fcf16942369a2fb0c093e3","61fd87f6d6e5b79f58a14a41","4","","","","","1","1"
"null","","","null","","","","html-keyboard-response","148","554104","0.0-148.0","60fcf16942369a2fb0c093e3","61fd87f6d6e5b79f58a14a41","","","","","<p style=""color:darkgreen;font-size:24px;"">Correct :)</p>","",""
"2651","key","v","v","16.673062893081713","500","250","psychophysics","149","556757","0.0-149.0","60fcf16942369a2fb0c093e3","61fd87f6d6e5b79f58a14a41","4","","","","","1","3"
"null","","","null","","","","html-keyboard-response","150","557258","0.0-150.0","60fcf16942369a2fb0c093e3","61fd87f6d6e5b79f58a14a41","","","","","<p style=""color:darkgreen;font-size:24px;"">Correct :)</p>","",""
"2538","key","v","v","16.67373684210485","500","250","psychophysics","151","559797","0.0-151.0","60fcf16942369a2fb0c093e3","61fd87f6d6e5b79f58a14a41","4","","","","","1","3"
"null","","","null","","","","html-keyboard-response","152","560299","0.0-152.0","60fcf16942369a2fb0c093e3","61fd87f6d6e5b79f58a14a41","","","","","<p style=""color:darkgreen;font-size:24px;"">Correct :)</p>","",""
"2730","key","n","n","16.673756097561238","500","250","psychophysics","153","563042","0.0-153.0","60fcf16942369a2fb0c093e3","61fd87f6d6e5b79f58a14a41","4","","","","","1","9"
"null","","","null","","","","html-keyboard-response","154","563544","0.0-154.0","60fcf16942369a2fb0c093e3","61fd87f6d6e5b79f58a14a41","","","","","<p style=""color:darkgreen;font-size:24px;"">Correct :)</p>","",""
"2523","key","v","v","16.673381578946934","500","250","psychophysics","155","566070","0.0-155.0","60fcf16942369a2fb0c093e3","61fd87f6d6e5b79f58a14a41","4","","","","","1","1"
"null","","","null","","","","html-keyboard-response","156","566572","0.0-156.0","60fcf16942369a2fb0c093e3","61fd87f6d6e5b79f58a14a41","","","","","<p style=""color:darkgreen;font-size:24px;"">Correct :)</p>","",""
"2485","key","n","n","16.672127516778506","500","250","psychophysics","157","569062","0.0-157.0","60fcf16942369a2fb0c093e3","61fd87f6d6e5b79f58a14a41","4","","","","","1","8"
"null","","","null","","","","html-keyboard-response","158","569564","0.0-158.0","60fcf16942369a2fb0c093e3","61fd87f6d6e5b79f58a14a41","","","","","<p style=""color:darkgreen;font-size:24px;"">Correct :)</p>","",""
"3839","key","v","v","16.674458874458573","500","250","psychophysics","159","573408","0.0-159.0","60fcf16942369a2fb0c093e3","61fd87f6d6e5b79f58a14a41","4","","","","","1","2"
"null","","","null","","","","html-keyboard-response","160","573910","0.0-160.0","60fcf16942369a2fb0c093e3","61fd87f6d6e5b79f58a14a41","","","","","<p style=""color:darkgreen;font-size:24px;"">Correct :)</p>","",""
"2562","key","v","v","16.67166233766225","500","250","psychophysics","161","576477","0.0-161.0","60fcf16942369a2fb0c093e3","61fd87f6d6e5b79f58a14a41","4","","","","","1","3"
"null","","","null","","","","html-keyboard-response","162","576978","0.0-162.0","60fcf16942369a2fb0c093e3","61fd87f6d6e5b79f58a14a41","","","","","<p style=""color:darkgreen;font-size:24px;"">Correct :)</p>","",""
"2483","key","n","n","16.67402684563793","500","250","psychophysics","163","579467","0.0-163.0","60fcf16942369a2fb0c093e3","61fd87f6d6e5b79f58a14a41","4","","","","","1","9"
"null","","","null","","","","html-keyboard-response","164","579982","0.0-164.0","60fcf16942369a2fb0c093e3","61fd87f6d6e5b79f58a14a41","","","","","<p style=""color:darkgreen;font-size:24px;"">Correct :)</p>","",""
"2572","key","n","n","16.67214285714292","500","250","psychophysics","165","582559","0.0-165.0","60fcf16942369a2fb0c093e3","61fd87f6d6e5b79f58a14a41","4","","","","","1","4"
"null","","","null","","","","html-keyboard-response","166","583068","0.0-166.0","60fcf16942369a2fb0c093e3","61fd87f6d6e5b79f58a14a41","","","","","<p style=""color:red;font-size:24px;"">Error :(</p>","",""
"2529","key","v","v","16.672039473684364","500","250","psychophysics","167","585602","0.0-167.0","60fcf16942369a2fb0c093e3","61fd87f6d6e5b79f58a14a41","4","","","","","1","3"
"null","","","null","","","","html-keyboard-response","168","586118","0.0-168.0","60fcf16942369a2fb0c093e3","61fd87f6d6e5b79f58a14a41","","","","","<p style=""color:darkgreen;font-size:24px;"">Correct :)</p>","",""
"2489","key","n","n","16.674308724832663","500","250","psychophysics","169","588612","0.0-169.0","60fcf16942369a2fb0c093e3","61fd87f6d6e5b79f58a14a41","4","","","","","1","7"
"null","","","null","","","","html-keyboard-response","170","589113","0.0-170.0","60fcf16942369a2fb0c093e3","61fd87f6d6e5b79f58a14a41","","","","","<p style=""color:darkgreen;font-size:24px;"">Correct :)</p>","",""
"2528","key","v","v","16.671788079469827","500","250","psychophysics","171","591643","0.0-171.0","60fcf16942369a2fb0c093e3","61fd87f6d6e5b79f58a14a41","4","","","","","1","4"
"null","","","null","","","","html-keyboard-response","172","592144","0.0-172.0","60fcf16942369a2fb0c093e3","61fd87f6d6e5b79f58a14a41","","","","","<p style=""color:darkgreen;font-size:24px;"">Correct :)</p>","",""
"2501","key","v","v","16.673291390728583","500","250","psychophysics","173","594649","0.0-173.0","60fcf16942369a2fb0c093e3","61fd87f6d6e5b79f58a14a41","4","","","","","1","2"
"null","","","null","","","","html-keyboard-response","174","595151","0.0-174.0","60fcf16942369a2fb0c093e3","61fd87f6d6e5b79f58a14a41","","","","","<p style=""color:darkgreen;font-size:24px;"">Correct :)</p>","",""
"2536","key","n","n","16.672250000000197","500","250","psychophysics","175","597692","0.0-175.0","60fcf16942369a2fb0c093e3","61fd87f6d6e5b79f58a14a41","4","","","","","1","8"
"null","","","null","","","","html-keyboard-response","176","598194","0.0-176.0","60fcf16942369a2fb0c093e3","61fd87f6d6e5b79f58a14a41","","","","","<p style=""color:darkgreen;font-size:24px;"">Correct :)</p>","",""
"2633","key","n","n","16.674632911392063","500","250","psychophysics","177","600833","0.0-177.0","60fcf16942369a2fb0c093e3","61fd87f6d6e5b79f58a14a41","4","","","","","1","7"
"null","","","null","","","","html-keyboard-response","178","601336","0.0-178.0","60fcf16942369a2fb0c093e3","61fd87f6d6e5b79f58a14a41","","","","","<p style=""color:darkgreen;font-size:24px;"">Correct :)</p>","",""
"2639","key","n","n","16.67444936708839","500","250","psychophysics","179","603980","0.0-179.0","60fcf16942369a2fb0c093e3","61fd87f6d6e5b79f58a14a41","4","","","","","1","9"
"null","","","null","","","","html-keyboard-response","180","604482","0.0-180.0","60fcf16942369a2fb0c093e3","61fd87f6d6e5b79f58a14a41","","","","","<p style=""color:darkgreen;font-size:24px;"">Correct :)</p>","",""
"3022","key","n","n","16.67335714285702","500","250","psychophysics","181","607509","0.0-181.0","60fcf16942369a2fb0c093e3","61fd87f6d6e5b79f58a14a41","4","","","","","1","6"
"null","","","null","","","","html-keyboard-response","182","608011","0.0-182.0","60fcf16942369a2fb0c093e3","61fd87f6d6e5b79f58a14a41","","","","","<p style=""color:darkgreen;font-size:24px;"">Correct :)</p>","",""
"2703","key","v","v","16.674870370370538","500","250","psychophysics","183","610719","0.0-183.0","60fcf16942369a2fb0c093e3","61fd87f6d6e5b79f58a14a41","4","","","","","1","3"
"null","","","null","","","","html-keyboard-response","184","611221","0.0-184.0","60fcf16942369a2fb0c093e3","61fd87f6d6e5b79f58a14a41","","","","","<p style=""color:darkgreen;font-size:24px;"">Correct :)</p>","",""
"3612","key","v","v","16.674581395348987","500","250","psychophysics","185","614836","0.0-185.0","60fcf16942369a2fb0c093e3","61fd87f6d6e5b79f58a14a41","4","","","","","1","3"
"null","","","null","","","","html-keyboard-response","186","615338","0.0-186.0","60fcf16942369a2fb0c093e3","61fd87f6d6e5b79f58a14a41","","","","","<p style=""color:darkgreen;font-size:24px;"">Correct :)</p>","",""
"2478","key","n","n","16.674530201342314","500","250","psychophysics","187","617821","0.0-187.0","60fcf16942369a2fb0c093e3","61fd87f6d6e5b79f58a14a41","4","","","","","1","6"
"null","","","null","","","","html-keyboard-response","188","618337","0.0-188.0","60fcf16942369a2fb0c093e3","61fd87f6d6e5b79f58a14a41","","","","","<p style=""color:darkgreen;font-size:24px;"">Correct :)</p>","",""
"9265","","","v","","","","html-keyboard-response","189","627603","0.0-189.0","60fcf16942369a2fb0c093e3","61fd87f6d6e5b79f58a14a41","","","","","<p> Ok, now we are going present the same digits as before.  Your job is to say whether the digit is even or odd  If the digit is odd, press to v key; if it is even, press the n key. We are going to do 50 of these.  </p>  <br><br>  Ready? (press v or n)","",""
"2627","key","v","v","16.655917721519046","500","250","psychophysics","190","630236","0.0-190.0","60fcf16942369a2fb0c093e3","61fd87f6d6e5b79f58a14a41","5","","","","","0","3"
"null","","","null","","","","html-keyboard-response","191","630738","0.0-191.0","60fcf16942369a2fb0c093e3","61fd87f6d6e5b79f58a14a41","","","","","<p style=""color:darkgreen;font-size:24px;"">Correct :)</p>","",""
"2530","key","v","v","16.67094736842065","500","250","psychophysics","192","633273","0.0-192.0","60fcf16942369a2fb0c093e3","61fd87f6d6e5b79f58a14a41","5","","","","","0","3"
"null","","","null","","","","html-keyboard-response","193","633775","0.0-193.0","60fcf16942369a2fb0c093e3","61fd87f6d6e5b79f58a14a41","","","","","<p style=""color:darkgreen;font-size:24px;"">Correct :)</p>","",""
"2592","key","n","n","16.67302564102619","500","250","psychophysics","194","636372","0.0-194.0","60fcf16942369a2fb0c093e3","61fd87f6d6e5b79f58a14a41","5","","","","","0","9"
"null","","","null","","","","html-keyboard-response","195","636874","0.0-195.0","60fcf16942369a2fb0c093e3","61fd87f6d6e5b79f58a14a41","","","","","<p style=""color:red;font-size:24px;"">Error :(</p>","",""
"2873","key","n","n","16.671686046511113","500","250","psychophysics","196","639752","0.0-196.0","60fcf16942369a2fb0c093e3","61fd87f6d6e5b79f58a14a41","5","","","","","0","6"
"null","","","null","","","","html-keyboard-response","197","640254","0.0-197.0","60fcf16942369a2fb0c093e3","61fd87f6d6e5b79f58a14a41","","","","","<p style=""color:darkgreen;font-size:24px;"">Correct :)</p>","",""
"2550","key","v","v","16.673326797386192","500","250","psychophysics","198","642808","0.0-198.0","60fcf16942369a2fb0c093e3","61fd87f6d6e5b79f58a14a41","5","","","","","0","2"
"null","","","null","","","","html-keyboard-response","199","643322","0.0-199.0","60fcf16942369a2fb0c093e3","61fd87f6d6e5b79f58a14a41","","","","","<p style=""color:red;font-size:24px;"">Error :(</p>","",""
"2783","key","v","v","16.675401197604188","500","250","psychophysics","200","646110","0.0-200.0","60fcf16942369a2fb0c093e3","61fd87f6d6e5b79f58a14a41","5","","","","","0","3"
"null","","","null","","","","html-keyboard-response","201","646612","0.0-201.0","60fcf16942369a2fb0c093e3","61fd87f6d6e5b79f58a14a41","","","","","<p style=""color:darkgreen;font-size:24px;"">Correct :)</p>","",""
"2653","key","v","v","16.67348427672976","500","250","psychophysics","202","649270","0.0-202.0","60fcf16942369a2fb0c093e3","61fd87f6d6e5b79f58a14a41","5","","","","","0","1"
"null","","","null","","","","html-keyboard-response","203","649773","0.0-203.0","60fcf16942369a2fb0c093e3","61fd87f6d6e5b79f58a14a41","","","","","<p style=""color:darkgreen;font-size:24px;"">Correct :)</p>","",""
"2800","key","n","n","16.673377245509144","500","250","psychophysics","204","652576","0.0-204.0","60fcf16942369a2fb0c093e3","61fd87f6d6e5b79f58a14a41","5","","","","","0","6"
"null","","","null","","","","html-keyboard-response","205","653078","0.0-205.0","60fcf16942369a2fb0c093e3","61fd87f6d6e5b79f58a14a41","","","","","<p style=""color:darkgreen;font-size:24px;"">Correct :)</p>","",""
"2482","key","n","n","16.673080536912682","500","250","psychophysics","206","655566","0.0-206.0","60fcf16942369a2fb0c093e3","61fd87f6d6e5b79f58a14a41","5","","","","","0","6"
"null","","","null","","","","html-keyboard-response","207","656067","0.0-207.0","60fcf16942369a2fb0c093e3","61fd87f6d6e5b79f58a14a41","","","","","<p style=""color:darkgreen;font-size:24px;"">Correct :)</p>","",""
"2869","key","v","v","16.673441860465424","500","250","psychophysics","208","658940","0.0-208.0","60fcf16942369a2fb0c093e3","61fd87f6d6e5b79f58a14a41","5","","","","","0","7"
"null","","","null","","","","html-keyboard-response","209","659442","0.0-209.0","60fcf16942369a2fb0c093e3","61fd87f6d6e5b79f58a14a41","","","","","<p style=""color:darkgreen;font-size:24px;"">Correct :)</p>","",""
"2591","key","v","v","16.67311538461572","500","250","psychophysics","210","662038","0.0-210.0","60fcf16942369a2fb0c093e3","61fd87f6d6e5b79f58a14a41","5","","","","","0","1"
"null","","","null","","","","html-keyboard-response","211","662539","0.0-211.0","60fcf16942369a2fb0c093e3","61fd87f6d6e5b79f58a14a41","","","","","<p style=""color:darkgreen;font-size:24px;"">Correct :)</p>","",""
"2552","key","v","v","16.670934640522436","500","250","psychophysics","212","665095","0.0-212.0","60fcf16942369a2fb0c093e3","61fd87f6d6e5b79f58a14a41","5","","","","","0","1"
"null","","","null","","","","html-keyboard-response","213","665598","0.0-213.0","60fcf16942369a2fb0c093e3","61fd87f6d6e5b79f58a14a41","","","","","<p style=""color:darkgreen;font-size:24px;"">Correct :)</p>","",""
"2501","key","v","v","16.671640000000284","500","250","psychophysics","214","668104","0.0-214.0","60fcf16942369a2fb0c093e3","61fd87f6d6e5b79f58a14a41","5","","","","","0","1"
"null","","","null","","","","html-keyboard-response","215","668606","0.0-215.0","60fcf16942369a2fb0c093e3","61fd87f6d6e5b79f58a14a41","","","","","<p style=""color:darkgreen;font-size:24px;"">Correct :)</p>","",""
"2741","key","n","n","16.672242424241972","500","250","psychophysics","216","671352","0.0-216.0","60fcf16942369a2fb0c093e3","61fd87f6d6e5b79f58a14a41","5","","","","","0","7"
"null","","","null","","","","html-keyboard-response","217","671854","0.0-217.0","60fcf16942369a2fb0c093e3","61fd87f6d6e5b79f58a14a41","","","","","<p style=""color:red;font-size:24px;"">Error :(</p>","",""
"2558","key","n","n","16.67216339869291","500","250","psychophysics","218","674417","0.0-218.0","60fcf16942369a2fb0c093e3","61fd87f6d6e5b79f58a14a41","5","","","","","0","8"
"null","","","null","","","","html-keyboard-response","219","674920","0.0-219.0","60fcf16942369a2fb0c093e3","61fd87f6d6e5b79f58a14a41","","","","","<p style=""color:darkgreen;font-size:24px;"">Correct :)</p>","",""
"2752","key","n","n","16.67121818181847","500","250","psychophysics","220","677678","0.0-220.0","60fcf16942369a2fb0c093e3","61fd87f6d6e5b79f58a14a41","5","","","","","0","6"
"null","","","null","","","","html-keyboard-response","221","678180","0.0-221.0","60fcf16942369a2fb0c093e3","61fd87f6d6e5b79f58a14a41","","","","","<p style=""color:darkgreen;font-size:24px;"">Correct :)</p>","",""
"2665","key","n","n","16.67230000000054","500","250","psychophysics","222","680850","0.0-222.0","60fcf16942369a2fb0c093e3","61fd87f6d6e5b79f58a14a41","5","","","","","0","2"
"null","","","null","","","","html-keyboard-response","223","681353","0.0-223.0","60fcf16942369a2fb0c093e3","61fd87f6d6e5b79f58a14a41","","","","","<p style=""color:darkgreen;font-size:24px;"">Correct :)</p>","",""
"2851","key","v","v","16.673249999999996","500","250","psychophysics","224","684209","0.0-224.0","60fcf16942369a2fb0c093e3","61fd87f6d6e5b79f58a14a41","5","","","","","0","9"
"null","","","null","","","","html-keyboard-response","225","684711","0.0-225.0","60fcf16942369a2fb0c093e3","61fd87f6d6e5b79f58a14a41","","","","","<p style=""color:darkgreen;font-size:24px;"">Correct :)</p>","",""
"3206","key","n","n","16.672854166667094","500","250","psychophysics","226","687922","0.0-226.0","60fcf16942369a2fb0c093e3","61fd87f6d6e5b79f58a14a41","5","","","","","0","4"
"null","","","null","","","","html-keyboard-response","227","688424","0.0-227.0","60fcf16942369a2fb0c093e3","61fd87f6d6e5b79f58a14a41","","","","","<p style=""color:darkgreen;font-size:24px;"">Correct :)</p>","",""
"2529","key","n","n","16.78239072847723","500","250","psychophysics","228","690958","0.0-228.0","60fcf16942369a2fb0c093e3","61fd87f6d6e5b79f58a14a41","5","","","","","0","4"
"null","","","null","","","","html-keyboard-response","229","691460","0.0-229.0","60fcf16942369a2fb0c093e3","61fd87f6d6e5b79f58a14a41","","","","","<p style=""color:darkgreen;font-size:24px;"">Correct :)</p>","",""
"2437","key","n","n","16.6720753424659","500","250","psychophysics","230","693902","0.0-230.0","60fcf16942369a2fb0c093e3","61fd87f6d6e5b79f58a14a41","5","","","","","0","2"
"null","","","null","","","","html-keyboard-response","231","694405","0.0-231.0","60fcf16942369a2fb0c093e3","61fd87f6d6e5b79f58a14a41","","","","","<p style=""color:darkgreen;font-size:24px;"">Correct :)</p>","",""
"2879","key","n","n","16.674421965317514","500","250","psychophysics","232","697288","0.0-232.0","60fcf16942369a2fb0c093e3","61fd87f6d6e5b79f58a14a41","5","","","","","0","6"
"null","","","null","","","","html-keyboard-response","233","697801","0.0-233.0","60fcf16942369a2fb0c093e3","61fd87f6d6e5b79f58a14a41","","","","","<p style=""color:darkgreen;font-size:24px;"">Correct :)</p>","",""
"2955","key","n","n","16.673248587570175","500","250","psychophysics","234","700760","0.0-234.0","60fcf16942369a2fb0c093e3","61fd87f6d6e5b79f58a14a41","5","","","","","0","8"
"null","","","null","","","","html-keyboard-response","235","701262","0.0-235.0","60fcf16942369a2fb0c093e3","61fd87f6d6e5b79f58a14a41","","","","","<p style=""color:darkgreen;font-size:24px;"">Correct :)</p>","",""
"2824","key","v","v","16.672517647058704","500","250","psychophysics","236","704091","0.0-236.0","60fcf16942369a2fb0c093e3","61fd87f6d6e5b79f58a14a41","5","","","","","0","1"
"null","","","null","","","","html-keyboard-response","237","704593","0.0-237.0","60fcf16942369a2fb0c093e3","61fd87f6d6e5b79f58a14a41","","","","","<p style=""color:darkgreen;font-size:24px;"">Correct :)</p>","",""
"2877","key","n","n","16.673421965318468","500","250","psychophysics","238","707476","0.0-238.0","60fcf16942369a2fb0c093e3","61fd87f6d6e5b79f58a14a41","5","","","","","0","6"
"null","","","null","","","","html-keyboard-response","239","707978","0.0-239.0","60fcf16942369a2fb0c093e3","61fd87f6d6e5b79f58a14a41","","","","","<p style=""color:darkgreen;font-size:24px;"">Correct :)</p>","",""
"2526","key","n","n","16.672526315789774","500","250","psychophysics","240","710510","0.0-240.0","60fcf16942369a2fb0c093e3","61fd87f6d6e5b79f58a14a41","5","","","","","0","6"
"null","","","null","","","","html-keyboard-response","241","711012","0.0-241.0","60fcf16942369a2fb0c093e3","61fd87f6d6e5b79f58a14a41","","","","","<p style=""color:darkgreen;font-size:24px;"">Correct :)</p>","",""
"2599","key","v","v","16.674666666666806","500","250","psychophysics","242","713616","0.0-242.0","60fcf16942369a2fb0c093e3","61fd87f6d6e5b79f58a14a41","5","","","","","0","9"
"null","","","null","","","","html-keyboard-response","243","714118","0.0-243.0","60fcf16942369a2fb0c093e3","61fd87f6d6e5b79f58a14a41","","","","","<p style=""color:darkgreen;font-size:24px;"">Correct :)</p>","",""
"2596","key","n","n","16.673416666667134","500","250","psychophysics","244","716719","0.0-244.0","60fcf16942369a2fb0c093e3","61fd87f6d6e5b79f58a14a41","5","","","","","0","8"
"null","","","null","","","","html-keyboard-response","245","717221","0.0-245.0","60fcf16942369a2fb0c093e3","61fd87f6d6e5b79f58a14a41","","","","","<p style=""color:darkgreen;font-size:24px;"">Correct :)</p>","",""
"2734","key","n","n","16.67429878048758","500","250","psychophysics","246","719960","0.0-246.0","60fcf16942369a2fb0c093e3","61fd87f6d6e5b79f58a14a41","5","","","","","0","6"
"null","","","null","","","","html-keyboard-response","247","720462","0.0-247.0","60fcf16942369a2fb0c093e3","61fd87f6d6e5b79f58a14a41","","","","","<p style=""color:darkgreen;font-size:24px;"">Correct :)</p>","",""
"2602","key","v","v","16.673044871794843","500","250","psychophysics","248","723069","0.0-248.0","60fcf16942369a2fb0c093e3","61fd87f6d6e5b79f58a14a41","5","","","","","0","1"
"null","","","null","","","","html-keyboard-response","249","723570","0.0-249.0","60fcf16942369a2fb0c093e3","61fd87f6d6e5b79f58a14a41","","","","","<p style=""color:darkgreen;font-size:24px;"">Correct :)</p>","",""
"2581","key","n","n","16.67454487179445","500","250","psychophysics","250","726162","0.0-250.0","60fcf16942369a2fb0c093e3","61fd87f6d6e5b79f58a14a41","5","","","","","0","8"
"null","","","null","","","","html-keyboard-response","251","726663","0.0-251.0","60fcf16942369a2fb0c093e3","61fd87f6d6e5b79f58a14a41","","","","","<p style=""color:darkgreen;font-size:24px;"">Correct :)</p>","",""
"2587","key","v","v","16.672941935483756","500","250","psychophysics","252","729256","0.0-252.0","60fcf16942369a2fb0c093e3","61fd87f6d6e5b79f58a14a41","5","","","","","0","7"
"null","","","null","","","","html-keyboard-response","253","729762","0.0-253.0","60fcf16942369a2fb0c093e3","61fd87f6d6e5b79f58a14a41","","","","","<p style=""color:darkgreen;font-size:24px;"">Correct :)</p>","",""
"2849","key","n","n","16.67243859649102","500","250","psychophysics","254","732616","0.0-254.0","60fcf16942369a2fb0c093e3","61fd87f6d6e5b79f58a14a41","5","","","","","0","4"
"null","","","null","","","","html-keyboard-response","255","733119","0.0-255.0","60fcf16942369a2fb0c093e3","61fd87f6d6e5b79f58a14a41","","","","","<p style=""color:darkgreen;font-size:24px;"">Correct :)</p>","",""
"2753","key","n","n","16.673260606060538","500","250","psychophysics","256","735878","0.0-256.0","60fcf16942369a2fb0c093e3","61fd87f6d6e5b79f58a14a41","5","","","","","0","8"
"null","","","null","","","","html-keyboard-response","257","736380","0.0-257.0","60fcf16942369a2fb0c093e3","61fd87f6d6e5b79f58a14a41","","","","","<p style=""color:darkgreen;font-size:24px;"">Correct :)</p>","",""
"2550","key","n","n","16.67107843137209","500","250","psychophysics","258","738934","0.0-258.0","60fcf16942369a2fb0c093e3","61fd87f6d6e5b79f58a14a41","5","","","","","0","6"
"null","","","null","","","","html-keyboard-response","259","739436","0.0-259.0","60fcf16942369a2fb0c093e3","61fd87f6d6e5b79f58a14a41","","","","","<p style=""color:darkgreen;font-size:24px;"">Correct :)</p>","",""
"2757","key","v","v","16.67422424242479","500","250","psychophysics","260","742199","0.0-260.0","60fcf16942369a2fb0c093e3","61fd87f6d6e5b79f58a14a41","5","","","","","0","7"
"null","","","null","","","","html-keyboard-response","261","742701","0.0-261.0","60fcf16942369a2fb0c093e3","61fd87f6d6e5b79f58a14a41","","","","","<p style=""color:darkgreen;font-size:24px;"">Correct :)</p>","",""
"2565","key","n","n","16.671922077922236","500","250","psychophysics","262","745270","0.0-262.0","60fcf16942369a2fb0c093e3","61fd87f6d6e5b79f58a14a41","5","","","","","0","8"
"null","","","null","","","","html-keyboard-response","263","745773","0.0-263.0","60fcf16942369a2fb0c093e3","61fd87f6d6e5b79f58a14a41","","","","","<p style=""color:darkgreen;font-size:24px;"">Correct :)</p>","",""
"2695","key","v","v","16.6726419753086","500","250","psychophysics","264","748472","0.0-264.0","60fcf16942369a2fb0c093e3","61fd87f6d6e5b79f58a14a41","5","","","","","0","7"
"null","","","null","","","","html-keyboard-response","265","748975","0.0-265.0","60fcf16942369a2fb0c093e3","61fd87f6d6e5b79f58a14a41","","","","","<p style=""color:darkgreen;font-size:24px;"">Correct :)</p>","",""
"2534","key","v","v","16.674585526315862","500","250","psychophysics","266","751514","0.0-266.0","60fcf16942369a2fb0c093e3","61fd87f6d6e5b79f58a14a41","5","","","","","0","3"
"null","","","null","","","","html-keyboard-response","267","752020","0.0-267.0","60fcf16942369a2fb0c093e3","61fd87f6d6e5b79f58a14a41","","","","","<p style=""color:darkgreen;font-size:24px;"">Correct :)</p>","",""
"2784","key","v","v","16.674694610778438","500","250","psychophysics","268","754809","0.0-268.0","60fcf16942369a2fb0c093e3","61fd87f6d6e5b79f58a14a41","5","","","","","0","7"
"null","","","null","","","","html-keyboard-response","269","755311","0.0-269.0","60fcf16942369a2fb0c093e3","61fd87f6d6e5b79f58a14a41","","","","","<p style=""color:darkgreen;font-size:24px;"">Correct :)</p>","",""
"2600","key","n","n","16.672320512820406","500","250","psychophysics","270","757916","0.0-270.0","60fcf16942369a2fb0c093e3","61fd87f6d6e5b79f58a14a41","5","","","","","0","4"
"null","","","null","","","","html-keyboard-response","271","758417","0.0-271.0","60fcf16942369a2fb0c093e3","61fd87f6d6e5b79f58a14a41","","","","","<p style=""color:darkgreen;font-size:24px;"">Correct :)</p>","",""
"2668","key","v","v","16.674824999999693","500","250","psychophysics","272","761088","0.0-272.0","60fcf16942369a2fb0c093e3","61fd87f6d6e5b79f58a14a41","5","","","","","0","3"
"null","","","null","","","","html-keyboard-response","273","761592","0.0-273.0","60fcf16942369a2fb0c093e3","61fd87f6d6e5b79f58a14a41","","","","","<p style=""color:darkgreen;font-size:24px;"">Correct :)</p>","",""
"2842","key","n","n","16.673223529411615","500","250","psychophysics","274","764439","0.0-274.0","60fcf16942369a2fb0c093e3","61fd87f6d6e5b79f58a14a41","5","","","","","0","4"
"null","","","null","","","","html-keyboard-response","275","764941","0.0-275.0","60fcf16942369a2fb0c093e3","61fd87f6d6e5b79f58a14a41","","","","","<p style=""color:darkgreen;font-size:24px;"">Correct :)</p>","",""
"2504","key","n","n","16.673337748344366","500","250","psychophysics","276","767450","0.0-276.0","60fcf16942369a2fb0c093e3","61fd87f6d6e5b79f58a14a41","5","","","","","0","4"
"null","","","null","","","","html-keyboard-response","277","767952","0.0-277.0","60fcf16942369a2fb0c093e3","61fd87f6d6e5b79f58a14a41","","","","","<p style=""color:darkgreen;font-size:24px;"">Correct :)</p>","",""
"2564","key","n","n","16.674103896103365","500","250","psychophysics","278","770522","0.0-278.0","60fcf16942369a2fb0c093e3","61fd87f6d6e5b79f58a14a41","5","","","","","0","2"
"null","","","null","","","","html-keyboard-response","279","771024","0.0-279.0","60fcf16942369a2fb0c093e3","61fd87f6d6e5b79f58a14a41","","","","","<p style=""color:darkgreen;font-size:24px;"">Correct :)</p>","",""
"2548","key","v","v","16.67326797385627","500","250","psychophysics","280","773577","0.0-280.0","60fcf16942369a2fb0c093e3","61fd87f6d6e5b79f58a14a41","5","","","","","0","3"
"null","","","null","","","","html-keyboard-response","281","774079","0.0-281.0","60fcf16942369a2fb0c093e3","61fd87f6d6e5b79f58a14a41","","","","","<p style=""color:darkgreen;font-size:24px;"">Correct :)</p>","",""
"2617","key","v","v","16.672867088607376","500","250","psychophysics","282","776701","0.0-282.0","60fcf16942369a2fb0c093e3","61fd87f6d6e5b79f58a14a41","5","","","","","0","3"
"null","","","null","","","","html-keyboard-response","283","777209","0.0-283.0","60fcf16942369a2fb0c093e3","61fd87f6d6e5b79f58a14a41","","","","","<p style=""color:darkgreen;font-size:24px;"">Correct :)</p>","",""
"2806","key","v","v","16.673165680473456","500","250","psychophysics","284","780020","0.0-284.0","60fcf16942369a2fb0c093e3","61fd87f6d6e5b79f58a14a41","5","","","","","0","1"
"null","","","null","","","","html-keyboard-response","285","780523","0.0-285.0","60fcf16942369a2fb0c093e3","61fd87f6d6e5b79f58a14a41","","","","","<p style=""color:darkgreen;font-size:24px;"">Correct :)</p>","",""
"2429","key","v","v","16.671636986301426","500","250","psychophysics","286","782957","0.0-286.0","60fcf16942369a2fb0c093e3","61fd87f6d6e5b79f58a14a41","5","","","","","0","1"
"null","","","null","","","","html-keyboard-response","287","783459","0.0-287.0","60fcf16942369a2fb0c093e3","61fd87f6d6e5b79f58a14a41","","","","","<p style=""color:darkgreen;font-size:24px;"">Correct :)</p>","",""
"2573","key","n","n","16.67409740259732","500","250","psychophysics","288","786037","0.0-288.0","60fcf16942369a2fb0c093e3","61fd87f6d6e5b79f58a14a41","5","","","","","0","2"
"null","","","null","","","","html-keyboard-response","289","786539","0.0-289.0","60fcf16942369a2fb0c093e3","61fd87f6d6e5b79f58a14a41","","","","","<p style=""color:darkgreen;font-size:24px;"">Correct :)</p>","",""
"7988","","","v","","","","html-keyboard-response","290","794528","0.0-290.0","60fcf16942369a2fb0c093e3","61fd87f6d6e5b79f58a14a41","","","","","<p> Here, the tasks are going to switch.  For some trials, your job is to decide if the digit is less than or greater than 5.  For others, it is to decide if the digit is even or odd.  You will be told which type of trial the current one is.  But, pay attention, the type of trial changes too.  We are going to do 50 of these.  </p>  <br><br>  Ready? (press v or n)","",""
"2709","key","n","n","16.652055555555744","500","250","psychophysics","291","797241","0.0-291.0","60fcf16942369a2fb0c093e3","61fd87f6d6e5b79f58a14a41","6","","","","","0","6"
"null","","","null","","","","html-keyboard-response","292","797743","0.0-292.0","60fcf16942369a2fb0c093e3","61fd87f6d6e5b79f58a14a41","","","","","<p style=""color:darkgreen;font-size:24px;"">Correct :)</p>","",""
"2573","key","n","n","16.672623376623584","500","250","psychophysics","293","800321","0.0-293.0","60fcf16942369a2fb0c093e3","61fd87f6d6e5b79f58a14a41","6","","","","","0","4"
"null","","","null","","","","html-keyboard-response","294","800823","0.0-294.0","60fcf16942369a2fb0c093e3","61fd87f6d6e5b79f58a14a41","","","","","<p style=""color:darkgreen;font-size:24px;"">Correct :)</p>","",""
"2472","key","n","n","16.67205369127555","500","250","psychophysics","295","803300","0.0-295.0","60fcf16942369a2fb0c093e3","61fd87f6d6e5b79f58a14a41","6","","","","","0","4"
"null","","","null","","","","html-keyboard-response","296","803803","0.0-296.0","60fcf16942369a2fb0c093e3","61fd87f6d6e5b79f58a14a41","","","","","<p style=""color:darkgreen;font-size:24px;"">Correct :)</p>","",""
"2441","key","v","v","16.67487755101998","500","250","psychophysics","297","806248","0.0-297.0","60fcf16942369a2fb0c093e3","61fd87f6d6e5b79f58a14a41","6","","","","","1","3"
"null","","","null","","","","html-keyboard-response","298","806749","0.0-298.0","60fcf16942369a2fb0c093e3","61fd87f6d6e5b79f58a14a41","","","","","<p style=""color:darkgreen;font-size:24px;"">Correct :)</p>","",""
"2513","key","n","n","16.672483443708888","500","250","psychophysics","299","809267","0.0-299.0","60fcf16942369a2fb0c093e3","61fd87f6d6e5b79f58a14a41","6","","","","","0","4"
"null","","","null","","","","html-keyboard-response","300","809769","0.0-300.0","60fcf16942369a2fb0c093e3","61fd87f6d6e5b79f58a14a41","","","","","<p style=""color:darkgreen;font-size:24px;"">Correct :)</p>","",""
"3143","key","v","v","16.672308510638764","500","250","psychophysics","301","812916","0.0-301.0","60fcf16942369a2fb0c093e3","61fd87f6d6e5b79f58a14a41","6","","","","","0","1"
"null","","","null","","","","html-keyboard-response","302","813418","0.0-302.0","60fcf16942369a2fb0c093e3","61fd87f6d6e5b79f58a14a41","","","","","<p style=""color:darkgreen;font-size:24px;"">Correct :)</p>","",""
"2921","key","v","v","16.67445714285664","500","250","psychophysics","303","816343","0.0-303.0","60fcf16942369a2fb0c093e3","61fd87f6d6e5b79f58a14a41","6","","","","","1","2"
"null","","","null","","","","html-keyboard-response","304","816846","0.0-304.0","60fcf16942369a2fb0c093e3","61fd87f6d6e5b79f58a14a41","","","","","<p style=""color:darkgreen;font-size:24px;"">Correct :)</p>","",""
"2796","key","v","v","16.674291666667116","500","250","psychophysics","305","819647","0.0-305.0","60fcf16942369a2fb0c093e3","61fd87f6d6e5b79f58a14a41","6","","","","","1","4"
"null","","","null","","","","html-keyboard-response","306","820149","0.0-306.0","60fcf16942369a2fb0c093e3","61fd87f6d6e5b79f58a14a41","","","","","<p style=""color:darkgreen;font-size:24px;"">Correct :)</p>","",""
"2477","key","n","n","16.67493959731616","500","250","psychophysics","307","822631","0.0-307.0","60fcf16942369a2fb0c093e3","61fd87f6d6e5b79f58a14a41","6","","","","","0","6"
"null","","","null","","","","html-keyboard-response","308","823134","0.0-308.0","60fcf16942369a2fb0c093e3","61fd87f6d6e5b79f58a14a41","","","","","<p style=""color:darkgreen;font-size:24px;"">Correct :)</p>","",""
"2835","key","v","v","16.67490643274845","500","250","psychophysics","309","825974","0.0-309.0","60fcf16942369a2fb0c093e3","61fd87f6d6e5b79f58a14a41","6","","","","","0","9"
"null","","","null","","","","html-keyboard-response","310","826476","0.0-310.0","60fcf16942369a2fb0c093e3","61fd87f6d6e5b79f58a14a41","","","","","<p style=""color:darkgreen;font-size:24px;"">Correct :)</p>","",""
"2623","key","v","v","16.67318471337544","500","250","psychophysics","311","829103","0.0-311.0","60fcf16942369a2fb0c093e3","61fd87f6d6e5b79f58a14a41","6","","","","","0","1"
"null","","","null","","","","html-keyboard-response","312","829605","0.0-312.0","60fcf16942369a2fb0c093e3","61fd87f6d6e5b79f58a14a41","","","","","<p style=""color:darkgreen;font-size:24px;"">Correct :)</p>","",""
"2458","key","v","v","16.67200675675633","500","250","psychophysics","313","832068","0.0-313.0","60fcf16942369a2fb0c093e3","61fd87f6d6e5b79f58a14a41","6","","","","","1","4"
"null","","","null","","","","html-keyboard-response","314","832570","0.0-314.0","60fcf16942369a2fb0c093e3","61fd87f6d6e5b79f58a14a41","","","","","<p style=""color:darkgreen;font-size:24px;"">Correct :)</p>","",""
"2575","key","n","n","16.672716129031933","500","250","psychophysics","315","835151","0.0-315.0","60fcf16942369a2fb0c093e3","61fd87f6d6e5b79f58a14a41","6","","","","","0","6"
"null","","","null","","","","html-keyboard-response","316","835653","0.0-316.0","60fcf16942369a2fb0c093e3","61fd87f6d6e5b79f58a14a41","","","","","<p style=""color:darkgreen;font-size:24px;"">Correct :)</p>","",""
"2396","key","n","n","16.67302083333359","500","250","psychophysics","317","838054","0.0-317.0","60fcf16942369a2fb0c093e3","61fd87f6d6e5b79f58a14a41","6","","","","","1","7"
"null","","","null","","","","html-keyboard-response","318","838556","0.0-318.0","60fcf16942369a2fb0c093e3","61fd87f6d6e5b79f58a14a41","","","","","<p style=""color:darkgreen;font-size:24px;"">Correct :)</p>","",""
"2930","key","v","v","16.672630681818358","500","250","psychophysics","319","841492","0.0-319.0","60fcf16942369a2fb0c093e3","61fd87f6d6e5b79f58a14a41","6","","","","","0","4"
"null","","","null","","","","html-keyboard-response","320","841995","0.0-320.0","60fcf16942369a2fb0c093e3","61fd87f6d6e5b79f58a14a41","","","","","<p style=""color:red;font-size:24px;"">Error :(</p>","",""
"2970","key","v","v","16.671754189943844","500","250","psychophysics","321","844969","0.0-321.0","60fcf16942369a2fb0c093e3","61fd87f6d6e5b79f58a14a41","6","","","","","0","9"
"null","","","null","","","","html-keyboard-response","322","845472","0.0-322.0","60fcf16942369a2fb0c093e3","61fd87f6d6e5b79f58a14a41","","","","","<p style=""color:darkgreen;font-size:24px;"">Correct :)</p>","",""
"2784","key","v","v","16.67200598802451","500","250","psychophysics","323","848261","0.0-323.0","60fcf16942369a2fb0c093e3","61fd87f6d6e5b79f58a14a41","6","","","","","1","3"
"null","","","null","","","","html-keyboard-response","324","848763","0.0-324.0","60fcf16942369a2fb0c093e3","61fd87f6d6e5b79f58a14a41","","","","","<p style=""color:darkgreen;font-size:24px;"">Correct :)</p>","",""
"3272","key","n","n","16.674289340101925","500","250","psychophysics","325","852041","0.0-325.0","60fcf16942369a2fb0c093e3","61fd87f6d6e5b79f58a14a41","6","","","","","1","8"
"null","","","null","","","","html-keyboard-response","326","852543","0.0-326.0","60fcf16942369a2fb0c093e3","61fd87f6d6e5b79f58a14a41","","","","","<p style=""color:darkgreen;font-size:24px;"">Correct :)</p>","",""
"2558","key","n","n","16.67227922077971","500","250","psychophysics","327","855106","0.0-327.0","60fcf16942369a2fb0c093e3","61fd87f6d6e5b79f58a14a41","6","","","","","0","6"
"null","","","null","","","","html-keyboard-response","328","855608","0.0-328.0","60fcf16942369a2fb0c093e3","61fd87f6d6e5b79f58a14a41","","","","","<p style=""color:darkgreen;font-size:24px;"">Correct :)</p>","",""
"2450","key","v","v","16.67130612244918","500","250","psychophysics","329","858063","0.0-329.0","60fcf16942369a2fb0c093e3","61fd87f6d6e5b79f58a14a41","6","","","","","1","2"
"null","","","null","","","","html-keyboard-response","330","858565","0.0-330.0","60fcf16942369a2fb0c093e3","61fd87f6d6e5b79f58a14a41","","","","","<p style=""color:darkgreen;font-size:24px;"">Correct :)</p>","",""
"3269","key","n","n","16.672387755101745","500","250","psychophysics","331","861839","0.0-331.0","60fcf16942369a2fb0c093e3","61fd87f6d6e5b79f58a14a41","6","","","","","1","7"
"null","","","null","","","","html-keyboard-response","332","862341","0.0-332.0","60fcf16942369a2fb0c093e3","61fd87f6d6e5b79f58a14a41","","","","","<p style=""color:darkgreen;font-size:24px;"">Correct :)</p>","",""
"2536","key","v","v","16.67307236842125","500","250","psychophysics","333","864882","0.0-333.0","60fcf16942369a2fb0c093e3","61fd87f6d6e5b79f58a14a41","6","","","","","1","1"
"null","","","null","","","","html-keyboard-response","334","865385","0.0-334.0","60fcf16942369a2fb0c093e3","61fd87f6d6e5b79f58a14a41","","","","","<p style=""color:darkgreen;font-size:24px;"">Correct :)</p>","",""
"3429","key","v","v","16.67446116504804","500","250","psychophysics","335","868819","0.0-335.0","60fcf16942369a2fb0c093e3","61fd87f6d6e5b79f58a14a41","6","","","","","0","3"
"null","","","null","","","","html-keyboard-response","336","869321","0.0-336.0","60fcf16942369a2fb0c093e3","61fd87f6d6e5b79f58a14a41","","","","","<p style=""color:darkgreen;font-size:24px;"">Correct :)</p>","",""
"2810","key","v","v","16.672142011834687","500","250","psychophysics","337","872137","0.0-337.0","60fcf16942369a2fb0c093e3","61fd87f6d6e5b79f58a14a41","6","","","","","1","2"
"null","","","null","","","","html-keyboard-response","338","872640","0.0-338.0","60fcf16942369a2fb0c093e3","61fd87f6d6e5b79f58a14a41","","","","","<p style=""color:darkgreen;font-size:24px;"">Correct :)</p>","",""
"2879","key","v","v","16.672797687861777","500","250","psychophysics","339","875524","0.0-339.0","60fcf16942369a2fb0c093e3","61fd87f6d6e5b79f58a14a41","6","","","","","0","7"
"null","","","null","","","","html-keyboard-response","340","876027","0.0-340.0","60fcf16942369a2fb0c093e3","61fd87f6d6e5b79f58a14a41","","","","","<p style=""color:darkgreen;font-size:24px;"">Correct :)</p>","",""
"2596","key","v","v","16.673205128205247","500","250","psychophysics","341","878627","0.0-341.0","60fcf16942369a2fb0c093e3","61fd87f6d6e5b79f58a14a41","6","","","","","1","7"
"null","","","null","","","","html-keyboard-response","342","879129","0.0-342.0","60fcf16942369a2fb0c093e3","61fd87f6d6e5b79f58a14a41","","","","","<p style=""color:red;font-size:24px;"">Error :(</p>","",""
"2566","key","v","v","16.673632258064895","500","250","psychophysics","343","881700","0.0-343.0","60fcf16942369a2fb0c093e3","61fd87f6d6e5b79f58a14a41","6","","","","","1","4"
"null","","","null","","","","html-keyboard-response","344","882200","0.0-344.0","60fcf16942369a2fb0c093e3","61fd87f6d6e5b79f58a14a41","","","","","<p style=""color:darkgreen;font-size:24px;"">Correct :)</p>","",""
"2699","key","n","n","16.673253086419994","500","250","psychophysics","345","884904","0.0-345.0","60fcf16942369a2fb0c093e3","61fd87f6d6e5b79f58a14a41","6","","","","","0","4"
"null","","","null","","","","html-keyboard-response","346","885406","0.0-346.0","60fcf16942369a2fb0c093e3","61fd87f6d6e5b79f58a14a41","","","","","<p style=""color:darkgreen;font-size:24px;"">Correct :)</p>","",""
"2577","key","n","n","16.672793548386693","500","250","psychophysics","347","887989","0.0-347.0","60fcf16942369a2fb0c093e3","61fd87f6d6e5b79f58a14a41","6","","","","","1","9"
"null","","","null","","","","html-keyboard-response","348","888491","0.0-348.0","60fcf16942369a2fb0c093e3","61fd87f6d6e5b79f58a14a41","","","","","<p style=""color:darkgreen;font-size:24px;"">Correct :)</p>","",""
"2491","key","n","n","16.675153333332855","500","250","psychophysics","349","890988","0.0-349.0","60fcf16942369a2fb0c093e3","61fd87f6d6e5b79f58a14a41","6","","","","","1","6"
"null","","","null","","","","html-keyboard-response","350","891490","0.0-350.0","60fcf16942369a2fb0c093e3","61fd87f6d6e5b79f58a14a41","","","","","<p style=""color:darkgreen;font-size:24px;"">Correct :)</p>","",""
"2791","key","v","v","16.674269461077863","500","250","psychophysics","351","894285","0.0-351.0","60fcf16942369a2fb0c093e3","61fd87f6d6e5b79f58a14a41","6","","","","","0","4"
"null","","","null","","","","html-keyboard-response","352","894787","0.0-352.0","60fcf16942369a2fb0c093e3","61fd87f6d6e5b79f58a14a41","","","","","<p style=""color:red;font-size:24px;"">Error :(</p>","",""
"3048","key","n","n","16.673459016393533","500","250","psychophysics","353","897840","0.0-353.0","60fcf16942369a2fb0c093e3","61fd87f6d6e5b79f58a14a41","6","","","","","1","7"
"null","","","null","","","","html-keyboard-response","354","898342","0.0-354.0","60fcf16942369a2fb0c093e3","61fd87f6d6e5b79f58a14a41","","","","","<p style=""color:darkgreen;font-size:24px;"">Correct :)</p>","",""
"2480","key","v","v","16.673080536912682","500","250","psychophysics","355","900827","0.0-355.0","60fcf16942369a2fb0c093e3","61fd87f6d6e5b79f58a14a41","6","","","","","1","3"
"null","","","null","","","","html-keyboard-response","356","901335","0.0-356.0","60fcf16942369a2fb0c093e3","61fd87f6d6e5b79f58a14a41","","","","","<p style=""color:darkgreen;font-size:24px;"">Correct :)</p>","",""
"2677","key","v","v","16.671559006211446","500","250","psychophysics","357","904023","0.0-357.0","60fcf16942369a2fb0c093e3","61fd87f6d6e5b79f58a14a41","6","","","","","0","7"
"null","","","null","","","","html-keyboard-response","358","904526","0.0-358.0","60fcf16942369a2fb0c093e3","61fd87f6d6e5b79f58a14a41","","","","","<p style=""color:darkgreen;font-size:24px;"">Correct :)</p>","",""
"2457","key","v","v","16.67263945578249","500","250","psychophysics","359","906989","0.0-359.0","60fcf16942369a2fb0c093e3","61fd87f6d6e5b79f58a14a41","6","","","","","0","7"
"null","","","null","","","","html-keyboard-response","360","907504","0.0-360.0","60fcf16942369a2fb0c093e3","61fd87f6d6e5b79f58a14a41","","","","","<p style=""color:darkgreen;font-size:24px;"">Correct :)</p>","",""
"2654","key","v","v","16.673212500000226","500","250","psychophysics","361","910164","0.0-361.0","60fcf16942369a2fb0c093e3","61fd87f6d6e5b79f58a14a41","6","","","","","1","3"
"null","","","null","","","","html-keyboard-response","362","910666","0.0-362.0","60fcf16942369a2fb0c093e3","61fd87f6d6e5b79f58a14a41","","","","","<p style=""color:darkgreen;font-size:24px;"">Correct :)</p>","",""
"3201","key","n","n","16.67206770833339","500","250","psychophysics","363","913871","0.0-363.0","60fcf16942369a2fb0c093e3","61fd87f6d6e5b79f58a14a41","6","","","","","0","8"
"null","","","null","","","","html-keyboard-response","364","914373","0.0-364.0","60fcf16942369a2fb0c093e3","61fd87f6d6e5b79f58a14a41","","","","","<p style=""color:darkgreen;font-size:24px;"">Correct :)</p>","",""
"2636","key","v","v","16.6732088607593","500","250","psychophysics","365","917014","0.0-365.0","60fcf16942369a2fb0c093e3","61fd87f6d6e5b79f58a14a41","6","","","","","1","3"
"null","","","null","","","","html-keyboard-response","366","917516","0.0-366.0","60fcf16942369a2fb0c093e3","61fd87f6d6e5b79f58a14a41","","","","","<p style=""color:darkgreen;font-size:24px;"">Correct :)</p>","",""
"2616","key","v","v","16.67185987261195","500","250","psychophysics","367","920136","0.0-367.0","60fcf16942369a2fb0c093e3","61fd87f6d6e5b79f58a14a41","6","","","","","1","2"
"null","","","null","","","","html-keyboard-response","368","920638","0.0-368.0","60fcf16942369a2fb0c093e3","61fd87f6d6e5b79f58a14a41","","","","","<p style=""color:darkgreen;font-size:24px;"">Correct :)</p>","",""
"2976","key","v","v","16.67334078212318","500","250","psychophysics","369","923620","0.0-369.0","60fcf16942369a2fb0c093e3","61fd87f6d6e5b79f58a14a41","6","","","","","0","3"
"null","","","null","","","","html-keyboard-response","370","924122","0.0-370.0","60fcf16942369a2fb0c093e3","61fd87f6d6e5b79f58a14a41","","","","","<p style=""color:darkgreen;font-size:24px;"">Correct :)</p>","",""
"2893","key","v","v","16.67171839080435","500","250","psychophysics","371","927020","0.0-371.0","60fcf16942369a2fb0c093e3","61fd87f6d6e5b79f58a14a41","6","","","","","1","2"
"null","","","null","","","","html-keyboard-response","372","927522","0.0-372.0","60fcf16942369a2fb0c093e3","61fd87f6d6e5b79f58a14a41","","","","","<p style=""color:darkgreen;font-size:24px;"">Correct :)</p>","",""
"2843","key","n","n","16.670982352941408","500","250","psychophysics","373","930370","0.0-373.0","60fcf16942369a2fb0c093e3","61fd87f6d6e5b79f58a14a41","6","","","","","0","4"
"null","","","null","","","","html-keyboard-response","374","930872","0.0-374.0","60fcf16942369a2fb0c093e3","61fd87f6d6e5b79f58a14a41","","","","","<p style=""color:darkgreen;font-size:24px;"">Correct :)</p>","",""
"2962","key","n","n","16.672435028248962","500","250","psychophysics","375","933838","0.0-375.0","60fcf16942369a2fb0c093e3","61fd87f6d6e5b79f58a14a41","6","","","","","0","7"
"null","","","null","","","","html-keyboard-response","376","934340","0.0-376.0","60fcf16942369a2fb0c093e3","61fd87f6d6e5b79f58a14a41","","","","","<p style=""color:red;font-size:24px;"">Error :(</p>","",""
"2827","key","n","n","16.673982248521003","500","250","psychophysics","377","937172","0.0-377.0","60fcf16942369a2fb0c093e3","61fd87f6d6e5b79f58a14a41","6","","","","","1","7"
"null","","","null","","","","html-keyboard-response","378","937675","0.0-378.0","60fcf16942369a2fb0c093e3","61fd87f6d6e5b79f58a14a41","","","","","<p style=""color:darkgreen;font-size:24px;"">Correct :)</p>","",""
"2918","key","n","n","16.675119999999712","500","250","psychophysics","379","940595","0.0-379.0","60fcf16942369a2fb0c093e3","61fd87f6d6e5b79f58a14a41","6","","","","","0","4"
"null","","","null","","","","html-keyboard-response","380","941097","0.0-380.0","60fcf16942369a2fb0c093e3","61fd87f6d6e5b79f58a14a41","","","","","<p style=""color:darkgreen;font-size:24px;"">Correct :)</p>","",""
"2588","key","v","v","16.67082580645163","500","250","psychophysics","381","943691","0.0-381.0","60fcf16942369a2fb0c093e3","61fd87f6d6e5b79f58a14a41","6","","","","","0","9"
"null","","","null","","","","html-keyboard-response","382","944192","0.0-382.0","60fcf16942369a2fb0c093e3","61fd87f6d6e5b79f58a14a41","","","","","<p style=""color:darkgreen;font-size:24px;"">Correct :)</p>","",""
"2628","key","v","v","16.67394303797473","500","250","psychophysics","383","946824","0.0-383.0","60fcf16942369a2fb0c093e3","61fd87f6d6e5b79f58a14a41","6","","","","","0","9"
"null","","","null","","","","html-keyboard-response","384","947325","0.0-384.0","60fcf16942369a2fb0c093e3","61fd87f6d6e5b79f58a14a41","","","","","<p style=""color:darkgreen;font-size:24px;"">Correct :)</p>","",""
"2924","key","n","n","16.673318181817937","500","250","psychophysics","385","950254","0.0-385.0","60fcf16942369a2fb0c093e3","61fd87f6d6e5b79f58a14a41","6","","","","","0","6"
"null","","","null","","","","html-keyboard-response","386","950755","0.0-386.0","60fcf16942369a2fb0c093e3","61fd87f6d6e5b79f58a14a41","","","","","<p style=""color:darkgreen;font-size:24px;"">Correct :)</p>","",""
"2913","key","v","v","16.67197142857127","500","250","psychophysics","387","953674","0.0-387.0","60fcf16942369a2fb0c093e3","61fd87f6d6e5b79f58a14a41","6","","","","","0","8"
"null","","","null","","","","html-keyboard-response","388","954174","0.0-388.0","60fcf16942369a2fb0c093e3","61fd87f6d6e5b79f58a14a41","","","","","<p style=""color:red;font-size:24px;"">Error :(</p>","",""
"2788","key","n","n","16.673401197604697","500","250","psychophysics","389","956967","0.0-389.0","60fcf16942369a2fb0c093e3","61fd87f6d6e5b79f58a14a41","6","","","","","0","6"
"null","","","null","","","","html-keyboard-response","390","957470","0.0-390.0","60fcf16942369a2fb0c093e3","61fd87f6d6e5b79f58a14a41","","","","","<p style=""color:darkgreen;font-size:24px;"">Correct :)</p>","",""
"3713","","","v","","","","html-keyboard-response","391","961185","0.0-391.0","60fcf16942369a2fb0c093e3","61fd87f6d6e5b79f58a14a41","","","","","<p> Last set of trials.  Here, the tasks are going to switch once again.  We are going to do 50 of these.  And then you are done with the experiment.  </p>  <br><br>  Ready? (press v or n)","",""
"2678","key","n","n","16.766874999999708","500","250","psychophysics","392","963869","0.0-392.0","60fcf16942369a2fb0c093e3","61fd87f6d6e5b79f58a14a41","7","","","","","1","6"
"null","","","null","","","","html-keyboard-response","393","964371","0.0-393.0","60fcf16942369a2fb0c093e3","61fd87f6d6e5b79f58a14a41","","","","","<p style=""color:darkgreen;font-size:24px;"">Correct :)</p>","",""
"2813","key","v","v","16.673497041420095","500","250","psychophysics","394","967190","0.0-394.0","60fcf16942369a2fb0c093e3","61fd87f6d6e5b79f58a14a41","7","","","","","1","4"
"null","","","null","","","","html-keyboard-response","395","967691","0.0-395.0","60fcf16942369a2fb0c093e3","61fd87f6d6e5b79f58a14a41","","","","","<p style=""color:darkgreen;font-size:24px;"">Correct :)</p>","",""
"2515","key","v","v","16.673033112582182","500","250","psychophysics","396","970211","0.0-396.0","60fcf16942369a2fb0c093e3","61fd87f6d6e5b79f58a14a41","7","","","","","0","3"
"null","","","null","","","","html-keyboard-response","397","970712","0.0-397.0","60fcf16942369a2fb0c093e3","61fd87f6d6e5b79f58a14a41","","","","","<p style=""color:darkgreen;font-size:24px;"">Correct :)</p>","",""
"2610","key","n","n","16.67242038216602","500","250","psychophysics","398","973327","0.0-398.0","60fcf16942369a2fb0c093e3","61fd87f6d6e5b79f58a14a41","7","","","","","1","7"
"null","","","null","","","","html-keyboard-response","399","973830","0.0-399.0","60fcf16942369a2fb0c093e3","61fd87f6d6e5b79f58a14a41","","","","","<p style=""color:darkgreen;font-size:24px;"">Correct :)</p>","",""
"2808","key","v","v","16.6735357142856","500","250","psychophysics","400","976643","0.0-400.0","60fcf16942369a2fb0c093e3","61fd87f6d6e5b79f58a14a41","7","","","","","0","3"
"null","","","null","","","","html-keyboard-response","401","977146","0.0-401.0","60fcf16942369a2fb0c093e3","61fd87f6d6e5b79f58a14a41","","","","","<p style=""color:darkgreen;font-size:24px;"">Correct :)</p>","",""
"2615","key","v","v","16.673687898089728","500","250","psychophysics","402","979766","0.0-402.0","60fcf16942369a2fb0c093e3","61fd87f6d6e5b79f58a14a41","7","","","","","0","3"
"null","","","null","","","","html-keyboard-response","403","980276","0.0-403.0","60fcf16942369a2fb0c093e3","61fd87f6d6e5b79f58a14a41","","","","","<p style=""color:darkgreen;font-size:24px;"">Correct :)</p>","",""
"2515","key","n","n","16.67296710526295","500","250","psychophysics","404","982797","0.0-404.0","60fcf16942369a2fb0c093e3","61fd87f6d6e5b79f58a14a41","7","","","","","0","6"
"null","","","null","","","","html-keyboard-response","405","983298","0.0-405.0","60fcf16942369a2fb0c093e3","61fd87f6d6e5b79f58a14a41","","","","","<p style=""color:darkgreen;font-size:24px;"">Correct :)</p>","",""
"2455","key","n","n","16.671367346939512","500","250","psychophysics","406","985758","0.0-406.0","60fcf16942369a2fb0c093e3","61fd87f6d6e5b79f58a14a41","7","","","","","0","4"
"null","","","null","","","","html-keyboard-response","407","986264","0.0-407.0","60fcf16942369a2fb0c093e3","61fd87f6d6e5b79f58a14a41","","","","","<p style=""color:darkgreen;font-size:24px;"">Correct :)</p>","",""
"2385","key","v","v","16.6714475524475","500","250","psychophysics","408","988653","0.0-408.0","60fcf16942369a2fb0c093e3","61fd87f6d6e5b79f58a14a41","7","","","","","1","2"
"null","","","null","","","","html-keyboard-response","409","989155","0.0-409.0","60fcf16942369a2fb0c093e3","61fd87f6d6e5b79f58a14a41","","","","","<p style=""color:darkgreen;font-size:24px;"">Correct :)</p>","",""
"2502","key","n","n","16.672146666666183","500","250","psychophysics","410","991662","0.0-410.0","60fcf16942369a2fb0c093e3","61fd87f6d6e5b79f58a14a41","7","","","","","0","4"
"null","","","null","","","","html-keyboard-response","411","992164","0.0-411.0","60fcf16942369a2fb0c093e3","61fd87f6d6e5b79f58a14a41","","","","","<p style=""color:darkgreen;font-size:24px;"">Correct :)</p>","",""
"2498","key","n","n","16.670780000000573","500","250","psychophysics","412","994668","0.0-412.0","60fcf16942369a2fb0c093e3","61fd87f6d6e5b79f58a14a41","7","","","","","0","6"
"null","","","null","","","","html-keyboard-response","413","995170","0.0-413.0","60fcf16942369a2fb0c093e3","61fd87f6d6e5b79f58a14a41","","","","","<p style=""color:darkgreen;font-size:24px;"">Correct :)</p>","",""
"2465","key","v","v","16.674317567567563","500","250","psychophysics","414","997640","0.0-414.0","60fcf16942369a2fb0c093e3","61fd87f6d6e5b79f58a14a41","7","","","","","1","2"
"null","","","null","","","","html-keyboard-response","415","998142","0.0-415.0","60fcf16942369a2fb0c093e3","61fd87f6d6e5b79f58a14a41","","","","","<p style=""color:darkgreen;font-size:24px;"">Correct :)</p>","",""
"2502","key","v","v","16.671726666666412","500","250","psychophysics","416","1000649","0.0-416.0","60fcf16942369a2fb0c093e3","61fd87f6d6e5b79f58a14a41","7","","","","","1","3"
"null","","","null","","","","html-keyboard-response","417","1001150","0.0-417.0","60fcf16942369a2fb0c093e3","61fd87f6d6e5b79f58a14a41","","","","","<p style=""color:darkgreen;font-size:24px;"">Correct :)</p>","",""
"2684","key","v","v","16.671788819876113","500","250","psychophysics","418","1003838","0.0-418.0","60fcf16942369a2fb0c093e3","61fd87f6d6e5b79f58a14a41","7","","","","","0","2"
"null","","","null","","","","html-keyboard-response","419","1004340","0.0-419.0","60fcf16942369a2fb0c093e3","61fd87f6d6e5b79f58a14a41","","","","","<p style=""color:red;font-size:24px;"">Error :(</p>","",""
"2477","key","v","v","16.673135135134814","500","250","psychophysics","420","1006822","0.0-420.0","60fcf16942369a2fb0c093e3","61fd87f6d6e5b79f58a14a41","7","","","","","0","1"
"null","","","null","","","","html-keyboard-response","421","1007325","0.0-421.0","60fcf16942369a2fb0c093e3","61fd87f6d6e5b79f58a14a41","","","","","<p style=""color:darkgreen;font-size:24px;"">Correct :)</p>","",""
"2596","key","n","n","16.67209615384584","500","250","psychophysics","422","1009927","0.0-422.0","60fcf16942369a2fb0c093e3","61fd87f6d6e5b79f58a14a41","7","","","","","1","7"
"null","","","null","","","","html-keyboard-response","423","1010432","0.0-423.0","60fcf16942369a2fb0c093e3","61fd87f6d6e5b79f58a14a41","","","","","<p style=""color:darkgreen;font-size:24px;"">Correct :)</p>","",""
"2414","key","v","v","16.672717241380074","500","250","psychophysics","424","1012851","0.0-424.0","60fcf16942369a2fb0c093e3","61fd87f6d6e5b79f58a14a41","7","","","","","1","3"
"null","","","null","","","","html-keyboard-response","425","1013353","0.0-425.0","60fcf16942369a2fb0c093e3","61fd87f6d6e5b79f58a14a41","","","","","<p style=""color:darkgreen;font-size:24px;"">Correct :)</p>","",""
"2631","key","n","n","16.674360759493666","500","250","psychophysics","426","1015989","0.0-426.0","60fcf16942369a2fb0c093e3","61fd87f6d6e5b79f58a14a41","7","","","","","0","4"
"null","","","null","","","","html-keyboard-response","427","1016491","0.0-427.0","60fcf16942369a2fb0c093e3","61fd87f6d6e5b79f58a14a41","","","","","<p style=""color:darkgreen;font-size:24px;"">Correct :)</p>","",""
"2622","key","n","n","16.673462025316496","500","250","psychophysics","428","1019118","0.0-428.0","60fcf16942369a2fb0c093e3","61fd87f6d6e5b79f58a14a41","7","","","","","1","6"
"null","","","null","","","","html-keyboard-response","429","1019622","0.0-429.0","60fcf16942369a2fb0c093e3","61fd87f6d6e5b79f58a14a41","","","","","<p style=""color:darkgreen;font-size:24px;"">Correct :)</p>","",""
"2864","key","n","n","16.674261627906965","500","250","psychophysics","430","1022490","0.0-430.0","60fcf16942369a2fb0c093e3","61fd87f6d6e5b79f58a14a41","7","","","","","0","2"
"null","","","null","","","","html-keyboard-response","431","1022993","0.0-431.0","60fcf16942369a2fb0c093e3","61fd87f6d6e5b79f58a14a41","","","","","<p style=""color:darkgreen;font-size:24px;"">Correct :)</p>","",""
"2785","key","v","v","16.67463095238158","500","250","psychophysics","432","1025783","0.0-432.0","60fcf16942369a2fb0c093e3","61fd87f6d6e5b79f58a14a41","7","","","","","0","1"
"null","","","null","","","","html-keyboard-response","433","1026286","0.0-433.0","60fcf16942369a2fb0c093e3","61fd87f6d6e5b79f58a14a41","","","","","<p style=""color:darkgreen;font-size:24px;"">Correct :)</p>","",""
"2377","key","v","v","16.67189510489433","500","250","psychophysics","434","1028668","0.0-434.0","60fcf16942369a2fb0c093e3","61fd87f6d6e5b79f58a14a41","7","","","","","0","7"
"null","","","null","","","","html-keyboard-response","435","1029176","0.0-435.0","60fcf16942369a2fb0c093e3","61fd87f6d6e5b79f58a14a41","","","","","<p style=""color:darkgreen;font-size:24px;"">Correct :)</p>","",""
"2438","key","v","v","16.673308219177784","500","250","psychophysics","436","1031618","0.0-436.0","60fcf16942369a2fb0c093e3","61fd87f6d6e5b79f58a14a41","7","","","","","0","7"
"null","","","null","","","","html-keyboard-response","437","1032121","0.0-437.0","60fcf16942369a2fb0c093e3","61fd87f6d6e5b79f58a14a41","","","","","<p style=""color:darkgreen;font-size:24px;"">Correct :)</p>","",""
"2553","key","n","n","16.673490196078394","500","250","psychophysics","438","1034679","0.0-438.0","60fcf16942369a2fb0c093e3","61fd87f6d6e5b79f58a14a41","7","","","","","0","6"
"null","","","null","","","","html-keyboard-response","439","1035182","0.0-439.0","60fcf16942369a2fb0c093e3","61fd87f6d6e5b79f58a14a41","","","","","<p style=""color:darkgreen;font-size:24px;"">Correct :)</p>","",""
"2897","key","n","n","16.67294252873599","500","250","psychophysics","440","1038083","0.0-440.0","60fcf16942369a2fb0c093e3","61fd87f6d6e5b79f58a14a41","7","","","","","0","4"
"null","","","null","","","","html-keyboard-response","441","1038585","0.0-441.0","60fcf16942369a2fb0c093e3","61fd87f6d6e5b79f58a14a41","","","","","<p style=""color:darkgreen;font-size:24px;"">Correct :)</p>","",""
"2606","key","n","n","16.67169426751596","500","250","psychophysics","442","1041197","0.0-442.0","60fcf16942369a2fb0c093e3","61fd87f6d6e5b79f58a14a41","7","","","","","0","2"
"null","","","null","","","","html-keyboard-response","443","1041700","0.0-443.0","60fcf16942369a2fb0c093e3","61fd87f6d6e5b79f58a14a41","","","","","<p style=""color:darkgreen;font-size:24px;"">Correct :)</p>","",""
"2584","key","v","v","16.673116129032906","500","250","psychophysics","444","1044289","0.0-444.0","60fcf16942369a2fb0c093e3","61fd87f6d6e5b79f58a14a41","7","","","","","0","1"
"null","","","null","","","","html-keyboard-response","445","1044792","0.0-445.0","60fcf16942369a2fb0c093e3","61fd87f6d6e5b79f58a14a41","","","","","<p style=""color:darkgreen;font-size:24px;"">Correct :)</p>","",""
"2367","key","n","n","16.671471830985418","500","250","psychophysics","446","1047164","0.0-446.0","60fcf16942369a2fb0c093e3","61fd87f6d6e5b79f58a14a41","7","","","","","1","7"
"null","","","null","","","","html-keyboard-response","447","1047666","0.0-447.0","60fcf16942369a2fb0c093e3","61fd87f6d6e5b79f58a14a41","","","","","<p style=""color:darkgreen;font-size:24px;"">Correct :)</p>","",""
"2573","key","v","v","16.673246753247085","500","250","psychophysics","448","1050244","0.0-448.0","60fcf16942369a2fb0c093e3","61fd87f6d6e5b79f58a14a41","7","","","","","0","7"
"null","","","null","","","","html-keyboard-response","449","1050745","0.0-449.0","60fcf16942369a2fb0c093e3","61fd87f6d6e5b79f58a14a41","","","","","<p style=""color:darkgreen;font-size:24px;"">Correct :)</p>","",""
"2560","key","v","v","16.67106535947833","500","250","psychophysics","450","1053310","0.0-450.0","60fcf16942369a2fb0c093e3","61fd87f6d6e5b79f58a14a41","7","","","","","0","3"
"null","","","null","","","","html-keyboard-response","451","1053813","0.0-451.0","60fcf16942369a2fb0c093e3","61fd87f6d6e5b79f58a14a41","","","","","<p style=""color:darkgreen;font-size:24px;"">Correct :)</p>","",""
"2459","key","v","v","16.673224489795373","500","250","psychophysics","452","1056277","0.0-452.0","60fcf16942369a2fb0c093e3","61fd87f6d6e5b79f58a14a41","7","","","","","0","3"
"null","","","null","","","","html-keyboard-response","453","1056780","0.0-453.0","60fcf16942369a2fb0c093e3","61fd87f6d6e5b79f58a14a41","","","","","<p style=""color:darkgreen;font-size:24px;"">Correct :)</p>","",""
"2485","key","n","n","16.672382550335946","500","250","psychophysics","454","1059267","0.0-454.0","60fcf16942369a2fb0c093e3","61fd87f6d6e5b79f58a14a41","7","","","","","1","7"
"null","","","null","","","","html-keyboard-response","455","1059769","0.0-455.0","60fcf16942369a2fb0c093e3","61fd87f6d6e5b79f58a14a41","","","","","<p style=""color:darkgreen;font-size:24px;"">Correct :)</p>","",""
"2478","key","v","v","16.673328859059627","500","250","psychophysics","456","1062253","0.0-456.0","60fcf16942369a2fb0c093e3","61fd87f6d6e5b79f58a14a41","7","","","","","0","3"
"null","","","null","","","","html-keyboard-response","457","1062754","0.0-457.0","60fcf16942369a2fb0c093e3","61fd87f6d6e5b79f58a14a41","","","","","<p style=""color:darkgreen;font-size:24px;"">Correct :)</p>","",""
"2522","key","n","n","16.67509271523033","500","250","psychophysics","458","1065281","0.0-458.0","60fcf16942369a2fb0c093e3","61fd87f6d6e5b79f58a14a41","7","","","","","0","4"
"null","","","null","","","","html-keyboard-response","459","1065788","0.0-459.0","60fcf16942369a2fb0c093e3","61fd87f6d6e5b79f58a14a41","","","","","<p style=""color:darkgreen;font-size:24px;"">Correct :)</p>","",""
"2600","key","v","v","16.673064102563494","500","250","psychophysics","460","1068393","0.0-460.0","60fcf16942369a2fb0c093e3","61fd87f6d6e5b79f58a14a41","7","","","","","1","3"
"null","","","null","","","","html-keyboard-response","461","1068898","0.0-461.0","60fcf16942369a2fb0c093e3","61fd87f6d6e5b79f58a14a41","","","","","<p style=""color:darkgreen;font-size:24px;"">Correct :)</p>","",""
"2573","key","v","v","16.6723096774185","500","250","psychophysics","462","1071475","0.0-462.0","60fcf16942369a2fb0c093e3","61fd87f6d6e5b79f58a14a41","7","","","","","0","7"
"null","","","null","","","","html-keyboard-response","463","1071977","0.0-463.0","60fcf16942369a2fb0c093e3","61fd87f6d6e5b79f58a14a41","","","","","<p style=""color:darkgreen;font-size:24px;"">Correct :)</p>","",""
"2429","key","v","v","16.67297260273943","500","250","psychophysics","464","1074412","0.0-464.0","60fcf16942369a2fb0c093e3","61fd87f6d6e5b79f58a14a41","7","","","","","1","3"
"null","","","null","","","","html-keyboard-response","465","1074924","0.0-465.0","60fcf16942369a2fb0c093e3","61fd87f6d6e5b79f58a14a41","","","","","<p style=""color:darkgreen;font-size:24px;"">Correct :)</p>","",""
"2528","key","v","v","16.672427631579154","500","250","psychophysics","466","1077457","0.0-466.0","60fcf16942369a2fb0c093e3","61fd87f6d6e5b79f58a14a41","7","","","","","1","1"
"null","","","null","","","","html-keyboard-response","467","1077968","0.0-467.0","60fcf16942369a2fb0c093e3","61fd87f6d6e5b79f58a14a41","","","","","<p style=""color:darkgreen;font-size:24px;"">Correct :)</p>","",""
"2654","key","n","n","16.67246875000128","500","250","psychophysics","468","1080627","0.0-468.0","60fcf16942369a2fb0c093e3","61fd87f6d6e5b79f58a14a41","7","","","","","0","2"
"null","","","null","","","","html-keyboard-response","469","1081129","0.0-469.0","60fcf16942369a2fb0c093e3","61fd87f6d6e5b79f58a14a41","","","","","<p style=""color:darkgreen;font-size:24px;"">Correct :)</p>","",""
"2474","key","v","v","16.67330405405389","500","250","psychophysics","470","1083608","0.0-470.0","60fcf16942369a2fb0c093e3","61fd87f6d6e5b79f58a14a41","7","","","","","1","1"
"null","","","null","","","","html-keyboard-response","471","1084117","0.0-471.0","60fcf16942369a2fb0c093e3","61fd87f6d6e5b79f58a14a41","","","","","<p style=""color:darkgreen;font-size:24px;"">Correct :)</p>","",""
"2761","key","n","n","16.674168674698862","500","250","psychophysics","472","1086884","0.0-472.0","60fcf16942369a2fb0c093e3","61fd87f6d6e5b79f58a14a41","7","","","","","0","4"
"null","","","null","","","","html-keyboard-response","473","1087386","0.0-473.0","60fcf16942369a2fb0c093e3","61fd87f6d6e5b79f58a14a41","","","","","<p style=""color:darkgreen;font-size:24px;"">Correct :)</p>","",""
"2565","key","n","n","16.67161038960935","500","250","psychophysics","474","1089957","0.0-474.0","60fcf16942369a2fb0c093e3","61fd87f6d6e5b79f58a14a41","7","","","","","1","6"
"null","","","null","","","","html-keyboard-response","475","1090460","0.0-475.0","60fcf16942369a2fb0c093e3","61fd87f6d6e5b79f58a14a41","","","","","<p style=""color:darkgreen;font-size:24px;"">Correct :)</p>","",""
"2597","key","n","n","16.67360897435962","500","250","psychophysics","476","1093063","0.0-476.0","60fcf16942369a2fb0c093e3","61fd87f6d6e5b79f58a14a41","7","","","","","1","6"
"null","","","null","","","","html-keyboard-response","477","1093565","0.0-477.0","60fcf16942369a2fb0c093e3","61fd87f6d6e5b79f58a14a41","","","","","<p style=""color:darkgreen;font-size:24px;"">Correct :)</p>","",""
"2619","key","v","v","16.67385350318424","500","250","psychophysics","478","1096188","0.0-478.0","60fcf16942369a2fb0c093e3","61fd87f6d6e5b79f58a14a41","7","","","","","0","3"
"null","","","null","","","","html-keyboard-response","479","1096705","0.0-479.0","60fcf16942369a2fb0c093e3","61fd87f6d6e5b79f58a14a41","","","","","<p style=""color:darkgreen;font-size:24px;"">Correct :)</p>","",""
"2923","key","v","v","16.673519999999552","500","250","psychophysics","480","1099633","0.0-480.0","60fcf16942369a2fb0c093e3","61fd87f6d6e5b79f58a14a41","7","","","","","1","3"
"null","","","null","","","","html-keyboard-response","481","1100135","0.0-481.0","60fcf16942369a2fb0c093e3","61fd87f6d6e5b79f58a14a41","","","","","<p style=""color:darkgreen;font-size:24px;"">Correct :)</p>","",""
"2504","key","n","n","16.673986666666654","500","250","psychophysics","482","1102644","0.0-482.0","60fcf16942369a2fb0c093e3","61fd87f6d6e5b79f58a14a41","7","","","","","1","4"
"null","","","null","","","","html-keyboard-response","483","1103146","0.0-483.0","60fcf16942369a2fb0c093e3","61fd87f6d6e5b79f58a14a41","","","","","<p style=""color:red;font-size:24px;"">Error :(</p>","",""
"2602","key","v","v","16.673095541401132","500","250","psychophysics","484","1105758","0.0-484.0","60fcf16942369a2fb0c093e3","61fd87f6d6e5b79f58a14a41","7","","","","","1","3"
"null","","","null","","","","html-keyboard-response","485","1106259","0.0-485.0","60fcf16942369a2fb0c093e3","61fd87f6d6e5b79f58a14a41","","","","","<p style=""color:darkgreen;font-size:24px;"">Correct :)</p>","",""
"2527","key","n","n","16.67190789473611","500","250","psychophysics","486","1108789","0.0-486.0","60fcf16942369a2fb0c093e3","61fd87f6d6e5b79f58a14a41","7","","","","","0","6"
"null","","","null","","","","html-keyboard-response","487","1109291","0.0-487.0","60fcf16942369a2fb0c093e3","61fd87f6d6e5b79f58a14a41","","","","","<p style=""color:darkgreen;font-size:24px;"">Correct :)</p>","",""
"2560","key","n","n","16.672253246753257","500","250","psychophysics","488","1111856","0.0-488.0","60fcf16942369a2fb0c093e3","61fd87f6d6e5b79f58a14a41","7","","","","","0","6"
"null","","","null","","","","html-keyboard-response","489","1112359","0.0-489.0","60fcf16942369a2fb0c093e3","61fd87f6d6e5b79f58a14a41","","","","","<p style=""color:darkgreen;font-size:24px;"">Correct :)</p>","",""
"2474","key","v","v","16.672074324323958","500","250","psychophysics","490","1114838","0.0-490.0","60fcf16942369a2fb0c093e3","61fd87f6d6e5b79f58a14a41","7","","","","","0","1"
"null","","","null","","","","html-keyboard-response","491","1115341","0.0-491.0","60fcf16942369a2fb0c093e3","61fd87f6d6e5b79f58a14a41","","","","","<p style=""color:darkgreen;font-size:24px;"">Correct :)</p>","",""
