"rt","response_type","key_press","response","avg_frame_time","center_x","center_y","trial_type","trial_index","time_elapsed","internal_node_id","pid","sid","phase","guide","targ","resp","stimulus","is5","stim"
"6553","key"," "," ","16.667877551020407","500","250","psychophysics","0","6562","0.0-0.0","60b1a61be94c05de415264a5","61fd896209286365c18ff2b2","","","","","","",""
"1800","key"," "," ","16.66600925925927","500","250","psychophysics","1","8368","0.0-1.0","60b1a61be94c05de415264a5","61fd896209286365c18ff2b2","","","","","","",""
"5406","key"," "," ","16.66633126934984","500","250","psychophysics","2","13776","0.0-2.0","60b1a61be94c05de415264a5","61fd896209286365c18ff2b2","","","","","","",""
"1554","key"," "," ","16.666354838709672","500","250","psychophysics","3","15336","0.0-3.0","60b1a61be94c05de415264a5","61fd896209286365c18ff2b2","","","","","","",""
"2052","key"," "," ","16.66684426229508","500","250","psychophysics","4","17392","0.0-4.0","60b1a61be94c05de415264a5","61fd896209286365c18ff2b2","","","","","","",""
"3426","key"," "," ","16.666336585365844","500","250","psychophysics","5","20823","0.0-5.0","60b1a61be94c05de415264a5","61fd896209286365c18ff2b2","","","","","","",""
"1247","key"," "," ","16.669108108108148","500","250","psychophysics","6","22072","0.0-6.0","60b1a61be94c05de415264a5","61fd896209286365c18ff2b2","","","","","","",""
"4980","key"," "," ","16.667080536912756","500","250","psychophysics","7","27056","0.0-7.0","60b1a61be94c05de415264a5","61fd896209286365c18ff2b2","","","","","","",""
"2605","key"," "," ","16.66733974358974","500","250","psychophysics","8","29663","0.0-8.0","60b1a61be94c05de415264a5","61fd896209286365c18ff2b2","","","","","","",""
"2254","key"," "," ","16.666067164179108","500","250","psychophysics","9","31920","0.0-9.0","60b1a61be94c05de415264a5","61fd896209286365c18ff2b2","","","","","","",""
"2429","key"," "," ","16.666724137931055","500","250","psychophysics","10","34352","0.0-10.0","60b1a61be94c05de415264a5","61fd896209286365c18ff2b2","","","","","","",""
"2886","key"," "," ","16.66645348837212","500","250","psychophysics","11","37240","0.0-11.0","60b1a61be94c05de415264a5","61fd896209286365c18ff2b2","","","","","","",""
"10569","key"," "," ","16.66681861198738","500","250","psychophysics","12","47816","0.0-12.0","60b1a61be94c05de415264a5","61fd896209286365c18ff2b2","1","0","28","110","","",""
"10189","key"," "," ","16.666377049180326","500","250","psychophysics","13","58004","0.0-13.0","60b1a61be94c05de415264a5","61fd896209286365c18ff2b2","1","5","59","46","","",""
"11174","key"," "," ","16.666888059701495","500","250","psychophysics","14","69181","0.0-14.0","60b1a61be94c05de415264a5","61fd896209286365c18ff2b2","1","0","58","200","","",""
"4493","key"," "," ","16.66702973977694","500","250","psychophysics","15","73677","0.0-15.0","60b1a61be94c05de415264a5","61fd896209286365c18ff2b2","1","5","32","41","","",""
"7102","key"," "," ","16.66630352941174","500","250","psychophysics","16","80781","0.0-16.0","60b1a61be94c05de415264a5","61fd896209286365c18ff2b2","1","0","42","141","","",""
"4045","key"," "," ","16.665776859504142","500","250","psychophysics","17","84829","0.0-17.0","60b1a61be94c05de415264a5","61fd896209286365c18ff2b2","1","5","31","34","","",""
"9909","key"," "," ","16.66699326599327","500","250","psychophysics","18","94741","0.0-18.0","60b1a61be94c05de415264a5","61fd896209286365c18ff2b2","1","0","35","129","","",""
"6325","key"," "," ","16.666240740740722","500","250","psychophysics","19","101069","0.0-19.0","60b1a61be94c05de415264a5","61fd896209286365c18ff2b2","1","5","30","33","","",""
"7415","key"," "," ","16.666790540540557","500","250","psychophysics","20","108486","0.0-20.0","60b1a61be94c05de415264a5","61fd896209286365c18ff2b2","1","0","43","96","","",""
"3333","key"," "," ","16.667427135678388","500","250","psychophysics","21","111822","0.0-21.0","60b1a61be94c05de415264a5","61fd896209286365c18ff2b2","1","5","37","41","","",""
"4508","key"," "," ","16.667385185185143","500","250","psychophysics","22","116334","0.0-22.0","60b1a61be94c05de415264a5","61fd896209286365c18ff2b2","1","0","43","86","","",""
"3829","key"," "," ","16.666576419213946","500","250","psychophysics","23","120161","0.0-23.0","60b1a61be94c05de415264a5","61fd896209286365c18ff2b2","1","5","50","61","","",""
"6654","key"," "," ","16.666547738693485","500","250","psychophysics","24","126818","0.0-24.0","60b1a61be94c05de415264a5","61fd896209286365c18ff2b2","1","0","59","150","","",""
"5171","key"," "," ","16.666341935483842","500","250","psychophysics","25","131992","0.0-25.0","60b1a61be94c05de415264a5","61fd896209286365c18ff2b2","1","5","26","32","","",""
"3215","key"," "," ","16.66838541666675","500","250","psychophysics","26","135210","0.0-26.0","60b1a61be94c05de415264a5","61fd896209286365c18ff2b2","1","0","26","54","","",""
"3396","key"," "," ","16.666133004926138","500","250","psychophysics","27","138609","0.0-27.0","60b1a61be94c05de415264a5","61fd896209286365c18ff2b2","1","5","45","54","","",""
"4527","key"," "," ","16.66686346863469","500","250","psychophysics","28","143137","0.0-28.0","60b1a61be94c05de415264a5","61fd896209286365c18ff2b2","1","0","45","90","","",""
"2991","key"," "," ","16.66730337078651","500","250","psychophysics","29","146130","0.0-29.0","60b1a61be94c05de415264a5","61fd896209286365c18ff2b2","1","5","43","46","","",""
"3438","key"," "," ","16.666344660194138","500","250","psychophysics","30","149570","0.0-30.0","60b1a61be94c05de415264a5","61fd896209286365c18ff2b2","1","0","24","57","","",""
"3276","key"," "," ","16.667394871794983","500","250","psychophysics","31","152850","0.0-31.0","60b1a61be94c05de415264a5","61fd896209286365c18ff2b2","1","5","37","49","","",""
"2564","key"," "," ","16.666973856209093","500","250","psychophysics","32","155418","0.0-32.0","60b1a61be94c05de415264a5","61fd896209286365c18ff2b2","","","","","","",""
"1988","key"," "," ","16.66631932773098","500","250","psychophysics","33","157410","0.0-33.0","60b1a61be94c05de415264a5","61fd896209286365c18ff2b2","","","","","","",""
"742","key"," "," ","16.66804545454546","500","250","psychophysics","34","158154","0.0-34.0","60b1a61be94c05de415264a5","61fd896209286365c18ff2b2","","","","","","",""
"5672","key"," "," ","16.666469026548643","500","250","psychophysics","35","163834","0.0-35.0","60b1a61be94c05de415264a5","61fd896209286365c18ff2b2","2","0","58","117","","",""
"1778","key"," "," ","16.667226415094294","500","250","psychophysics","36","165619","0.0-36.0","60b1a61be94c05de415264a5","61fd896209286365c18ff2b2","","","","","","",""
"3451","key"," "," ","16.666497584541045","500","250","psychophysics","37","169074","0.0-37.0","60b1a61be94c05de415264a5","61fd896209286365c18ff2b2","2","0","35","48","","",""
"846","key"," "," ","16.663679999999587","500","250","psychophysics","38","169922","0.0-38.0","60b1a61be94c05de415264a5","61fd896209286365c18ff2b2","","","","","","",""
"4286","key"," "," ","16.66608984375","500","250","psychophysics","39","174210","0.0-39.0","60b1a61be94c05de415264a5","61fd896209286365c18ff2b2","2","0","53","79","","",""
"956","key"," "," ","16.6678070175439","500","250","psychophysics","40","175170","0.0-40.0","60b1a61be94c05de415264a5","61fd896209286365c18ff2b2","","","","","","",""
"4022","key"," "," ","16.66693750000001","500","250","psychophysics","41","179191","0.0-41.0","60b1a61be94c05de415264a5","61fd896209286365c18ff2b2","2","0","48","71","","",""
"942","key"," "," ","16.662374999999884","500","250","psychophysics","42","180135","0.0-42.0","60b1a61be94c05de415264a5","61fd896209286365c18ff2b2","","","","","","",""
"5278","key"," "," ","16.666168253968234","500","250","psychophysics","43","185416","0.0-43.0","60b1a61be94c05de415264a5","61fd896209286365c18ff2b2","2","0","50","97","","",""
"989","key"," "," ","16.668169491525276","500","250","psychophysics","44","186408","0.0-44.0","60b1a61be94c05de415264a5","61fd896209286365c18ff2b2","","","","","","",""
"3334","key"," "," ","16.666140703517616","500","250","psychophysics","45","189744","0.0-45.0","60b1a61be94c05de415264a5","61fd896209286365c18ff2b2","2","0","20","39","","",""
"782","key"," "," ","16.667065217391254","500","250","psychophysics","46","190528","0.0-46.0","60b1a61be94c05de415264a5","61fd896209286365c18ff2b2","","","","","","",""
"5221","key"," "," ","16.666351437699678","500","250","psychophysics","47","195751","0.0-47.0","60b1a61be94c05de415264a5","61fd896209286365c18ff2b2","2","0","32","70","","",""
"694","key"," "," ","16.66160000000018","500","250","psychophysics","48","196448","0.0-48.0","60b1a61be94c05de415264a5","61fd896209286365c18ff2b2","","","","","","",""
"8605","key"," "," ","16.666660852713186","500","250","psychophysics","49","205056","0.0-49.0","60b1a61be94c05de415264a5","61fd896209286365c18ff2b2","2","0","49","201","","",""
"846","key"," "," ","16.667699999999606","500","250","psychophysics","50","205904","0.0-50.0","60b1a61be94c05de415264a5","61fd896209286365c18ff2b2","","","","","","",""
"3693","key"," "," ","16.666737556561028","500","250","psychophysics","51","209600","0.0-51.0","60b1a61be94c05de415264a5","61fd896209286365c18ff2b2","2","0","24","60","","",""
"765","key"," "," ","16.66888888888902","500","250","psychophysics","52","210368","0.0-52.0","60b1a61be94c05de415264a5","61fd896209286365c18ff2b2","","","","","","",""
"6718","key"," "," ","16.666597014925323","500","250","psychophysics","53","217088","0.0-53.0","60b1a61be94c05de415264a5","61fd896209286365c18ff2b2","2","0","60","107","","",""
"806","key"," "," ","16.669021276596123","500","250","psychophysics","54","217896","0.0-54.0","60b1a61be94c05de415264a5","61fd896209286365c18ff2b2","","","","","","",""
"5862","key"," "," ","16.66684900284904","500","250","psychophysics","55","223761","0.0-55.0","60b1a61be94c05de415264a5","61fd896209286365c18ff2b2","2","0","53","126","","",""
"821","key"," "," ","16.668816326530557","500","250","psychophysics","56","224584","0.0-56.0","60b1a61be94c05de415264a5","61fd896209286365c18ff2b2","","","","","","",""
"4286","key"," "," ","16.666207031249996","500","250","psychophysics","57","228872","0.0-57.0","60b1a61be94c05de415264a5","61fd896209286365c18ff2b2","2","0","22","73","","",""
"686","key"," "," ","16.670674999999754","500","250","psychophysics","58","229560","0.0-58.0","60b1a61be94c05de415264a5","61fd896209286365c18ff2b2","","","","","","",""
"5350","key"," "," ","16.666690625000047","500","250","psychophysics","59","234912","0.0-59.0","60b1a61be94c05de415264a5","61fd896209286365c18ff2b2","2","0","33","112","","",""
"621","key"," "," ","16.671054054053997","500","250","psychophysics","60","235536","0.0-60.0","60b1a61be94c05de415264a5","61fd896209286365c18ff2b2","","","","","","",""
"3638","key"," "," ","16.667129032258032","500","250","psychophysics","61","239174","0.0-61.0","60b1a61be94c05de415264a5","61fd896209286365c18ff2b2","2","0","23","61","","",""
"589","key"," "," ","16.66900000000023","500","250","psychophysics","62","239766","0.0-62.0","60b1a61be94c05de415264a5","61fd896209286365c18ff2b2","","","","","","",""
"3270","key"," "," ","16.665671794871855","500","250","psychophysics","63","243038","0.0-63.0","60b1a61be94c05de415264a5","61fd896209286365c18ff2b2","2","0","28","58","","",""
"726","key"," "," ","16.66616279069743","500","250","psychophysics","64","243766","0.0-64.0","60b1a61be94c05de415264a5","61fd896209286365c18ff2b2","","","","","","",""
"2094","key"," "," ","16.665491935483935","500","250","psychophysics","65","245862","0.0-65.0","60b1a61be94c05de415264a5","61fd896209286365c18ff2b2","","","","","","",""
"988","key"," "," ","16.66966101694882","500","250","psychophysics","66","246854","0.0-66.0","60b1a61be94c05de415264a5","61fd896209286365c18ff2b2","","","","","","",""
"4269","key"," "," ","16.666403921568588","500","250","psychophysics","67","251126","0.0-67.0","60b1a61be94c05de415264a5","61fd896209286365c18ff2b2","3","5","34","50","","",""
"6069","key"," "," ","16.66670054945056","500","250","psychophysics","68","257198","0.0-68.0","60b1a61be94c05de415264a5","61fd896209286365c18ff2b2","3","0","20","88","","",""
"4733","key"," "," ","16.66728268551232","500","250","psychophysics","69","261934","0.0-69.0","60b1a61be94c05de415264a5","61fd896209286365c18ff2b2","3","5","58","90","","",""
"3590","key"," "," ","16.665822429906427","500","250","psychophysics","70","265526","0.0-70.0","60b1a61be94c05de415264a5","61fd896209286365c18ff2b2","3","0","26","56","","",""
"3831","key"," "," ","16.666781659388516","500","250","psychophysics","71","269358","0.0-71.0","60b1a61be94c05de415264a5","61fd896209286365c18ff2b2","3","5","23","60","","",""
"4605","key"," "," ","16.666427536231915","500","250","psychophysics","72","273966","0.0-72.0","60b1a61be94c05de415264a5","61fd896209286365c18ff2b2","3","0","22","86","","",""
"3254","key"," "," ","16.667664948453616","500","250","psychophysics","73","277222","0.0-73.0","60b1a61be94c05de415264a5","61fd896209286365c18ff2b2","3","5","38","50","","",""
"5910","key"," "," ","16.66687288135586","500","250","psychophysics","74","283135","0.0-74.0","60b1a61be94c05de415264a5","61fd896209286365c18ff2b2","3","0","49","118","","",""
"2974","key"," "," ","16.667045197740006","500","250","psychophysics","75","286111","0.0-75.0","60b1a61be94c05de415264a5","61fd896209286365c18ff2b2","3","5","21","37","","",""
"5756","key"," "," ","16.666956521739063","500","250","psychophysics","76","291871","0.0-76.0","60b1a61be94c05de415264a5","61fd896209286365c18ff2b2","3","0","31","131","","",""
"3238","key"," "," ","16.66760621761657","500","250","psychophysics","77","295111","0.0-77.0","60b1a61be94c05de415264a5","61fd896209286365c18ff2b2","3","5","37","57","","",""
"5252","key"," "," ","16.666558730158776","500","250","psychophysics","78","300363","0.0-78.0","60b1a61be94c05de415264a5","61fd896209286365c18ff2b2","3","0","32","115","","",""
"4726","key"," "," ","16.6660709219858","500","250","psychophysics","79","305090","0.0-79.0","60b1a61be94c05de415264a5","61fd896209286365c18ff2b2","3","5","45","84","","",""
"8149","key"," "," ","16.66688139059301","500","250","psychophysics","80","313243","0.0-80.0","60b1a61be94c05de415264a5","61fd896209286365c18ff2b2","3","0","59","194","","",""
"4004","key"," "," ","16.666987447698638","500","250","psychophysics","81","317251","0.0-81.0","60b1a61be94c05de415264a5","61fd896209286365c18ff2b2","3","5","45","72","","",""
"4637","key"," "," ","16.667433212996446","500","250","psychophysics","82","321891","0.0-82.0","60b1a61be94c05de415264a5","61fd896209286365c18ff2b2","3","0","28","98","","",""
"3467","key"," "," ","16.66610576923099","500","250","psychophysics","83","325362","0.0-83.0","60b1a61be94c05de415264a5","61fd896209286365c18ff2b2","3","5","23","52","","",""
"6774","key"," "," ","16.66678518518521","500","250","psychophysics","84","332139","0.0-84.0","60b1a61be94c05de415264a5","61fd896209286365c18ff2b2","3","0","43","162","","",""
"4357","key"," "," ","16.66722988505746","500","250","psychophysics","85","336499","0.0-85.0","60b1a61be94c05de415264a5","61fd896209286365c18ff2b2","3","5","48","90","","",""
"7414","key"," "," ","16.666916666666744","500","250","psychophysics","86","343916","0.0-86.0","60b1a61be94c05de415264a5","61fd896209286365c18ff2b2","3","0","54","146","","",""
"2022","key"," "," ","16.666849999999975","500","250","psychophysics","87","345940","0.0-87.0","60b1a61be94c05de415264a5","61fd896209286365c18ff2b2","","","","","","",""
"17767","","","v","","","","html-keyboard-response","88","363708","0.0-88.0","60b1a61be94c05de415264a5","61fd896209286365c18ff2b2","","","","","<p> In this part of the experiment, we are going present digits 1, 2, 3, 4, 6, 7, 8, and 9.  Notice that 5 is missing.  Your job is to say whether the presented digit is less than or greater than 5.  For example, 3 is less than 5 and 7 is greater than 5.  If the digit is less than 5, press the v key; if it is greater than 5, press the n key. We are going to do 200 of these in total, but only 50 righ now. They go real fast.</p>  <br><br>  Ready? (press v or n)","",""
"3201","key","v","v","16.67019791666674","500","250","psychophysics","89","366915","0.0-89.0","60b1a61be94c05de415264a5","61fd896209286365c18ff2b2","4","","","","","1","2"
"null","","","null","","","","html-keyboard-response","90","367419","0.0-90.0","60b1a61be94c05de415264a5","61fd896209286365c18ff2b2","","","","","<p style=""color:darkgreen;font-size:24px;"">Correct :)</p>","",""
"2870","key","n","n","16.666132947976763","500","250","psychophysics","91","370293","0.0-91.0","60b1a61be94c05de415264a5","61fd896209286365c18ff2b2","4","","","","","1","8"
"null","","","null","","","","html-keyboard-response","92","370794","0.0-92.0","60b1a61be94c05de415264a5","61fd896209286365c18ff2b2","","","","","<p style=""color:darkgreen;font-size:24px;"">Correct :)</p>","",""
"2542","key","v","v","16.66578947368429","500","250","psychophysics","93","373340","0.0-93.0","60b1a61be94c05de415264a5","61fd896209286365c18ff2b2","4","","","","","1","3"
"null","","","null","","","","html-keyboard-response","94","373841","0.0-94.0","60b1a61be94c05de415264a5","61fd896209286365c18ff2b2","","","","","<p style=""color:darkgreen;font-size:24px;"">Correct :)</p>","",""
"2767","key","n","n","16.666656626505898","500","250","psychophysics","95","376611","0.0-95.0","60b1a61be94c05de415264a5","61fd896209286365c18ff2b2","4","","","","","1","8"
"null","","","null","","","","html-keyboard-response","96","377112","0.0-96.0","60b1a61be94c05de415264a5","61fd896209286365c18ff2b2","","","","","<p style=""color:darkgreen;font-size:24px;"">Correct :)</p>","",""
"2728","key","n","n","16.667140243902573","500","250","psychophysics","97","379843","0.0-97.0","60b1a61be94c05de415264a5","61fd896209286365c18ff2b2","4","","","","","1","9"
"null","","","null","","","","html-keyboard-response","98","380344","0.0-98.0","60b1a61be94c05de415264a5","61fd896209286365c18ff2b2","","","","","<p style=""color:darkgreen;font-size:24px;"">Correct :)</p>","",""
"2536","key","n","n","16.666934210526385","500","250","psychophysics","99","382884","0.0-99.0","60b1a61be94c05de415264a5","61fd896209286365c18ff2b2","4","","","","","1","7"
"null","","","null","","","","html-keyboard-response","100","383385","0.0-100.0","60b1a61be94c05de415264a5","61fd896209286365c18ff2b2","","","","","<p style=""color:darkgreen;font-size:24px;"">Correct :)</p>","",""
"2512","key","n","n","16.66687417218565","500","250","psychophysics","101","385900","0.0-101.0","60b1a61be94c05de415264a5","61fd896209286365c18ff2b2","4","","","","","1","7"
"null","","","null","","","","html-keyboard-response","102","386402","0.0-102.0","60b1a61be94c05de415264a5","61fd896209286365c18ff2b2","","","","","<p style=""color:darkgreen;font-size:24px;"">Correct :)</p>","",""
"2543","key","n","n","16.666588235294196","500","250","psychophysics","103","388948","0.0-103.0","60b1a61be94c05de415264a5","61fd896209286365c18ff2b2","4","","","","","1","7"
"null","","","null","","","","html-keyboard-response","104","389449","0.0-104.0","60b1a61be94c05de415264a5","61fd896209286365c18ff2b2","","","","","<p style=""color:darkgreen;font-size:24px;"">Correct :)</p>","",""
"2400","key","n","n","16.663916666666612","500","250","psychophysics","105","391852","0.0-105.0","60b1a61be94c05de415264a5","61fd896209286365c18ff2b2","4","","","","","1","9"
"null","","","null","","","","html-keyboard-response","106","392353","0.0-106.0","60b1a61be94c05de415264a5","61fd896209286365c18ff2b2","","","","","<p style=""color:darkgreen;font-size:24px;"">Correct :)</p>","",""
"2456","key","n","n","16.66644594594608","500","250","psychophysics","107","394812","0.0-107.0","60b1a61be94c05de415264a5","61fd896209286365c18ff2b2","4","","","","","1","9"
"null","","","null","","","","html-keyboard-response","108","395313","0.0-108.0","60b1a61be94c05de415264a5","61fd896209286365c18ff2b2","","","","","<p style=""color:darkgreen;font-size:24px;"">Correct :)</p>","",""
"2448","key","n","n","16.667278911564406","500","250","psychophysics","109","397765","0.0-109.0","60b1a61be94c05de415264a5","61fd896209286365c18ff2b2","4","","","","","1","6"
"null","","","null","","","","html-keyboard-response","110","398280","0.0-110.0","60b1a61be94c05de415264a5","61fd896209286365c18ff2b2","","","","","<p style=""color:darkgreen;font-size:24px;"">Correct :)</p>","",""
"2497","key","n","n","16.666340000000005","500","250","psychophysics","111","400780","0.0-111.0","60b1a61be94c05de415264a5","61fd896209286365c18ff2b2","4","","","","","1","7"
"null","","","null","","","","html-keyboard-response","112","401281","0.0-112.0","60b1a61be94c05de415264a5","61fd896209286365c18ff2b2","","","","","<p style=""color:darkgreen;font-size:24px;"">Correct :)</p>","",""
"2505","key","v","v","16.666379999999965","500","250","psychophysics","113","403788","0.0-113.0","60b1a61be94c05de415264a5","61fd896209286365c18ff2b2","4","","","","","1","1"
"null","","","null","","","","html-keyboard-response","114","404289","0.0-114.0","60b1a61be94c05de415264a5","61fd896209286365c18ff2b2","","","","","<p style=""color:darkgreen;font-size:24px;"">Correct :)</p>","",""
"2735","key","v","v","16.66602424242442","500","250","psychophysics","115","407028","0.0-115.0","60b1a61be94c05de415264a5","61fd896209286365c18ff2b2","4","","","","","1","2"
"null","","","null","","","","html-keyboard-response","116","407536","0.0-116.0","60b1a61be94c05de415264a5","61fd896209286365c18ff2b2","","","","","<p style=""color:darkgreen;font-size:24px;"">Correct :)</p>","",""
"2522","key","n","n","16.66637499999993","500","250","psychophysics","117","410061","0.0-117.0","60b1a61be94c05de415264a5","61fd896209286365c18ff2b2","4","","","","","1","6"
"null","","","null","","","","html-keyboard-response","118","410561","0.0-118.0","60b1a61be94c05de415264a5","61fd896209286365c18ff2b2","","","","","<p style=""color:darkgreen;font-size:24px;"">Correct :)</p>","",""
"2904","key","v","v","16.666724137931087","500","250","psychophysics","119","413468","0.0-119.0","60b1a61be94c05de415264a5","61fd896209286365c18ff2b2","4","","","","","1","3"
"null","","","null","","","","html-keyboard-response","120","413969","0.0-120.0","60b1a61be94c05de415264a5","61fd896209286365c18ff2b2","","","","","<p style=""color:darkgreen;font-size:24px;"">Correct :)</p>","",""
"2392","key","n","n","16.666229166666906","500","250","psychophysics","121","416364","0.0-121.0","60b1a61be94c05de415264a5","61fd896209286365c18ff2b2","4","","","","","1","7"
"null","","","null","","","","html-keyboard-response","122","416866","0.0-122.0","60b1a61be94c05de415264a5","61fd896209286365c18ff2b2","","","","","<p style=""color:darkgreen;font-size:24px;"">Correct :)</p>","",""
"2447","key","v","v","16.666020408163455","500","250","psychophysics","123","419316","0.0-123.0","60b1a61be94c05de415264a5","61fd896209286365c18ff2b2","4","","","","","1","2"
"null","","","null","","","","html-keyboard-response","124","419818","0.0-124.0","60b1a61be94c05de415264a5","61fd896209286365c18ff2b2","","","","","<p style=""color:darkgreen;font-size:24px;"">Correct :)</p>","",""
"2528","key","n","n","16.6659078947368","500","250","psychophysics","125","422349","0.0-125.0","60b1a61be94c05de415264a5","61fd896209286365c18ff2b2","4","","","","","1","6"
"null","","","null","","","","html-keyboard-response","126","422850","0.0-126.0","60b1a61be94c05de415264a5","61fd896209286365c18ff2b2","","","","","<p style=""color:darkgreen;font-size:24px;"">Correct :)</p>","",""
"2390","key","v","v","16.665743055555343","500","250","psychophysics","127","425245","0.0-127.0","60b1a61be94c05de415264a5","61fd896209286365c18ff2b2","4","","","","","1","2"
"null","","","null","","","","html-keyboard-response","128","425746","0.0-128.0","60b1a61be94c05de415264a5","61fd896209286365c18ff2b2","","","","","<p style=""color:darkgreen;font-size:24px;"">Correct :)</p>","",""
"2440","key","n","n","16.667000000000282","500","250","psychophysics","129","428189","0.0-129.0","60b1a61be94c05de415264a5","61fd896209286365c18ff2b2","4","","","","","1","9"
"null","","","null","","","","html-keyboard-response","130","428690","0.0-130.0","60b1a61be94c05de415264a5","61fd896209286365c18ff2b2","","","","","<p style=""color:darkgreen;font-size:24px;"">Correct :)</p>","",""
"2408","key","n","n","16.782972222221968","500","250","psychophysics","131","431101","0.0-131.0","60b1a61be94c05de415264a5","61fd896209286365c18ff2b2","4","","","","","1","4"
"null","","","null","","","","html-keyboard-response","132","431602","0.0-132.0","60b1a61be94c05de415264a5","61fd896209286365c18ff2b2","","","","","<p style=""color:red;font-size:24px;"">Error :(</p>","",""
"2537","key","v","v","16.66555263157888","500","250","psychophysics","133","434141","0.0-133.0","60b1a61be94c05de415264a5","61fd896209286365c18ff2b2","4","","","","","1","2"
"null","","","null","","","","html-keyboard-response","134","434643","0.0-134.0","60b1a61be94c05de415264a5","61fd896209286365c18ff2b2","","","","","<p style=""color:darkgreen;font-size:24px;"">Correct :)</p>","",""
"2454","key","n","n","16.66804761904748","500","250","psychophysics","135","437101","0.0-135.0","60b1a61be94c05de415264a5","61fd896209286365c18ff2b2","4","","","","","1","9"
"null","","","null","","","","html-keyboard-response","136","437602","0.0-136.0","60b1a61be94c05de415264a5","61fd896209286365c18ff2b2","","","","","<p style=""color:darkgreen;font-size:24px;"">Correct :)</p>","",""
"2472","key","n","n","16.666583892617425","500","250","psychophysics","137","440077","0.0-137.0","60b1a61be94c05de415264a5","61fd896209286365c18ff2b2","4","","","","","1","8"
"null","","","null","","","","html-keyboard-response","138","440579","0.0-138.0","60b1a61be94c05de415264a5","61fd896209286365c18ff2b2","","","","","<p style=""color:darkgreen;font-size:24px;"">Correct :)</p>","",""
"2463","key","n","n","16.666141891891744","500","250","psychophysics","139","443045","0.0-139.0","60b1a61be94c05de415264a5","61fd896209286365c18ff2b2","4","","","","","1","8"
"null","","","null","","","","html-keyboard-response","140","443546","0.0-140.0","60b1a61be94c05de415264a5","61fd896209286365c18ff2b2","","","","","<p style=""color:darkgreen;font-size:24px;"">Correct :)</p>","",""
"2552","key","v","v","16.667607843137446","500","250","psychophysics","141","446101","0.0-141.0","60b1a61be94c05de415264a5","61fd896209286365c18ff2b2","4","","","","","1","1"
"null","","","null","","","","html-keyboard-response","142","446603","0.0-142.0","60b1a61be94c05de415264a5","61fd896209286365c18ff2b2","","","","","<p style=""color:darkgreen;font-size:24px;"">Correct :)</p>","",""
"2590","key","n","n","16.666602564102504","500","250","psychophysics","143","449197","0.0-143.0","60b1a61be94c05de415264a5","61fd896209286365c18ff2b2","4","","","","","1","8"
"null","","","null","","","","html-keyboard-response","144","449710","0.0-144.0","60b1a61be94c05de415264a5","61fd896209286365c18ff2b2","","","","","<p style=""color:darkgreen;font-size:24px;"">Correct :)</p>","",""
"2404","key","n","n","16.665243055555443","500","250","psychophysics","145","452117","0.0-145.0","60b1a61be94c05de415264a5","61fd896209286365c18ff2b2","4","","","","","1","8"
"null","","","null","","","","html-keyboard-response","146","452618","0.0-146.0","60b1a61be94c05de415264a5","61fd896209286365c18ff2b2","","","","","<p style=""color:darkgreen;font-size:24px;"">Correct :)</p>","",""
"2502","key","n","n","16.666039735099243","500","250","psychophysics","147","455126","0.0-147.0","60b1a61be94c05de415264a5","61fd896209286365c18ff2b2","4","","","","","1","7"
"null","","","null","","","","html-keyboard-response","148","455640","0.0-148.0","60b1a61be94c05de415264a5","61fd896209286365c18ff2b2","","","","","<p style=""color:darkgreen;font-size:24px;"">Correct :)</p>","",""
"2457","key","n","n","16.77929251700708","500","250","psychophysics","149","458101","0.0-149.0","60b1a61be94c05de415264a5","61fd896209286365c18ff2b2","4","","","","","1","7"
"null","","","null","","","","html-keyboard-response","150","458602","0.0-150.0","60b1a61be94c05de415264a5","61fd896209286365c18ff2b2","","","","","<p style=""color:darkgreen;font-size:24px;"">Correct :)</p>","",""
"2416","key","n","n","16.665924137931093","500","250","psychophysics","151","461021","0.0-151.0","60b1a61be94c05de415264a5","61fd896209286365c18ff2b2","4","","","","","1","7"
"null","","","null","","","","html-keyboard-response","152","461522","0.0-152.0","60b1a61be94c05de415264a5","61fd896209286365c18ff2b2","","","","","<p style=""color:darkgreen;font-size:24px;"">Correct :)</p>","",""
"2401","key","n","n","16.66627586206887","500","250","psychophysics","153","463926","0.0-153.0","60b1a61be94c05de415264a5","61fd896209286365c18ff2b2","4","","","","","1","8"
"null","","","null","","","","html-keyboard-response","154","464427","0.0-154.0","60b1a61be94c05de415264a5","61fd896209286365c18ff2b2","","","","","<p style=""color:darkgreen;font-size:24px;"">Correct :)</p>","",""
"2383","key","n","n","16.6657902097901","500","250","psychophysics","155","466813","0.0-155.0","60b1a61be94c05de415264a5","61fd896209286365c18ff2b2","4","","","","","1","6"
"null","","","null","","","","html-keyboard-response","156","467315","0.0-156.0","60b1a61be94c05de415264a5","61fd896209286365c18ff2b2","","","","","<p style=""color:darkgreen;font-size:24px;"">Correct :)</p>","",""
"2439","key","n","n","16.666986301369896","500","250","psychophysics","157","469758","0.0-157.0","60b1a61be94c05de415264a5","61fd896209286365c18ff2b2","4","","","","","1","8"
"null","","","null","","","","html-keyboard-response","158","470260","0.0-158.0","60b1a61be94c05de415264a5","61fd896209286365c18ff2b2","","","","","<p style=""color:darkgreen;font-size:24px;"">Correct :)</p>","",""
"2487","key","n","n","16.667637583892635","500","250","psychophysics","159","472749","0.0-159.0","60b1a61be94c05de415264a5","61fd896209286365c18ff2b2","4","","","","","1","9"
"null","","","null","","","","html-keyboard-response","160","473251","0.0-160.0","60b1a61be94c05de415264a5","61fd896209286365c18ff2b2","","","","","<p style=""color:darkgreen;font-size:24px;"">Correct :)</p>","",""
"2456","key","v","v","16.666966216216284","500","250","psychophysics","161","475709","0.0-161.0","60b1a61be94c05de415264a5","61fd896209286365c18ff2b2","4","","","","","1","3"
"null","","","null","","","","html-keyboard-response","162","476211","0.0-162.0","60b1a61be94c05de415264a5","61fd896209286365c18ff2b2","","","","","<p style=""color:darkgreen;font-size:24px;"">Correct :)</p>","",""
"2447","key","n","n","16.666503401360313","500","250","psychophysics","163","478661","0.0-163.0","60b1a61be94c05de415264a5","61fd896209286365c18ff2b2","4","","","","","1","7"
"null","","","null","","","","html-keyboard-response","164","479167","0.0-164.0","60b1a61be94c05de415264a5","61fd896209286365c18ff2b2","","","","","<p style=""color:darkgreen;font-size:24px;"">Correct :)</p>","",""
"2507","key","n","n","16.665999999999944","500","250","psychophysics","165","481678","0.0-165.0","60b1a61be94c05de415264a5","61fd896209286365c18ff2b2","4","","","","","1","7"
"null","","","null","","","","html-keyboard-response","166","482179","0.0-166.0","60b1a61be94c05de415264a5","61fd896209286365c18ff2b2","","","","","<p style=""color:darkgreen;font-size:24px;"">Correct :)</p>","",""
"2576","key","n","n","16.666142857142923","500","250","psychophysics","167","484758","0.0-167.0","60b1a61be94c05de415264a5","61fd896209286365c18ff2b2","4","","","","","1","2"
"null","","","null","","","","html-keyboard-response","168","485272","0.0-168.0","60b1a61be94c05de415264a5","61fd896209286365c18ff2b2","","","","","<p style=""color:red;font-size:24px;"">Error :(</p>","",""
"2569","key","n","n","16.665722580645006","500","250","psychophysics","169","487846","0.0-169.0","60b1a61be94c05de415264a5","61fd896209286365c18ff2b2","4","","","","","1","7"
"null","","","null","","","","html-keyboard-response","170","488348","0.0-170.0","60b1a61be94c05de415264a5","61fd896209286365c18ff2b2","","","","","<p style=""color:darkgreen;font-size:24px;"">Correct :)</p>","",""
"2488","key","v","v","16.66711409395989","500","250","psychophysics","171","490838","0.0-171.0","60b1a61be94c05de415264a5","61fd896209286365c18ff2b2","4","","","","","1","3"
"null","","","null","","","","html-keyboard-response","172","491351","0.0-172.0","60b1a61be94c05de415264a5","61fd896209286365c18ff2b2","","","","","<p style=""color:darkgreen;font-size:24px;"">Correct :)</p>","",""
"2836","key","v","v","16.667288235293853","500","250","psychophysics","173","494191","0.0-173.0","60b1a61be94c05de415264a5","61fd896209286365c18ff2b2","4","","","","","1","3"
"null","","","null","","","","html-keyboard-response","174","494692","0.0-174.0","60b1a61be94c05de415264a5","61fd896209286365c18ff2b2","","","","","<p style=""color:darkgreen;font-size:24px;"">Correct :)</p>","",""
"2479","key","v","v","16.665959459459298","500","250","psychophysics","175","497174","0.0-175.0","60b1a61be94c05de415264a5","61fd896209286365c18ff2b2","4","","","","","1","2"
"null","","","null","","","","html-keyboard-response","176","497676","0.0-176.0","60b1a61be94c05de415264a5","61fd896209286365c18ff2b2","","","","","<p style=""color:darkgreen;font-size:24px;"">Correct :)</p>","",""
"2463","key","n","n","16.66595918367352","500","250","psychophysics","177","500142","0.0-177.0","60b1a61be94c05de415264a5","61fd896209286365c18ff2b2","4","","","","","1","7"
"null","","","null","","","","html-keyboard-response","178","500645","0.0-178.0","60b1a61be94c05de415264a5","61fd896209286365c18ff2b2","","","","","<p style=""color:darkgreen;font-size:24px;"">Correct :)</p>","",""
"2518","key","v","v","16.665688741721663","500","250","psychophysics","179","503165","0.0-179.0","60b1a61be94c05de415264a5","61fd896209286365c18ff2b2","4","","","","","1","4"
"null","","","null","","","","html-keyboard-response","180","503666","0.0-180.0","60b1a61be94c05de415264a5","61fd896209286365c18ff2b2","","","","","<p style=""color:darkgreen;font-size:24px;"">Correct :)</p>","",""
"2785","key","v","v","16.667574850299317","500","250","psychophysics","181","506454","0.0-181.0","60b1a61be94c05de415264a5","61fd896209286365c18ff2b2","4","","","","","1","4"
"null","","","null","","","","html-keyboard-response","182","506956","0.0-182.0","60b1a61be94c05de415264a5","61fd896209286365c18ff2b2","","","","","<p style=""color:darkgreen;font-size:24px;"">Correct :)</p>","",""
"2471","key","n","n","16.66659060402714","500","250","psychophysics","183","509431","0.0-183.0","60b1a61be94c05de415264a5","61fd896209286365c18ff2b2","4","","","","","1","8"
"null","","","null","","","","html-keyboard-response","184","509932","0.0-184.0","60b1a61be94c05de415264a5","61fd896209286365c18ff2b2","","","","","<p style=""color:darkgreen;font-size:24px;"">Correct :)</p>","",""
"2424","key","n","n","16.666600000000045","500","250","psychophysics","185","512359","0.0-185.0","60b1a61be94c05de415264a5","61fd896209286365c18ff2b2","4","","","","","1","8"
"null","","","null","","","","html-keyboard-response","186","512859","0.0-186.0","60b1a61be94c05de415264a5","61fd896209286365c18ff2b2","","","","","<p style=""color:darkgreen;font-size:24px;"">Correct :)</p>","",""
"2488","key","v","v","16.665912751677983","500","250","psychophysics","187","515351","0.0-187.0","60b1a61be94c05de415264a5","61fd896209286365c18ff2b2","4","","","","","1","4"
"null","","","null","","","","html-keyboard-response","188","515852","0.0-188.0","60b1a61be94c05de415264a5","61fd896209286365c18ff2b2","","","","","<p style=""color:darkgreen;font-size:24px;"">Correct :)</p>","",""
"13514","","","v","","","","html-keyboard-response","189","529367","0.0-189.0","60b1a61be94c05de415264a5","61fd896209286365c18ff2b2","","","","","<p> Ok, now we are going present the same digits as before.  Your job is to say whether the digit is even or odd  If the digit is odd, press to v key; if it is even, press the n key. We are going to do 50 of these.  </p>  <br><br>  Ready? (press v or n)","",""
"2627","key","v","v","16.66490506329073","500","250","psychophysics","190","531999","0.0-190.0","60b1a61be94c05de415264a5","61fd896209286365c18ff2b2","5","","","","","0","7"
"null","","","null","","","","html-keyboard-response","191","532501","0.0-191.0","60b1a61be94c05de415264a5","61fd896209286365c18ff2b2","","","","","<p style=""color:darkgreen;font-size:24px;"">Correct :)</p>","",""
"2560","key","v","v","16.66790259740234","500","250","psychophysics","192","535063","0.0-192.0","60b1a61be94c05de415264a5","61fd896209286365c18ff2b2","5","","","","","0","3"
"null","","","null","","","","html-keyboard-response","193","535564","0.0-193.0","60b1a61be94c05de415264a5","61fd896209286365c18ff2b2","","","","","<p style=""color:darkgreen;font-size:24px;"">Correct :)</p>","",""
"2640","key","v","v","16.66674050632894","500","250","psychophysics","194","538207","0.0-194.0","60b1a61be94c05de415264a5","61fd896209286365c18ff2b2","5","","","","","0","3"
"null","","","null","","","","html-keyboard-response","195","538709","0.0-195.0","60b1a61be94c05de415264a5","61fd896209286365c18ff2b2","","","","","<p style=""color:darkgreen;font-size:24px;"">Correct :)</p>","",""
"2478","key","n","n","16.667574324324175","500","250","psychophysics","196","541191","0.0-196.0","60b1a61be94c05de415264a5","61fd896209286365c18ff2b2","5","","","","","0","7"
"null","","","null","","","","html-keyboard-response","197","541692","0.0-197.0","60b1a61be94c05de415264a5","61fd896209286365c18ff2b2","","","","","<p style=""color:red;font-size:24px;"">Error :(</p>","",""
"2551","key","v","v","16.66758823529452","500","250","psychophysics","198","544247","0.0-198.0","60b1a61be94c05de415264a5","61fd896209286365c18ff2b2","5","","","","","0","1"
"null","","","null","","","","html-keyboard-response","199","544748","0.0-199.0","60b1a61be94c05de415264a5","61fd896209286365c18ff2b2","","","","","<p style=""color:darkgreen;font-size:24px;"">Correct :)</p>","",""
"2601","key","v","v","16.66762820512761","500","250","psychophysics","200","547351","0.0-200.0","60b1a61be94c05de415264a5","61fd896209286365c18ff2b2","5","","","","","0","9"
"null","","","null","","","","html-keyboard-response","201","547853","0.0-201.0","60b1a61be94c05de415264a5","61fd896209286365c18ff2b2","","","","","<p style=""color:darkgreen;font-size:24px;"">Correct :)</p>","",""
"2655","key","n","n","16.667806250000286","500","250","psychophysics","202","550511","0.0-202.0","60b1a61be94c05de415264a5","61fd896209286365c18ff2b2","5","","","","","0","6"
"null","","","null","","","","html-keyboard-response","203","551012","0.0-203.0","60b1a61be94c05de415264a5","61fd896209286365c18ff2b2","","","","","<p style=""color:darkgreen;font-size:24px;"">Correct :)</p>","",""
"2792","key","v","v","16.666586826347","500","250","psychophysics","204","553807","0.0-204.0","60b1a61be94c05de415264a5","61fd896209286365c18ff2b2","5","","","","","0","3"
"null","","","null","","","","html-keyboard-response","205","554308","0.0-205.0","60b1a61be94c05de415264a5","61fd896209286365c18ff2b2","","","","","<p style=""color:darkgreen;font-size:24px;"">Correct :)</p>","",""
"3144","key","n","n","16.666936170212562","500","250","psychophysics","206","557455","0.0-206.0","60b1a61be94c05de415264a5","61fd896209286365c18ff2b2","5","","","","","0","4"
"null","","","null","","","","html-keyboard-response","207","557957","0.0-207.0","60b1a61be94c05de415264a5","61fd896209286365c18ff2b2","","","","","<p style=""color:darkgreen;font-size:24px;"">Correct :)</p>","",""
"2911","key","n","n","16.76214942528703","500","250","psychophysics","208","560871","0.0-208.0","60b1a61be94c05de415264a5","61fd896209286365c18ff2b2","5","","","","","0","4"
"null","","","null","","","","html-keyboard-response","209","561373","0.0-209.0","60b1a61be94c05de415264a5","61fd896209286365c18ff2b2","","","","","<p style=""color:darkgreen;font-size:24px;"">Correct :)</p>","",""
"2591","key","n","n","16.774270967741856","500","250","psychophysics","210","563967","0.0-210.0","60b1a61be94c05de415264a5","61fd896209286365c18ff2b2","5","","","","","0","8"
"null","","","null","","","","html-keyboard-response","211","564469","0.0-211.0","60b1a61be94c05de415264a5","61fd896209286365c18ff2b2","","","","","<p style=""color:darkgreen;font-size:24px;"">Correct :)</p>","",""
"2623","key","n","n","16.667265822784533","500","250","psychophysics","212","567095","0.0-212.0","60b1a61be94c05de415264a5","61fd896209286365c18ff2b2","5","","","","","0","6"
"null","","","null","","","","html-keyboard-response","213","567596","0.0-213.0","60b1a61be94c05de415264a5","61fd896209286365c18ff2b2","","","","","<p style=""color:darkgreen;font-size:24px;"">Correct :)</p>","",""
"2488","key","n","n","16.6663087248324","500","250","psychophysics","214","570087","0.0-214.0","60b1a61be94c05de415264a5","61fd896209286365c18ff2b2","5","","","","","0","8"
"null","","","null","","","","html-keyboard-response","215","570588","0.0-215.0","60b1a61be94c05de415264a5","61fd896209286365c18ff2b2","","","","","<p style=""color:darkgreen;font-size:24px;"">Correct :)</p>","",""
"2425","key","n","n","16.665342465753522","500","250","psychophysics","216","573016","0.0-216.0","60b1a61be94c05de415264a5","61fd896209286365c18ff2b2","5","","","","","0","8"
"null","","","null","","","","html-keyboard-response","217","573517","0.0-217.0","60b1a61be94c05de415264a5","61fd896209286365c18ff2b2","","","","","<p style=""color:darkgreen;font-size:24px;"">Correct :)</p>","",""
"2566","key","v","v","16.6658051948051","500","250","psychophysics","218","576087","0.0-218.0","60b1a61be94c05de415264a5","61fd896209286365c18ff2b2","5","","","","","0","3"
"null","","","null","","","","html-keyboard-response","219","576590","0.0-219.0","60b1a61be94c05de415264a5","61fd896209286365c18ff2b2","","","","","<p style=""color:darkgreen;font-size:24px;"">Correct :)</p>","",""
"2518","key","n","n","16.670111842105765","500","250","psychophysics","220","579112","0.0-220.0","60b1a61be94c05de415264a5","61fd896209286365c18ff2b2","5","","","","","0","6"
"null","","","null","","","","html-keyboard-response","221","579613","0.0-221.0","60b1a61be94c05de415264a5","61fd896209286365c18ff2b2","","","","","<p style=""color:darkgreen;font-size:24px;"">Correct :)</p>","",""
"2568","key","v","v","16.667097402597452","500","250","psychophysics","222","582184","0.0-222.0","60b1a61be94c05de415264a5","61fd896209286365c18ff2b2","5","","","","","0","7"
"null","","","null","","","","html-keyboard-response","223","582692","0.0-223.0","60b1a61be94c05de415264a5","61fd896209286365c18ff2b2","","","","","<p style=""color:darkgreen;font-size:24px;"">Correct :)</p>","",""
"2769","key","v","v","16.66566867469838","500","250","psychophysics","224","585464","0.0-224.0","60b1a61be94c05de415264a5","61fd896209286365c18ff2b2","5","","","","","0","9"
"null","","","null","","","","html-keyboard-response","225","585965","0.0-225.0","60b1a61be94c05de415264a5","61fd896209286365c18ff2b2","","","","","<p style=""color:darkgreen;font-size:24px;"">Correct :)</p>","",""
"2743","key","v","v","16.666812121211976","500","250","psychophysics","226","588711","0.0-226.0","60b1a61be94c05de415264a5","61fd896209286365c18ff2b2","5","","","","","0","9"
"null","","","null","","","","html-keyboard-response","227","589213","0.0-227.0","60b1a61be94c05de415264a5","61fd896209286365c18ff2b2","","","","","<p style=""color:darkgreen;font-size:24px;"">Correct :)</p>","",""
"2520","key","v","v","16.667894039734804","500","250","psychophysics","228","591736","0.0-228.0","60b1a61be94c05de415264a5","61fd896209286365c18ff2b2","5","","","","","0","1"
"null","","","null","","","","html-keyboard-response","229","592248","0.0-229.0","60b1a61be94c05de415264a5","61fd896209286365c18ff2b2","","","","","<p style=""color:darkgreen;font-size:24px;"">Correct :)</p>","",""
"2428","key","n","n","16.667445205478955","500","250","psychophysics","230","594680","0.0-230.0","60b1a61be94c05de415264a5","61fd896209286365c18ff2b2","5","","","","","0","8"
"null","","","null","","","","html-keyboard-response","231","595181","0.0-231.0","60b1a61be94c05de415264a5","61fd896209286365c18ff2b2","","","","","<p style=""color:darkgreen;font-size:24px;"">Correct :)</p>","",""
"2496","key","v","v","16.66725333333326","500","250","psychophysics","232","597680","0.0-232.0","60b1a61be94c05de415264a5","61fd896209286365c18ff2b2","5","","","","","0","1"
"null","","","null","","","","html-keyboard-response","233","598187","0.0-233.0","60b1a61be94c05de415264a5","61fd896209286365c18ff2b2","","","","","<p style=""color:darkgreen;font-size:24px;"">Correct :)</p>","",""
"2818","key","v","v","16.666544378697928","500","250","psychophysics","234","601008","0.0-234.0","60b1a61be94c05de415264a5","61fd896209286365c18ff2b2","5","","","","","0","9"
"null","","","null","","","","html-keyboard-response","235","601509","0.0-235.0","60b1a61be94c05de415264a5","61fd896209286365c18ff2b2","","","","","<p style=""color:darkgreen;font-size:24px;"">Correct :)</p>","",""
"2576","key","v","v","16.666409090908953","500","250","psychophysics","236","604088","0.0-236.0","60b1a61be94c05de415264a5","61fd896209286365c18ff2b2","5","","","","","0","1"
"null","","","null","","","","html-keyboard-response","237","604589","0.0-237.0","60b1a61be94c05de415264a5","61fd896209286365c18ff2b2","","","","","<p style=""color:darkgreen;font-size:24px;"">Correct :)</p>","",""
"2574","key","n","n","16.665619354838537","500","250","psychophysics","238","607168","0.0-238.0","60b1a61be94c05de415264a5","61fd896209286365c18ff2b2","5","","","","","0","8"
"null","","","null","","","","html-keyboard-response","239","607669","0.0-239.0","60b1a61be94c05de415264a5","61fd896209286365c18ff2b2","","","","","<p style=""color:darkgreen;font-size:24px;"">Correct :)</p>","",""
"2440","key","n","n","16.66715646258454","500","250","psychophysics","240","610112","0.0-240.0","60b1a61be94c05de415264a5","61fd896209286365c18ff2b2","5","","","","","0","8"
"null","","","null","","","","html-keyboard-response","241","610614","0.0-241.0","60b1a61be94c05de415264a5","61fd896209286365c18ff2b2","","","","","<p style=""color:darkgreen;font-size:24px;"">Correct :)</p>","",""
"2630","key","v","v","16.663854430379534","500","250","psychophysics","242","613247","0.0-242.0","60b1a61be94c05de415264a5","61fd896209286365c18ff2b2","5","","","","","0","9"
"null","","","null","","","","html-keyboard-response","243","613749","0.0-243.0","60b1a61be94c05de415264a5","61fd896209286365c18ff2b2","","","","","<p style=""color:darkgreen;font-size:24px;"">Correct :)</p>","",""
"2912","key","n","n","16.66653142857099","500","250","psychophysics","244","616664","0.0-244.0","60b1a61be94c05de415264a5","61fd896209286365c18ff2b2","5","","","","","0","2"
"null","","","null","","","","html-keyboard-response","245","617165","0.0-245.0","60b1a61be94c05de415264a5","61fd896209286365c18ff2b2","","","","","<p style=""color:darkgreen;font-size:24px;"">Correct :)</p>","",""
"2728","key","v","v","16.666798780487692","500","250","psychophysics","246","619896","0.0-246.0","60b1a61be94c05de415264a5","61fd896209286365c18ff2b2","5","","","","","0","2"
"null","","","null","","","","html-keyboard-response","247","620398","0.0-247.0","60b1a61be94c05de415264a5","61fd896209286365c18ff2b2","","","","","<p style=""color:red;font-size:24px;"">Error :(</p>","",""
"2687","key","v","v","16.665708074534184","500","250","psychophysics","248","623088","0.0-248.0","60b1a61be94c05de415264a5","61fd896209286365c18ff2b2","5","","","","","0","9"
"null","","","null","","","","html-keyboard-response","249","623589","0.0-249.0","60b1a61be94c05de415264a5","61fd896209286365c18ff2b2","","","","","<p style=""color:darkgreen;font-size:24px;"">Correct :)</p>","",""
"2617","key","v","v","16.666917721518384","500","250","psychophysics","250","626209","0.0-250.0","60b1a61be94c05de415264a5","61fd896209286365c18ff2b2","5","","","","","0","3"
"null","","","null","","","","html-keyboard-response","251","626711","0.0-251.0","60b1a61be94c05de415264a5","61fd896209286365c18ff2b2","","","","","<p style=""color:darkgreen;font-size:24px;"">Correct :)</p>","",""
"2574","key","n","n","16.667883116883445","500","250","psychophysics","252","629288","0.0-252.0","60b1a61be94c05de415264a5","61fd896209286365c18ff2b2","5","","","","","0","4"
"null","","","null","","","","html-keyboard-response","253","629800","0.0-253.0","60b1a61be94c05de415264a5","61fd896209286365c18ff2b2","","","","","<p style=""color:darkgreen;font-size:24px;"">Correct :)</p>","",""
"2845","key","v","v","16.66656725146203","500","250","psychophysics","254","632648","0.0-254.0","60b1a61be94c05de415264a5","61fd896209286365c18ff2b2","5","","","","","0","3"
"null","","","null","","","","html-keyboard-response","255","633150","0.0-255.0","60b1a61be94c05de415264a5","61fd896209286365c18ff2b2","","","","","<p style=""color:darkgreen;font-size:24px;"">Correct :)</p>","",""
"2543","key","v","v","16.666764705882443","500","250","psychophysics","256","635697","0.0-256.0","60b1a61be94c05de415264a5","61fd896209286365c18ff2b2","5","","","","","0","3"
"null","","","null","","","","html-keyboard-response","257","636198","0.0-257.0","60b1a61be94c05de415264a5","61fd896209286365c18ff2b2","","","","","<p style=""color:darkgreen;font-size:24px;"">Correct :)</p>","",""
"2625","key","v","v","16.667528662420544","500","250","psychophysics","258","638824","0.0-258.0","60b1a61be94c05de415264a5","61fd896209286365c18ff2b2","5","","","","","0","9"
"null","","","null","","","","html-keyboard-response","259","639326","0.0-259.0","60b1a61be94c05de415264a5","61fd896209286365c18ff2b2","","","","","<p style=""color:darkgreen;font-size:24px;"">Correct :)</p>","",""
"2503","key","v","v","16.665166666666046","500","250","psychophysics","260","641832","0.0-260.0","60b1a61be94c05de415264a5","61fd896209286365c18ff2b2","5","","","","","0","1"
"null","","","null","","","","html-keyboard-response","261","642333","0.0-261.0","60b1a61be94c05de415264a5","61fd896209286365c18ff2b2","","","","","<p style=""color:darkgreen;font-size:24px;"">Correct :)</p>","",""
"2569","key","n","n","16.665220779220896","500","250","psychophysics","262","644905","0.0-262.0","60b1a61be94c05de415264a5","61fd896209286365c18ff2b2","5","","","","","0","4"
"null","","","null","","","","html-keyboard-response","263","645413","0.0-263.0","60b1a61be94c05de415264a5","61fd896209286365c18ff2b2","","","","","<p style=""color:darkgreen;font-size:24px;"">Correct :)</p>","",""
"2553","key","v","v","16.665228758170116","500","250","psychophysics","264","647969","0.0-264.0","60b1a61be94c05de415264a5","61fd896209286365c18ff2b2","5","","","","","0","1"
"null","","","null","","","","html-keyboard-response","265","648470","0.0-265.0","60b1a61be94c05de415264a5","61fd896209286365c18ff2b2","","","","","<p style=""color:darkgreen;font-size:24px;"">Correct :)</p>","",""
"2520","key","n","n","16.66790131578914","500","250","psychophysics","266","650993","0.0-266.0","60b1a61be94c05de415264a5","61fd896209286365c18ff2b2","5","","","","","0","8"
"null","","","null","","","","html-keyboard-response","267","651495","0.0-267.0","60b1a61be94c05de415264a5","61fd896209286365c18ff2b2","","","","","<p style=""color:darkgreen;font-size:24px;"">Correct :)</p>","",""
"2495","key","n","n","16.666159999999994","500","250","psychophysics","268","653992","0.0-268.0","60b1a61be94c05de415264a5","61fd896209286365c18ff2b2","5","","","","","0","6"
"null","","","null","","","","html-keyboard-response","269","654493","0.0-269.0","60b1a61be94c05de415264a5","61fd896209286365c18ff2b2","","","","","<p style=""color:darkgreen;font-size:24px;"">Correct :)</p>","",""
"2400","key","n","n","16.66645833333314","500","250","psychophysics","270","656897","0.0-270.0","60b1a61be94c05de415264a5","61fd896209286365c18ff2b2","5","","","","","0","8"
"null","","","null","","","","html-keyboard-response","271","657398","0.0-271.0","60b1a61be94c05de415264a5","61fd896209286365c18ff2b2","","","","","<p style=""color:darkgreen;font-size:24px;"">Correct :)</p>","",""
"2640","key","v","v","16.666177215189467","500","250","psychophysics","272","660041","0.0-272.0","60b1a61be94c05de415264a5","61fd896209286365c18ff2b2","5","","","","","0","7"
"null","","","null","","","","html-keyboard-response","273","660543","0.0-273.0","60b1a61be94c05de415264a5","61fd896209286365c18ff2b2","","","","","<p style=""color:darkgreen;font-size:24px;"">Correct :)</p>","",""
"2599","key","n","n","16.667275641025462","500","250","psychophysics","274","663145","0.0-274.0","60b1a61be94c05de415264a5","61fd896209286365c18ff2b2","5","","","","","0","4"
"null","","","null","","","","html-keyboard-response","275","663647","0.0-275.0","60b1a61be94c05de415264a5","61fd896209286365c18ff2b2","","","","","<p style=""color:darkgreen;font-size:24px;"">Correct :)</p>","",""
"2526","key","n","n","16.667197368420986","500","250","psychophysics","276","666177","0.0-276.0","60b1a61be94c05de415264a5","61fd896209286365c18ff2b2","5","","","","","0","9"
"null","","","null","","","","html-keyboard-response","277","666678","0.0-277.0","60b1a61be94c05de415264a5","61fd896209286365c18ff2b2","","","","","<p style=""color:red;font-size:24px;"">Error :(</p>","",""
"2618","key","v","v","16.66718471337593","500","250","psychophysics","278","669297","0.0-278.0","60b1a61be94c05de415264a5","61fd896209286365c18ff2b2","5","","","","","0","3"
"null","","","null","","","","html-keyboard-response","279","669798","0.0-279.0","60b1a61be94c05de415264a5","61fd896209286365c18ff2b2","","","","","<p style=""color:darkgreen;font-size:24px;"">Correct :)</p>","",""
"2736","key","v","v","16.66612804878046","500","250","psychophysics","280","672537","0.0-280.0","60b1a61be94c05de415264a5","61fd896209286365c18ff2b2","5","","","","","0","9"
"null","","","null","","","","html-keyboard-response","281","673039","0.0-281.0","60b1a61be94c05de415264a5","61fd896209286365c18ff2b2","","","","","<p style=""color:darkgreen;font-size:24px;"">Correct :)</p>","",""
"2775","key","n","n","16.667946107784555","500","250","psychophysics","282","675817","0.0-282.0","60b1a61be94c05de415264a5","61fd896209286365c18ff2b2","5","","","","","0","6"
"null","","","null","","","","html-keyboard-response","283","676319","0.0-283.0","60b1a61be94c05de415264a5","61fd896209286365c18ff2b2","","","","","<p style=""color:darkgreen;font-size:24px;"">Correct :)</p>","",""
"2756","key","n","n","16.66584848484843","500","250","psychophysics","284","679079","0.0-284.0","60b1a61be94c05de415264a5","61fd896209286365c18ff2b2","5","","","","","0","2"
"null","","","null","","","","html-keyboard-response","285","679580","0.0-285.0","60b1a61be94c05de415264a5","61fd896209286365c18ff2b2","","","","","<p style=""color:darkgreen;font-size:24px;"">Correct :)</p>","",""
"2513","key","n","n","16.666357615894007","500","250","psychophysics","286","682097","0.0-286.0","60b1a61be94c05de415264a5","61fd896209286365c18ff2b2","5","","","","","0","6"
"null","","","null","","","","html-keyboard-response","287","682599","0.0-287.0","60b1a61be94c05de415264a5","61fd896209286365c18ff2b2","","","","","<p style=""color:darkgreen;font-size:24px;"">Correct :)</p>","",""
"2575","key","n","n","16.666606451612296","500","250","psychophysics","288","685177","0.0-288.0","60b1a61be94c05de415264a5","61fd896209286365c18ff2b2","5","","","","","0","2"
"null","","","null","","","","html-keyboard-response","289","685679","0.0-289.0","60b1a61be94c05de415264a5","61fd896209286365c18ff2b2","","","","","<p style=""color:darkgreen;font-size:24px;"">Correct :)</p>","",""
"209510","","","v","","","","html-keyboard-response","290","895189","0.0-290.0","60b1a61be94c05de415264a5","61fd896209286365c18ff2b2","","","","","<p> Here, the tasks are going to switch.  For some trials, your job is to decide if the digit is less than or greater than 5.  For others, it is to decide if the digit is even or odd.  You will be told which type of trial the current one is.  But, pay attention, the type of trial changes too.  We are going to do 50 of these.  </p>  <br><br>  Ready? (press v or n)","",""
"2795","key","n","n","16.76813772455148","500","250","psychophysics","291","897989","0.0-291.0","60b1a61be94c05de415264a5","61fd896209286365c18ff2b2","6","","","","","1","2"
"null","","","null","","","","html-keyboard-response","292","898491","0.0-292.0","60b1a61be94c05de415264a5","61fd896209286365c18ff2b2","","","","","<p style=""color:red;font-size:24px;"">Error :(</p>","",""
"2663","key","v","v","16.666358490566044","500","250","psychophysics","293","901157","0.0-293.0","60b1a61be94c05de415264a5","61fd896209286365c18ff2b2","6","","","","","0","3"
"null","","","null","","","","html-keyboard-response","294","901659","0.0-294.0","60b1a61be94c05de415264a5","61fd896209286365c18ff2b2","","","","","<p style=""color:darkgreen;font-size:24px;"">Correct :)</p>","",""
"2936","key","n","n","16.666676136364085","500","250","psychophysics","295","904598","0.0-295.0","60b1a61be94c05de415264a5","61fd896209286365c18ff2b2","6","","","","","0","2"
"null","","","null","","","","html-keyboard-response","296","905099","0.0-296.0","60b1a61be94c05de415264a5","61fd896209286365c18ff2b2","","","","","<p style=""color:darkgreen;font-size:24px;"">Correct :)</p>","",""
"2688","key","n","n","16.665298136645315","500","250","psychophysics","297","907790","0.0-297.0","60b1a61be94c05de415264a5","61fd896209286365c18ff2b2","6","","","","","0","2"
"null","","","null","","","","html-keyboard-response","298","908291","0.0-298.0","60b1a61be94c05de415264a5","61fd896209286365c18ff2b2","","","","","<p style=""color:darkgreen;font-size:24px;"">Correct :)</p>","",""
"2495","key","v","v","16.665006711408683","500","250","psychophysics","299","910790","0.0-299.0","60b1a61be94c05de415264a5","61fd896209286365c18ff2b2","6","","","","","1","1"
"null","","","null","","","","html-keyboard-response","300","911291","0.0-300.0","60b1a61be94c05de415264a5","61fd896209286365c18ff2b2","","","","","<p style=""color:darkgreen;font-size:24px;"">Correct :)</p>","",""
"2775","key","n","n","16.66681818181832","500","250","psychophysics","301","914070","0.0-301.0","60b1a61be94c05de415264a5","61fd896209286365c18ff2b2","6","","","","","1","2"
"null","","","null","","","","html-keyboard-response","302","914571","0.0-302.0","60b1a61be94c05de415264a5","61fd896209286365c18ff2b2","","","","","<p style=""color:red;font-size:24px;"">Error :(</p>","",""
"3456","key","n","n","16.66649999999992","500","250","psychophysics","303","918029","0.0-303.0","60b1a61be94c05de415264a5","61fd896209286365c18ff2b2","6","","","","","0","4"
"null","","","null","","","","html-keyboard-response","304","918535","0.0-304.0","60b1a61be94c05de415264a5","61fd896209286365c18ff2b2","","","","","<p style=""color:darkgreen;font-size:24px;"">Correct :)</p>","",""
"3010","key","n","n","16.666149171271222","500","250","psychophysics","305","921549","0.0-305.0","60b1a61be94c05de415264a5","61fd896209286365c18ff2b2","6","","","","","0","9"
"null","","","null","","","","html-keyboard-response","306","922050","0.0-306.0","60b1a61be94c05de415264a5","61fd896209286365c18ff2b2","","","","","<p style=""color:red;font-size:24px;"">Error :(</p>","",""
"3089","key","v","v","16.66611290322579","500","250","psychophysics","307","925142","0.0-307.0","60b1a61be94c05de415264a5","61fd896209286365c18ff2b2","6","","","","","0","1"
"null","","","null","","","","html-keyboard-response","308","925645","0.0-308.0","60b1a61be94c05de415264a5","61fd896209286365c18ff2b2","","","","","<p style=""color:darkgreen;font-size:24px;"">Correct :)</p>","",""
"2838","key","n","n","16.666852941176415","500","250","psychophysics","309","928486","0.0-309.0","60b1a61be94c05de415264a5","61fd896209286365c18ff2b2","6","","","","","1","9"
"null","","","null","","","","html-keyboard-response","310","928995","0.0-310.0","60b1a61be94c05de415264a5","61fd896209286365c18ff2b2","","","","","<p style=""color:darkgreen;font-size:24px;"">Correct :)</p>","",""
"3208","key","v","v","16.666515625000102","500","250","psychophysics","311","932206","0.0-311.0","60b1a61be94c05de415264a5","61fd896209286365c18ff2b2","6","","","","","0","2"
"null","","","null","","","","html-keyboard-response","312","932707","0.0-312.0","60b1a61be94c05de415264a5","61fd896209286365c18ff2b2","","","","","<p style=""color:red;font-size:24px;"">Error :(</p>","",""
"3200","key","n","n","16.666073298429172","500","250","psychophysics","313","935909","0.0-313.0","60b1a61be94c05de415264a5","61fd896209286365c18ff2b2","6","","","","","0","4"
"null","","","null","","","","html-keyboard-response","314","936411","0.0-314.0","60b1a61be94c05de415264a5","61fd896209286365c18ff2b2","","","","","<p style=""color:darkgreen;font-size:24px;"">Correct :)</p>","",""
"2937","key","v","v","16.667914772727684","500","250","psychophysics","315","939350","0.0-315.0","60b1a61be94c05de415264a5","61fd896209286365c18ff2b2","6","","","","","0","3"
"null","","","null","","","","html-keyboard-response","316","939852","0.0-316.0","60b1a61be94c05de415264a5","61fd896209286365c18ff2b2","","","","","<p style=""color:darkgreen;font-size:24px;"">Correct :)</p>","",""
"2911","key","n","n","16.66735999999967","500","250","psychophysics","317","942766","0.0-317.0","60b1a61be94c05de415264a5","61fd896209286365c18ff2b2","6","","","","","1","9"
"null","","","null","","","","html-keyboard-response","318","943268","0.0-318.0","60b1a61be94c05de415264a5","61fd896209286365c18ff2b2","","","","","<p style=""color:darkgreen;font-size:24px;"">Correct :)</p>","",""
"3031","key","v","v","16.66671428571399","500","250","psychophysics","319","946302","0.0-319.0","60b1a61be94c05de415264a5","61fd896209286365c18ff2b2","6","","","","","0","1"
"null","","","null","","","","html-keyboard-response","320","946804","0.0-320.0","60b1a61be94c05de415264a5","61fd896209286365c18ff2b2","","","","","<p style=""color:darkgreen;font-size:24px;"">Correct :)</p>","",""
"2688","key","v","v","16.666827160493547","500","250","psychophysics","321","949495","0.0-321.0","60b1a61be94c05de415264a5","61fd896209286365c18ff2b2","6","","","","","0","9"
"null","","","null","","","","html-keyboard-response","322","949996","0.0-322.0","60b1a61be94c05de415264a5","61fd896209286365c18ff2b2","","","","","<p style=""color:darkgreen;font-size:24px;"">Correct :)</p>","",""
"2679","key","v","v","16.666950310559464","500","250","psychophysics","323","952679","0.0-323.0","60b1a61be94c05de415264a5","61fd896209286365c18ff2b2","6","","","","","0","3"
"null","","","null","","","","html-keyboard-response","324","953181","0.0-324.0","60b1a61be94c05de415264a5","61fd896209286365c18ff2b2","","","","","<p style=""color:darkgreen;font-size:24px;"">Correct :)</p>","",""
"2543","key","v","v","16.666921568627384","500","250","psychophysics","325","955727","0.0-325.0","60b1a61be94c05de415264a5","61fd896209286365c18ff2b2","6","","","","","0","3"
"null","","","null","","","","html-keyboard-response","326","956229","0.0-326.0","60b1a61be94c05de415264a5","61fd896209286365c18ff2b2","","","","","<p style=""color:darkgreen;font-size:24px;"">Correct :)</p>","",""
"2519","key","n","n","16.667026490066355","500","250","psychophysics","327","958751","0.0-327.0","60b1a61be94c05de415264a5","61fd896209286365c18ff2b2","6","","","","","0","4"
"null","","","null","","","","html-keyboard-response","328","959252","0.0-328.0","60b1a61be94c05de415264a5","61fd896209286365c18ff2b2","","","","","<p style=""color:darkgreen;font-size:24px;"">Correct :)</p>","",""
"2792","key","n","n","16.666559523809287","500","250","psychophysics","329","962047","0.0-329.0","60b1a61be94c05de415264a5","61fd896209286365c18ff2b2","6","","","","","1","6"
"null","","","null","","","","html-keyboard-response","330","962548","0.0-330.0","60b1a61be94c05de415264a5","61fd896209286365c18ff2b2","","","","","<p style=""color:darkgreen;font-size:24px;"">Correct :)</p>","",""
"2528","key","v","v","16.666243421052442","500","250","psychophysics","331","965079","0.0-331.0","60b1a61be94c05de415264a5","61fd896209286365c18ff2b2","6","","","","","1","4"
"null","","","null","","","","html-keyboard-response","332","965580","0.0-332.0","60b1a61be94c05de415264a5","61fd896209286365c18ff2b2","","","","","<p style=""color:darkgreen;font-size:24px;"">Correct :)</p>","",""
"2848","key","n","n","16.666742690058687","500","250","psychophysics","333","968431","0.0-333.0","60b1a61be94c05de415264a5","61fd896209286365c18ff2b2","6","","","","","0","4"
"null","","","null","","","","html-keyboard-response","334","968933","0.0-334.0","60b1a61be94c05de415264a5","61fd896209286365c18ff2b2","","","","","<p style=""color:darkgreen;font-size:24px;"">Correct :)</p>","",""
"2582","key","n","n","16.66599999999988","500","250","psychophysics","335","971519","0.0-335.0","60b1a61be94c05de415264a5","61fd896209286365c18ff2b2","6","","","","","1","6"
"null","","","null","","","","html-keyboard-response","336","972020","0.0-336.0","60b1a61be94c05de415264a5","61fd896209286365c18ff2b2","","","","","<p style=""color:darkgreen;font-size:24px;"">Correct :)</p>","",""
"2529","key","n","n","16.665756578947033","500","250","psychophysics","337","974551","0.0-337.0","60b1a61be94c05de415264a5","61fd896209286365c18ff2b2","6","","","","","0","4"
"null","","","null","","","","html-keyboard-response","338","975052","0.0-338.0","60b1a61be94c05de415264a5","61fd896209286365c18ff2b2","","","","","<p style=""color:darkgreen;font-size:24px;"">Correct :)</p>","",""
"2475","key","n","n","16.66502013422811","500","250","psychophysics","339","977535","0.0-339.0","60b1a61be94c05de415264a5","61fd896209286365c18ff2b2","6","","","","","0","2"
"null","","","null","","","","html-keyboard-response","340","978036","0.0-340.0","60b1a61be94c05de415264a5","61fd896209286365c18ff2b2","","","","","<p style=""color:darkgreen;font-size:24px;"">Correct :)</p>","",""
"2575","key","n","n","16.666651612903262","500","250","psychophysics","341","980615","0.0-341.0","60b1a61be94c05de415264a5","61fd896209286365c18ff2b2","6","","","","","1","2"
"null","","","null","","","","html-keyboard-response","342","981117","0.0-342.0","60b1a61be94c05de415264a5","61fd896209286365c18ff2b2","","","","","<p style=""color:red;font-size:24px;"">Error :(</p>","",""
"2679","key","v","v","16.666503105590248","500","250","psychophysics","343","983799","0.0-343.0","60b1a61be94c05de415264a5","61fd896209286365c18ff2b2","6","","","","","1","2"
"null","","","null","","","","html-keyboard-response","344","984301","0.0-344.0","60b1a61be94c05de415264a5","61fd896209286365c18ff2b2","","","","","<p style=""color:darkgreen;font-size:24px;"">Correct :)</p>","",""
"2455","key","v","v","16.664763513513577","500","250","psychophysics","345","986760","0.0-345.0","60b1a61be94c05de415264a5","61fd896209286365c18ff2b2","6","","","","","1","1"
"null","","","null","","","","html-keyboard-response","346","987261","0.0-346.0","60b1a61be94c05de415264a5","61fd896209286365c18ff2b2","","","","","<p style=""color:darkgreen;font-size:24px;"">Correct :)</p>","",""
"2511","key","n","n","16.665659999999527","500","250","psychophysics","347","989775","0.0-347.0","60b1a61be94c05de415264a5","61fd896209286365c18ff2b2","6","","","","","0","8"
"null","","","null","","","","html-keyboard-response","348","990276","0.0-348.0","60b1a61be94c05de415264a5","61fd896209286365c18ff2b2","","","","","<p style=""color:darkgreen;font-size:24px;"">Correct :)</p>","",""
"2424","key","v","v","16.66756551724152","500","250","psychophysics","349","992703","0.0-349.0","60b1a61be94c05de415264a5","61fd896209286365c18ff2b2","6","","","","","0","1"
"null","","","null","","","","html-keyboard-response","350","993208","0.0-350.0","60b1a61be94c05de415264a5","61fd896209286365c18ff2b2","","","","","<p style=""color:darkgreen;font-size:24px;"">Correct :)</p>","",""
"2438","key","n","n","16.665751724137827","500","250","psychophysics","351","995647","0.0-351.0","60b1a61be94c05de415264a5","61fd896209286365c18ff2b2","6","","","","","1","9"
"null","","","null","","","","html-keyboard-response","352","996150","0.0-352.0","60b1a61be94c05de415264a5","61fd896209286365c18ff2b2","","","","","<p style=""color:darkgreen;font-size:24px;"">Correct :)</p>","",""
"2543","key","v","v","16.666901960784077","500","250","psychophysics","353","998696","0.0-353.0","60b1a61be94c05de415264a5","61fd896209286365c18ff2b2","6","","","","","0","1"
"null","","","null","","","","html-keyboard-response","354","999197","0.0-354.0","60b1a61be94c05de415264a5","61fd896209286365c18ff2b2","","","","","<p style=""color:darkgreen;font-size:24px;"">Correct :)</p>","",""
"2507","key","n","n","16.66757615894042","500","250","psychophysics","355","1001712","0.0-355.0","60b1a61be94c05de415264a5","61fd896209286365c18ff2b2","6","","","","","1","7"
"null","","","null","","","","html-keyboard-response","356","1002214","0.0-356.0","60b1a61be94c05de415264a5","61fd896209286365c18ff2b2","","","","","<p style=""color:darkgreen;font-size:24px;"">Correct :)</p>","",""
"2678","key","v","v","16.667347826086772","500","250","psychophysics","357","1004896","0.0-357.0","60b1a61be94c05de415264a5","61fd896209286365c18ff2b2","6","","","","","0","9"
"null","","","null","","","","html-keyboard-response","358","1005398","0.0-358.0","60b1a61be94c05de415264a5","61fd896209286365c18ff2b2","","","","","<p style=""color:darkgreen;font-size:24px;"">Correct :)</p>","",""
"2440","key","v","v","16.66560958904112","500","250","psychophysics","359","1007840","0.0-359.0","60b1a61be94c05de415264a5","61fd896209286365c18ff2b2","6","","","","","0","2"
"null","","","null","","","","html-keyboard-response","360","1008342","0.0-360.0","60b1a61be94c05de415264a5","61fd896209286365c18ff2b2","","","","","<p style=""color:red;font-size:24px;"">Error :(</p>","",""
"2472","key","n","n","16.666033783783615","500","250","psychophysics","361","1010816","0.0-361.0","60b1a61be94c05de415264a5","61fd896209286365c18ff2b2","6","","","","","1","7"
"null","","","null","","","","html-keyboard-response","362","1011325","0.0-362.0","60b1a61be94c05de415264a5","61fd896209286365c18ff2b2","","","","","<p style=""color:darkgreen;font-size:24px;"">Correct :)</p>","",""
"2576","key","n","n","16.665863636364048","500","250","psychophysics","363","1013904","0.0-363.0","60b1a61be94c05de415264a5","61fd896209286365c18ff2b2","6","","","","","0","4"
"null","","","null","","","","html-keyboard-response","364","1014405","0.0-364.0","60b1a61be94c05de415264a5","61fd896209286365c18ff2b2","","","","","<p style=""color:darkgreen;font-size:24px;"">Correct :)</p>","",""
"2569","key","v","v","16.66591612903191","500","250","psychophysics","365","1016976","0.0-365.0","60b1a61be94c05de415264a5","61fd896209286365c18ff2b2","6","","","","","1","1"
"null","","","null","","","","html-keyboard-response","366","1017477","0.0-366.0","60b1a61be94c05de415264a5","61fd896209286365c18ff2b2","","","","","<p style=""color:darkgreen;font-size:24px;"">Correct :)</p>","",""
"2592","key","v","v","16.66618064516149","500","250","psychophysics","367","1020072","0.0-367.0","60b1a61be94c05de415264a5","61fd896209286365c18ff2b2","6","","","","","1","3"
"null","","","null","","","","html-keyboard-response","368","1020574","0.0-368.0","60b1a61be94c05de415264a5","61fd896209286365c18ff2b2","","","","","<p style=""color:darkgreen;font-size:24px;"">Correct :)</p>","",""
"3103","key","n","n","16.75543010752693","500","250","psychophysics","369","1023680","0.0-369.0","60b1a61be94c05de415264a5","61fd896209286365c18ff2b2","6","","","","","0","4"
"null","","","null","","","","html-keyboard-response","370","1024189","0.0-370.0","60b1a61be94c05de415264a5","61fd896209286365c18ff2b2","","","","","<p style=""color:darkgreen;font-size:24px;"">Correct :)</p>","",""
"2840","key","v","v","16.667210526315753","500","250","psychophysics","371","1027033","0.0-371.0","60b1a61be94c05de415264a5","61fd896209286365c18ff2b2","6","","","","","1","3"
"null","","","null","","","","html-keyboard-response","372","1027534","0.0-372.0","60b1a61be94c05de415264a5","61fd896209286365c18ff2b2","","","","","<p style=""color:darkgreen;font-size:24px;"">Correct :)</p>","",""
"2634","key","n","n","16.665849056603744","500","250","psychophysics","373","1030176","0.0-373.0","60b1a61be94c05de415264a5","61fd896209286365c18ff2b2","6","","","","","0","7"
"null","","","null","","","","html-keyboard-response","374","1030678","0.0-374.0","60b1a61be94c05de415264a5","61fd896209286365c18ff2b2","","","","","<p style=""color:red;font-size:24px;"">Error :(</p>","",""
"2870","key","n","n","16.666970930232797","500","250","psychophysics","375","1033552","0.0-375.0","60b1a61be94c05de415264a5","61fd896209286365c18ff2b2","6","","","","","1","7"
"null","","","null","","","","html-keyboard-response","376","1034060","0.0-376.0","60b1a61be94c05de415264a5","61fd896209286365c18ff2b2","","","","","<p style=""color:darkgreen;font-size:24px;"">Correct :)</p>","",""
"2865","key","v","v","16.665790697674097","500","250","psychophysics","377","1036928","0.0-377.0","60b1a61be94c05de415264a5","61fd896209286365c18ff2b2","6","","","","","0","1"
"null","","","null","","","","html-keyboard-response","378","1037429","0.0-378.0","60b1a61be94c05de415264a5","61fd896209286365c18ff2b2","","","","","<p style=""color:darkgreen;font-size:24px;"">Correct :)</p>","",""
"2952","key","v","v","16.666711864406295","500","250","psychophysics","379","1040384","0.0-379.0","60b1a61be94c05de415264a5","61fd896209286365c18ff2b2","6","","","","","0","9"
"null","","","null","","","","html-keyboard-response","380","1040886","0.0-380.0","60b1a61be94c05de415264a5","61fd896209286365c18ff2b2","","","","","<p style=""color:darkgreen;font-size:24px;"">Correct :)</p>","",""
"2576","key","v","v","16.663548387096625","500","250","psychophysics","381","1043465","0.0-381.0","60b1a61be94c05de415264a5","61fd896209286365c18ff2b2","6","","","","","0","3"
"null","","","null","","","","html-keyboard-response","382","1043966","0.0-382.0","60b1a61be94c05de415264a5","61fd896209286365c18ff2b2","","","","","<p style=""color:darkgreen;font-size:24px;"">Correct :)</p>","",""
"2440","key","v","v","16.66552054794499","500","250","psychophysics","383","1046409","0.0-383.0","60b1a61be94c05de415264a5","61fd896209286365c18ff2b2","6","","","","","0","3"
"null","","","null","","","","html-keyboard-response","384","1046911","0.0-384.0","60b1a61be94c05de415264a5","61fd896209286365c18ff2b2","","","","","<p style=""color:darkgreen;font-size:24px;"">Correct :)</p>","",""
"2590","key","v","v","16.66591612903191","500","250","psychophysics","385","1049505","0.0-385.0","60b1a61be94c05de415264a5","61fd896209286365c18ff2b2","6","","","","","1","1"
"null","","","null","","","","html-keyboard-response","386","1050006","0.0-386.0","60b1a61be94c05de415264a5","61fd896209286365c18ff2b2","","","","","<p style=""color:darkgreen;font-size:24px;"">Correct :)</p>","",""
"2456","key","v","v","16.665756756756014","500","250","psychophysics","387","1052465","0.0-387.0","60b1a61be94c05de415264a5","61fd896209286365c18ff2b2","6","","","","","0","1"
"null","","","null","","","","html-keyboard-response","388","1052966","0.0-388.0","60b1a61be94c05de415264a5","61fd896209286365c18ff2b2","","","","","<p style=""color:darkgreen;font-size:24px;"">Correct :)</p>","",""
"2696","key","n","n","16.666864197530185","500","250","psychophysics","389","1055665","0.0-389.0","60b1a61be94c05de415264a5","61fd896209286365c18ff2b2","6","","","","","1","4"
"null","","","null","","","","html-keyboard-response","390","1056166","0.0-390.0","60b1a61be94c05de415264a5","61fd896209286365c18ff2b2","","","","","<p style=""color:red;font-size:24px;"">Error :(</p>","",""
"7018","","","n","","","","html-keyboard-response","391","1063185","0.0-391.0","60b1a61be94c05de415264a5","61fd896209286365c18ff2b2","","","","","<p> Last set of trials.  Here, the tasks are going to switch once again.  We are going to do 50 of these.  And then you are done with the experiment.  </p>  <br><br>  Ready? (press v or n)","",""
"2636","key","n","n","16.666810126581723","500","250","psychophysics","392","1065822","0.0-392.0","60b1a61be94c05de415264a5","61fd896209286365c18ff2b2","7","","","","","1","6"
"null","","","null","","","","html-keyboard-response","393","1066324","0.0-393.0","60b1a61be94c05de415264a5","61fd896209286365c18ff2b2","","","","","<p style=""color:darkgreen;font-size:24px;"">Correct :)</p>","",""
"2663","key","n","n","16.665625","500","250","psychophysics","394","1068990","0.0-394.0","60b1a61be94c05de415264a5","61fd896209286365c18ff2b2","7","","","","","0","6"
"null","","","null","","","","html-keyboard-response","395","1069491","0.0-395.0","60b1a61be94c05de415264a5","61fd896209286365c18ff2b2","","","","","<p style=""color:darkgreen;font-size:24px;"">Correct :)</p>","",""
"2625","key","n","n","16.667248407642766","500","250","psychophysics","396","1072119","0.0-396.0","60b1a61be94c05de415264a5","61fd896209286365c18ff2b2","7","","","","","0","4"
"null","","","null","","","","html-keyboard-response","397","1072620","0.0-397.0","60b1a61be94c05de415264a5","61fd896209286365c18ff2b2","","","","","<p style=""color:darkgreen;font-size:24px;"">Correct :)</p>","",""
"2470","key","n","n","16.66604697986681","500","250","psychophysics","398","1075094","0.0-398.0","60b1a61be94c05de415264a5","61fd896209286365c18ff2b2","7","","","","","1","7"
"null","","","null","","","","html-keyboard-response","399","1075596","0.0-399.0","60b1a61be94c05de415264a5","61fd896209286365c18ff2b2","","","","","<p style=""color:darkgreen;font-size:24px;"">Correct :)</p>","",""
"2655","key","n","n","16.6657924528304","500","250","psychophysics","400","1078254","0.0-400.0","60b1a61be94c05de415264a5","61fd896209286365c18ff2b2","7","","","","","1","2"
"null","","","null","","","","html-keyboard-response","401","1078756","0.0-401.0","60b1a61be94c05de415264a5","61fd896209286365c18ff2b2","","","","","<p style=""color:red;font-size:24px;"">Error :(</p>","",""
"3095","key","v","v","16.666897297296924","500","250","psychophysics","402","1081854","0.0-402.0","60b1a61be94c05de415264a5","61fd896209286365c18ff2b2","7","","","","","1","4"
"null","","","null","","","","html-keyboard-response","403","1082356","0.0-403.0","60b1a61be94c05de415264a5","61fd896209286365c18ff2b2","","","","","<p style=""color:darkgreen;font-size:24px;"">Correct :)</p>","",""
"2792","key","n","n","16.666640718562338","500","250","psychophysics","404","1085150","0.0-404.0","60b1a61be94c05de415264a5","61fd896209286365c18ff2b2","7","","","","","0","7"
"null","","","null","","","","html-keyboard-response","405","1085652","0.0-405.0","60b1a61be94c05de415264a5","61fd896209286365c18ff2b2","","","","","<p style=""color:red;font-size:24px;"">Error :(</p>","",""
"2735","key","n","n","16.667187878788646","500","250","psychophysics","406","1088390","0.0-406.0","60b1a61be94c05de415264a5","61fd896209286365c18ff2b2","7","","","","","1","2"
"null","","","null","","","","html-keyboard-response","407","1088891","0.0-407.0","60b1a61be94c05de415264a5","61fd896209286365c18ff2b2","","","","","<p style=""color:red;font-size:24px;"">Error :(</p>","",""
"2568","key","v","v","16.665194805195956","500","250","psychophysics","408","1091463","0.0-408.0","60b1a61be94c05de415264a5","61fd896209286365c18ff2b2","7","","","","","1","2"
"null","","","null","","","","html-keyboard-response","409","1091973","0.0-409.0","60b1a61be94c05de415264a5","61fd896209286365c18ff2b2","","","","","<p style=""color:darkgreen;font-size:24px;"">Correct :)</p>","",""
"2879","key","v","v","16.66701162790712","500","250","psychophysics","410","1094855","0.0-410.0","60b1a61be94c05de415264a5","61fd896209286365c18ff2b2","7","","","","","0","6"
"null","","","null","","","","html-keyboard-response","411","1095357","0.0-411.0","60b1a61be94c05de415264a5","61fd896209286365c18ff2b2","","","","","<p style=""color:red;font-size:24px;"">Error :(</p>","",""
"2999","key","v","v","16.6672111111111","500","250","psychophysics","412","1098359","0.0-412.0","60b1a61be94c05de415264a5","61fd896209286365c18ff2b2","7","","","","","1","4"
"null","","","null","","","","html-keyboard-response","413","1098860","0.0-413.0","60b1a61be94c05de415264a5","61fd896209286365c18ff2b2","","","","","<p style=""color:darkgreen;font-size:24px;"">Correct :)</p>","",""
"2816","key","v","v","16.666609467454972","500","250","psychophysics","414","1101679","0.0-414.0","60b1a61be94c05de415264a5","61fd896209286365c18ff2b2","7","","","","","1","4"
"null","","","null","","","","html-keyboard-response","415","1102183","0.0-415.0","60b1a61be94c05de415264a5","61fd896209286365c18ff2b2","","","","","<p style=""color:darkgreen;font-size:24px;"">Correct :)</p>","",""
"2604","key","v","v","16.66740127388465","500","250","psychophysics","416","1104790","0.0-416.0","60b1a61be94c05de415264a5","61fd896209286365c18ff2b2","7","","","","","1","1"
"null","","","null","","","","html-keyboard-response","417","1105292","0.0-417.0","60b1a61be94c05de415264a5","61fd896209286365c18ff2b2","","","","","<p style=""color:darkgreen;font-size:24px;"">Correct :)</p>","",""
"2656","key","v","v","16.666603773584846","500","250","psychophysics","418","1107951","0.0-418.0","60b1a61be94c05de415264a5","61fd896209286365c18ff2b2","7","","","","","1","1"
"null","","","null","","","","html-keyboard-response","419","1108453","0.0-419.0","60b1a61be94c05de415264a5","61fd896209286365c18ff2b2","","","","","<p style=""color:darkgreen;font-size:24px;"">Correct :)</p>","",""
"2464","key","v","v","16.6660337837844","500","250","psychophysics","420","1110919","0.0-420.0","60b1a61be94c05de415264a5","61fd896209286365c18ff2b2","7","","","","","0","1"
"null","","","null","","","","html-keyboard-response","421","1111421","0.0-421.0","60b1a61be94c05de415264a5","61fd896209286365c18ff2b2","","","","","<p style=""color:darkgreen;font-size:24px;"">Correct :)</p>","",""
"2623","key","v","v","16.77279617834338","500","250","psychophysics","422","1114047","0.0-422.0","60b1a61be94c05de415264a5","61fd896209286365c18ff2b2","7","","","","","0","7"
"null","","","null","","","","html-keyboard-response","423","1114549","0.0-423.0","60b1a61be94c05de415264a5","61fd896209286365c18ff2b2","","","","","<p style=""color:darkgreen;font-size:24px;"">Correct :)</p>","",""
"2711","key","v","v","16.6655644171777","500","250","psychophysics","424","1117263","0.0-424.0","60b1a61be94c05de415264a5","61fd896209286365c18ff2b2","7","","","","","1","4"
"null","","","null","","","","html-keyboard-response","425","1117765","0.0-425.0","60b1a61be94c05de415264a5","61fd896209286365c18ff2b2","","","","","<p style=""color:darkgreen;font-size:24px;"">Correct :)</p>","",""
"2508","key","v","v","16.66652980132417","500","250","psychophysics","426","1120279","0.0-426.0","60b1a61be94c05de415264a5","61fd896209286365c18ff2b2","7","","","","","1","2"
"null","","","null","","","","html-keyboard-response","427","1120780","0.0-427.0","60b1a61be94c05de415264a5","61fd896209286365c18ff2b2","","","","","<p style=""color:darkgreen;font-size:24px;"">Correct :)</p>","",""
"2553","key","n","n","16.665797385619953","500","250","psychophysics","428","1123336","0.0-428.0","60b1a61be94c05de415264a5","61fd896209286365c18ff2b2","7","","","","","0","2"
"null","","","null","","","","html-keyboard-response","429","1123850","0.0-429.0","60b1a61be94c05de415264a5","61fd896209286365c18ff2b2","","","","","<p style=""color:darkgreen;font-size:24px;"">Correct :)</p>","",""
"2603","key","v","v","16.66657051282117","500","250","psychophysics","430","1126453","0.0-430.0","60b1a61be94c05de415264a5","61fd896209286365c18ff2b2","7","","","","","0","3"
"null","","","null","","","","html-keyboard-response","431","1126955","0.0-431.0","60b1a61be94c05de415264a5","61fd896209286365c18ff2b2","","","","","<p style=""color:darkgreen;font-size:24px;"">Correct :)</p>","",""
"2519","key","v","v","16.665662251656492","500","250","psychophysics","432","1129477","0.0-432.0","60b1a61be94c05de415264a5","61fd896209286365c18ff2b2","7","","","","","1","7"
"null","","","null","","","","html-keyboard-response","433","1129978","0.0-433.0","60b1a61be94c05de415264a5","61fd896209286365c18ff2b2","","","","","<p style=""color:red;font-size:24px;"">Error :(</p>","",""
"2527","key","v","v","16.66557894736884","500","250","psychophysics","434","1132509","0.0-434.0","60b1a61be94c05de415264a5","61fd896209286365c18ff2b2","7","","","","","0","3"
"null","","","null","","","","html-keyboard-response","435","1133013","0.0-435.0","60b1a61be94c05de415264a5","61fd896209286365c18ff2b2","","","","","<p style=""color:darkgreen;font-size:24px;"">Correct :)</p>","",""
"2404","key","v","v","16.666034482759905","500","250","psychophysics","436","1135421","0.0-436.0","60b1a61be94c05de415264a5","61fd896209286365c18ff2b2","7","","","","","0","3"
"null","","","null","","","","html-keyboard-response","437","1135922","0.0-437.0","60b1a61be94c05de415264a5","61fd896209286365c18ff2b2","","","","","<p style=""color:darkgreen;font-size:24px;"">Correct :)</p>","",""
"2632","key","n","n","16.665905063291067","500","250","psychophysics","438","1138557","0.0-438.0","60b1a61be94c05de415264a5","61fd896209286365c18ff2b2","7","","","","","0","4"
"null","","","null","","","","html-keyboard-response","439","1139058","0.0-439.0","60b1a61be94c05de415264a5","61fd896209286365c18ff2b2","","","","","<p style=""color:darkgreen;font-size:24px;"">Correct :)</p>","",""
"2527","key","v","v","16.66715131578875","500","250","psychophysics","440","1141589","0.0-440.0","60b1a61be94c05de415264a5","61fd896209286365c18ff2b2","7","","","","","0","3"
"null","","","null","","","","html-keyboard-response","441","1142090","0.0-441.0","60b1a61be94c05de415264a5","61fd896209286365c18ff2b2","","","","","<p style=""color:darkgreen;font-size:24px;"">Correct :)</p>","",""
"2544","key","n","n","16.665875816993186","500","250","psychophysics","442","1144638","0.0-442.0","60b1a61be94c05de415264a5","61fd896209286365c18ff2b2","7","","","","","1","7"
"null","","","null","","","","html-keyboard-response","443","1145139","0.0-443.0","60b1a61be94c05de415264a5","61fd896209286365c18ff2b2","","","","","<p style=""color:darkgreen;font-size:24px;"">Correct :)</p>","",""
"2471","key","n","n","16.66753378378328","500","250","psychophysics","444","1147613","0.0-444.0","60b1a61be94c05de415264a5","61fd896209286365c18ff2b2","7","","","","","1","7"
"null","","","null","","","","html-keyboard-response","445","1148125","0.0-445.0","60b1a61be94c05de415264a5","61fd896209286365c18ff2b2","","","","","<p style=""color:darkgreen;font-size:24px;"">Correct :)</p>","",""
"2540","key","n","n","16.667230263157858","500","250","psychophysics","446","1150669","0.0-446.0","60b1a61be94c05de415264a5","61fd896209286365c18ff2b2","7","","","","","0","2"
"null","","","null","","","","html-keyboard-response","447","1151172","0.0-447.0","60b1a61be94c05de415264a5","61fd896209286365c18ff2b2","","","","","<p style=""color:darkgreen;font-size:24px;"">Correct :)</p>","",""
"2551","key","v","v","16.665790849672693","500","250","psychophysics","448","1153725","0.0-448.0","60b1a61be94c05de415264a5","61fd896209286365c18ff2b2","7","","","","","1","1"
"null","","","null","","","","html-keyboard-response","449","1154226","0.0-449.0","60b1a61be94c05de415264a5","61fd896209286365c18ff2b2","","","","","<p style=""color:darkgreen;font-size:24px;"">Correct :)</p>","",""
"2592","key","n","n","16.666762820512165","500","250","psychophysics","450","1156821","0.0-450.0","60b1a61be94c05de415264a5","61fd896209286365c18ff2b2","7","","","","","1","4"
"null","","","null","","","","html-keyboard-response","451","1157326","0.0-451.0","60b1a61be94c05de415264a5","61fd896209286365c18ff2b2","","","","","<p style=""color:red;font-size:24px;"">Error :(</p>","",""
"2988","key","n","n","16.667452513967387","500","250","psychophysics","452","1160318","0.0-452.0","60b1a61be94c05de415264a5","61fd896209286365c18ff2b2","7","","","","","0","4"
"null","","","null","","","","html-keyboard-response","453","1160819","0.0-453.0","60b1a61be94c05de415264a5","61fd896209286365c18ff2b2","","","","","<p style=""color:darkgreen;font-size:24px;"">Correct :)</p>","",""
"3151","key","n","n","16.754682539682587","500","250","psychophysics","454","1163973","0.0-454.0","60b1a61be94c05de415264a5","61fd896209286365c18ff2b2","7","","","","","0","2"
"null","","","null","","","","html-keyboard-response","455","1164475","0.0-455.0","60b1a61be94c05de415264a5","61fd896209286365c18ff2b2","","","","","<p style=""color:darkgreen;font-size:24px;"">Correct :)</p>","",""
"2592","key","n","n","16.667290322580225","500","250","psychophysics","456","1167069","0.0-456.0","60b1a61be94c05de415264a5","61fd896209286365c18ff2b2","7","","","","","0","6"
"null","","","null","","","","html-keyboard-response","457","1167570","0.0-457.0","60b1a61be94c05de415264a5","61fd896209286365c18ff2b2","","","","","<p style=""color:darkgreen;font-size:24px;"">Correct :)</p>","",""
"3088","key","v","v","16.665302702702732","500","250","psychophysics","458","1170662","0.0-458.0","60b1a61be94c05de415264a5","61fd896209286365c18ff2b2","7","","","","","1","4"
"null","","","null","","","","html-keyboard-response","459","1171163","0.0-459.0","60b1a61be94c05de415264a5","61fd896209286365c18ff2b2","","","","","<p style=""color:darkgreen;font-size:24px;"">Correct :)</p>","",""
"2813","key","v","v","16.66688757396397","500","250","psychophysics","460","1173979","0.0-460.0","60b1a61be94c05de415264a5","61fd896209286365c18ff2b2","7","","","","","0","7"
"null","","","null","","","","html-keyboard-response","461","1174480","0.0-461.0","60b1a61be94c05de415264a5","61fd896209286365c18ff2b2","","","","","<p style=""color:darkgreen;font-size:24px;"">Correct :)</p>","",""
"2610","key","n","n","16.666343949044087","500","250","psychophysics","462","1177094","0.0-462.0","60b1a61be94c05de415264a5","61fd896209286365c18ff2b2","7","","","","","1","7"
"null","","","null","","","","html-keyboard-response","463","1177596","0.0-463.0","60b1a61be94c05de415264a5","61fd896209286365c18ff2b2","","","","","<p style=""color:darkgreen;font-size:24px;"">Correct :)</p>","",""
"2542","key","n","n","16.66706535947704","500","250","psychophysics","464","1180142","0.0-464.0","60b1a61be94c05de415264a5","61fd896209286365c18ff2b2","7","","","","","0","4"
"null","","","null","","","","html-keyboard-response","465","1180643","0.0-465.0","60b1a61be94c05de415264a5","61fd896209286365c18ff2b2","","","","","<p style=""color:darkgreen;font-size:24px;"">Correct :)</p>","",""
"2943","key","v","v","16.66625988700606","500","250","psychophysics","466","1183589","0.0-466.0","60b1a61be94c05de415264a5","61fd896209286365c18ff2b2","7","","","","","0","3"
"null","","","null","","","","html-keyboard-response","467","1184091","0.0-467.0","60b1a61be94c05de415264a5","61fd896209286365c18ff2b2","","","","","<p style=""color:darkgreen;font-size:24px;"">Correct :)</p>","",""
"13712","key","v","v","16.666699878493198","500","250","psychophysics","468","1197803","0.0-468.0","60b1a61be94c05de415264a5","61fd896209286365c18ff2b2","7","","","","","1","4"
"null","","","null","","","","html-keyboard-response","469","1198305","0.0-469.0","60b1a61be94c05de415264a5","61fd896209286365c18ff2b2","","","","","<p style=""color:darkgreen;font-size:24px;"">Correct :)</p>","",""
"3375","key","v","v","16.666247524752162","500","250","psychophysics","470","1201684","0.0-470.0","60b1a61be94c05de415264a5","61fd896209286365c18ff2b2","7","","","","","0","1"
"null","","","null","","","","html-keyboard-response","471","1202185","0.0-471.0","60b1a61be94c05de415264a5","61fd896209286365c18ff2b2","","","","","<p style=""color:darkgreen;font-size:24px;"">Correct :)</p>","",""
"2743","key","v","v","16.665463414633784","500","250","psychophysics","472","1204931","0.0-472.0","60b1a61be94c05de415264a5","61fd896209286365c18ff2b2","7","","","","","1","1"
"null","","","null","","","","html-keyboard-response","473","1205433","0.0-473.0","60b1a61be94c05de415264a5","61fd896209286365c18ff2b2","","","","","<p style=""color:darkgreen;font-size:24px;"">Correct :)</p>","",""
"2464","key","v","v","16.780156462584767","500","250","psychophysics","474","1207900","0.0-474.0","60b1a61be94c05de415264a5","61fd896209286365c18ff2b2","7","","","","","1","1"
"null","","","null","","","","html-keyboard-response","475","1208401","0.0-475.0","60b1a61be94c05de415264a5","61fd896209286365c18ff2b2","","","","","<p style=""color:darkgreen;font-size:24px;"">Correct :)</p>","",""
"2992","key","v","v","16.66983798882591","500","250","psychophysics","476","1211395","0.0-476.0","60b1a61be94c05de415264a5","61fd896209286365c18ff2b2","7","","","","","1","4"
"null","","","null","","","","html-keyboard-response","477","1211897","0.0-477.0","60b1a61be94c05de415264a5","61fd896209286365c18ff2b2","","","","","<p style=""color:darkgreen;font-size:24px;"">Correct :)</p>","",""
"2574","key","n","n","16.665206451613397","500","250","psychophysics","478","1214475","0.0-478.0","60b1a61be94c05de415264a5","61fd896209286365c18ff2b2","7","","","","","1","6"
"null","","","null","","","","html-keyboard-response","479","1214976","0.0-479.0","60b1a61be94c05de415264a5","61fd896209286365c18ff2b2","","","","","<p style=""color:darkgreen;font-size:24px;"">Correct :)</p>","",""
"2505","key","v","v","16.665479999999516","500","250","psychophysics","480","1217484","0.0-480.0","60b1a61be94c05de415264a5","61fd896209286365c18ff2b2","7","","","","","1","1"
"null","","","null","","","","html-keyboard-response","481","1217985","0.0-481.0","60b1a61be94c05de415264a5","61fd896209286365c18ff2b2","","","","","<p style=""color:darkgreen;font-size:24px;"">Correct :)</p>","",""
"2528","key","n","n","16.66666887417152","500","250","psychophysics","482","1220516","0.0-482.0","60b1a61be94c05de415264a5","61fd896209286365c18ff2b2","7","","","","","0","7"
"null","","","null","","","","html-keyboard-response","483","1221017","0.0-483.0","60b1a61be94c05de415264a5","61fd896209286365c18ff2b2","","","","","<p style=""color:red;font-size:24px;"">Error :(</p>","",""
"2745","key","v","v","16.666542682925908","500","250","psychophysics","484","1223763","0.0-484.0","60b1a61be94c05de415264a5","61fd896209286365c18ff2b2","7","","","","","0","7"
"null","","","null","","","","html-keyboard-response","485","1224265","0.0-485.0","60b1a61be94c05de415264a5","61fd896209286365c18ff2b2","","","","","<p style=""color:darkgreen;font-size:24px;"">Correct :)</p>","",""
"2702","key","n","n","16.666079754601203","500","250","psychophysics","486","1226971","0.0-486.0","60b1a61be94c05de415264a5","61fd896209286365c18ff2b2","7","","","","","0","4"
"null","","","null","","","","html-keyboard-response","487","1227472","0.0-487.0","60b1a61be94c05de415264a5","61fd896209286365c18ff2b2","","","","","<p style=""color:darkgreen;font-size:24px;"">Correct :)</p>","",""
"2912","key","n","n","16.665759999999512","500","250","psychophysics","488","1230388","0.0-488.0","60b1a61be94c05de415264a5","61fd896209286365c18ff2b2","7","","","","","0","2"
"null","","","null","","","","html-keyboard-response","489","1230889","0.0-489.0","60b1a61be94c05de415264a5","61fd896209286365c18ff2b2","","","","","<p style=""color:darkgreen;font-size:24px;"">Correct :)</p>","",""
"2576","key","v","v","16.666296774192503","500","250","psychophysics","490","1233468","0.0-490.0","60b1a61be94c05de415264a5","61fd896209286365c18ff2b2","7","","","","","0","3"
"null","","","null","","","","html-keyboard-response","491","1233970","0.0-491.0","60b1a61be94c05de415264a5","61fd896209286365c18ff2b2","","","","","<p style=""color:darkgreen;font-size:24px;"">Correct :)</p>","",""
